STUDYID,DOMAIN,USUBJID,SUBJID,RFSTDTC,RFENDTC,RFXSTDTC,RFXENDTC,RFICDTC,RFPENDTC,DTHDTC,DTHFL,SITEID,INVNAM,BRTHDTC,AGE,AGEU,SEX,RACE,ETHNIC,ARMCD,ARM,ACTARMCD,ACTARM,ARMNRS,ACTARMUD,COUNTRY
VISION-NSCLC,DM,VISION-NSCLC-SITE001-0001,0001,2024-03-27,2024-04-22,2024-03-27,2024-04-11,2024-03-07,2024-04-22,,,SITE001,Dr. Robert Chen,1978,46,YEARS,M,WHITE,NOT HISPANIC OR LATINO,TEP500,Tepotinib 500mg QD,TEP500,Tepotinib 500mg QD,,,USA
VISION-NSCLC,DM,VISION-NSCLC-SITE001-0004,0004,,,,,2024-01-30,,,,SITE001,Dr. Robert Chen,2000,24,YEARS,M,WHITE,NOT HISPANIC OR LATINO,,,,,SCREEN FAILURE,,USA
VISION-NSCLC,DM,VISION-NSCLC-SITE001-0007,0007,2024-02-13,2024-09-25,2024-02-13,2024-05-14,2024-01-15,2024-09-25,,,SITE001,Dr. Robert Chen,1975,49,YEARS,M,WHITE,NOT HISPANIC OR LATINO,TEP500,Tepotinib 500mg QD,TEP500,Tepotinib 500mg QD,,,USA
VISION-NSCLC,DM,VISION-NSCLC-SITE001-0010,0010,2024-02-05,2024-09-17,2024-02-05,2024-05-30,2024-01-28,2024-09-17,,,SITE001,Dr. Robert Chen,1986,38,YEARS,M,WHITE,NOT HISPANIC OR LATINO,TEP500,Tepotinib 500mg QD,TEP500,Tepotinib 500mg QD,,,USA
VISION-NSCLC,DM,VISION-NSCLC-SITE001-0013,0013,,,,,2024-03-16,,,,SITE001,Dr. Robert Chen,1970,54,YEARS,M,WHITE,NOT HISPANIC OR LATINO,,,,,SCREEN FAILURE,,USA
VISION-NSCLC,DM,VISION-NSCLC-SITE001-0016,0016,2024-04-11,2024-05-13,2024-04-11,2024-04-30,2024-03-31,2024-05-13,,,SITE001,Dr. Robert Chen,1950,74,YEARS,M,BLACK OR AFRICAN AMERICAN,NOT HISPANIC OR LATINO,TEP500,Tepotinib 500mg QD,TEP500,Tepotinib 500mg QD,,,USA
VISION-NSCLC,DM,VISION-NSCLC-SITE001-0019,0019,2024-03-26,2024-11-06,2024-03-26,2024-07-30,2024-02-21,2024-11-06,,,SITE001,Dr. Robert Chen,1969,55,YEARS,F,WHITE,NOT HISPANIC OR LATINO,TEP500,Tepotinib 500mg QD,TEP500,Tepotinib 500mg QD,,,USA
VISION-NSCLC,DM,VISION-NSCLC-SITE001-0022,0022,2024-02-28,2024-10-10,2024-02-28,2024-06-11,2024-01-25,2024-10-10,,,SITE001,Dr. Robert Chen,1988,36,YEARS,F,WHITE,NOT HISPANIC OR LATINO,TEP500,Tepotinib 500mg QD,TEP500,Tepotinib 500mg QD,,,USA
VISION-NSCLC,DM,VISION-NSCLC-SITE001-0025,0025,2024-03-14,2024-10-25,2024-03-14,2024-07-18,2024-03-04,2024-10-25,,,SITE001,Dr. Robert Chen,1960,64,YEARS,M,WHITE,NOT HISPANIC OR LATINO,TEP500,Tepotinib 500mg QD,TEP500,Tepotinib 500mg QD,,,USA
VISION-NSCLC,DM,VISION-NSCLC-SITE001-0028,0028,2024-02-21,2024-10-03,2024-02-21,2024-07-04,2024-02-11,2024-10-03,,,SITE001,Dr. Robert Chen,2006,18,YEARS,F,ASIAN,NOT HISPANIC OR LATINO,TEP500,Tepotinib 500mg QD,TEP500,Tepotinib 500mg QD,,,USA
VISION-NSCLC,DM,VISION-NSCLC-SITE001-0031,0031,2024-03-06,2024-10-17,2024-03-06,2024-06-30,2024-02-02,2024-10-17,,,SITE001,Dr. Robert Chen,2006,18,YEARS,M,WHITE,HISPANIC OR LATINO,TEP500,Tepotinib 500mg QD,TEP500,Tepotinib 500mg QD,,,USA
VISION-NSCLC,DM,VISION-NSCLC-SITE001-0034,0034,2024-03-03,2024-03-05,2024-03-03,2024-03-04,2024-02-18,2024-03-05,,,SITE001,Dr. Robert Chen,1995,29,YEARS,M,WHITE,NOT HISPANIC OR LATINO,TEP500,Tepotinib 500mg QD,TEP500,Tepotinib 500mg QD,,,USA
VISION-NSCLC,DM,VISION-NSCLC-SITE001-0037,0037,2024-03-24,2024-11-04,2024-03-24,2024-07-14,2024-03-11,2024-11-04,,,SITE001,Dr. Robert Chen,1963,61,YEARS,F,WHITE,NOT HISPANIC OR LATINO,TEP500,Tepotinib 500mg QD,TEP500,Tepotinib 500mg QD,,,USA
VISION-NSCLC,DM,VISION-NSCLC-SITE001-0040,0040,2024-04-02,2024-04-06,2024-04-02,2024-04-03,2024-03-14,2024-04-06,,,SITE001,Dr. Robert Chen,2006,18,YEARS,F,WHITE,NOT HISPANIC OR LATINO,TEP500,Tepotinib 500mg QD,TEP500,Tepotinib 500mg QD,,,USA
VISION-NSCLC,DM,VISION-NSCLC-SITE001-0043,0043,2024-03-26,2024-11-06,2024-03-26,2024-06-21,2024-03-14,2024-11-06,,,SITE001,Dr. Robert Chen,1959,65,YEARS,F,WHITE,NOT HISPANIC OR LATINO,TEP500,Tepotinib 500mg QD,TEP500,Tepotinib 500mg QD,,,USA
VISION-NSCLC,DM,VISION-NSCLC-SITE001-0046,0046,2024-03-29,2024-11-09,2024-03-29,2024-07-23,2024-03-22,2024-11-09,,,SITE001,Dr. Robert Chen,1970,54,YEARS,F,WHITE,NOT HISPANIC OR LATINO,TEP500,Tepotinib 500mg QD,TEP500,Tepotinib 500mg QD,,,USA
VISION-NSCLC,DM,VISION-NSCLC-SITE001-0049,0049,2024-03-06,2024-10-17,2024-03-06,2024-08-20,2024-02-14,2024-10-17,,,SITE001,Dr. Robert Chen,1986,38,YEARS,M,OTHER,NOT HISPANIC OR LATINO,TEP500,Tepotinib 500mg QD,TEP500,Tepotinib 500mg QD,,,USA
VISION-NSCLC,DM,VISION-NSCLC-SITE001-0052,0052,2024-03-02,2024-10-13,2024-03-02,2024-08-16,2024-02-12,2024-10-13,,,SITE001,Dr. Robert Chen,1981,43,YEARS,M,OTHER,NOT HISPANIC OR LATINO,TEP500,Tepotinib 500mg QD,TEP500,Tepotinib 500mg QD,,,USA
VISION-NSCLC,DM,VISION-NSCLC-SITE001-0055,0055,2024-02-26,2024-10-08,2024-02-26,2024-04-24,2024-01-27,2024-10-08,,,SITE001,Dr. Robert Chen,2005,19,YEARS,F,ASIAN,NOT HISPANIC OR LATINO,TEP500,Tepotinib 500mg QD,TEP500,Tepotinib 500mg QD,,,USA
VISION-NSCLC,DM,VISION-NSCLC-SITE001-0058,0058,2024-04-04,2024-11-15,2024-04-04,2024-06-21,2024-03-03,2024-11-15,,,SITE001,Dr. Robert Chen,1998,26,YEARS,F,WHITE,NOT HISPANIC OR LATINO,TEP500,Tepotinib 500mg QD,TEP500,Tepotinib 500mg QD,,,USA
VISION-NSCLC,DM,VISION-NSCLC-SITE001-0061,0061,2024-03-25,2024-11-05,2024-03-25,2024-06-13,2024-03-11,2024-11-05,,,SITE001,Dr. Robert Chen,1964,60,YEARS,F,BLACK OR AFRICAN AMERICAN,NOT HISPANIC OR LATINO,TEP500,Tepotinib 500mg QD,TEP500,Tepotinib 500mg QD,,,USA
VISION-NSCLC,DM,VISION-NSCLC-SITE001-0064,0064,2024-03-18,2024-03-19,2024-03-18,2024-03-19,2024-03-06,2024-03-19,,,SITE001,Dr. Robert Chen,1963,61,YEARS,M,ASIAN,NOT HISPANIC OR LATINO,TEP500,Tepotinib 500mg QD,TEP500,Tepotinib 500mg QD,,,USA
VISION-NSCLC,DM,VISION-NSCLC-SITE001-0067,0067,2024-04-24,2024-12-05,2024-04-24,2024-10-01,2024-03-30,2024-12-05,,,SITE001,Dr. Robert Chen,1990,34,YEARS,M,WHITE,NOT HISPANIC OR LATINO,TEP500,Tepotinib 500mg QD,TEP500,Tepotinib 500mg QD,,,USA
VISION-NSCLC,DM,VISION-NSCLC-SITE001-0070,0070,2024-01-29,2024-09-10,2024-01-29,2024-06-11,2024-01-19,2024-09-10,,,SITE001,Dr. Robert Chen,1978,46,YEARS,F,OTHER,UNKNOWN,TEP500,Tepotinib 500mg QD,TEP500,Tepotinib 500mg QD,,,USA
VISION-NSCLC,DM,VISION-NSCLC-SITE001-0073,0073,2024-01-26,2024-09-07,2024-01-26,2024-07-11,2024-01-15,2024-09-07,,,SITE001,Dr. Robert Chen,1981,43,YEARS,M,WHITE,NOT HISPANIC OR LATINO,TEP500,Tepotinib 500mg QD,TEP500,Tepotinib 500mg QD,,,USA
VISION-NSCLC,DM,VISION-NSCLC-SITE001-0076,0076,2024-05-02,2024-06-16,2024-05-02,2024-05-17,2024-04-09,2024-06-16,,,SITE001,Dr. Robert Chen,2002,22,YEARS,M,ASIAN,NOT HISPANIC OR LATINO,TEP500,Tepotinib 500mg QD,TEP500,Tepotinib 500mg QD,,,USA
VISION-NSCLC,DM,VISION-NSCLC-SITE001-0079,0079,2024-03-19,2024-04-27,2024-03-19,2024-04-16,2024-02-18,2024-04-27,,,SITE001,Dr. Robert Chen,2006,18,YEARS,F,OTHER,NOT HISPANIC OR LATINO,TEP500,Tepotinib 500mg QD,TEP500,Tepotinib 500mg QD,,,USA
VISION-NSCLC,DM,VISION-NSCLC-SITE001-0082,0082,2024-02-25,2024-10-07,2024-02-25,2024-06-12,2024-01-22,2024-10-07,,,SITE001,Dr. Robert Chen,1954,70,YEARS,F,WHITE,NOT HISPANIC OR LATINO,TEP500,Tepotinib 500mg QD,TEP500,Tepotinib 500mg QD,,,USA
VISION-NSCLC,DM,VISION-NSCLC-SITE001-0085,0085,2024-02-28,2024-10-10,2024-02-28,2024-07-02,2024-02-02,2024-10-10,,,SITE001,Dr. Robert Chen,1996,28,YEARS,F,WHITE,NOT HISPANIC OR LATINO,TEP500,Tepotinib 500mg QD,TEP500,Tepotinib 500mg QD,,,USA
VISION-NSCLC,DM,VISION-NSCLC-SITE001-0088,0088,2024-02-28,2024-10-10,2024-02-28,2024-06-30,2024-02-11,2024-10-10,,,SITE001,Dr. Robert Chen,1972,52,YEARS,M,WHITE,NOT HISPANIC OR LATINO,TEP500,Tepotinib 500mg QD,TEP500,Tepotinib 500mg QD,,,USA
VISION-NSCLC,DM,VISION-NSCLC-SITE001-0091,0091,2024-03-18,2024-10-29,2024-03-18,2024-08-16,2024-02-28,2024-10-29,,,SITE001,Dr. Robert Chen,1981,43,YEARS,M,WHITE,HISPANIC OR LATINO,TEP500,Tepotinib 500mg QD,TEP500,Tepotinib 500mg QD,,,USA
VISION-NSCLC,DM,VISION-NSCLC-SITE001-0094,0094,2024-04-07,2024-11-18,2024-04-07,2024-08-30,2024-03-09,2024-11-18,,,SITE001,Dr. Robert Chen,1994,30,YEARS,F,BLACK OR AFRICAN AMERICAN,NOT HISPANIC OR LATINO,TEP500,Tepotinib 500mg QD,TEP500,Tepotinib 500mg QD,,,USA
VISION-NSCLC,DM,VISION-NSCLC-SITE001-0097,0097,2024-02-24,2024-02-27,2024-02-24,2024-02-25,2024-02-12,2024-02-27,,,SITE001,Dr. Robert Chen,1996,28,YEARS,F,OTHER,NOT HISPANIC OR LATINO,TEP500,Tepotinib 500mg QD,TEP500,Tepotinib 500mg QD,,,USA
VISION-NSCLC,DM,VISION-NSCLC-SITE001-0100,0100,2024-05-04,2024-07-06,2024-05-04,2024-06-11,2024-04-13,2024-07-06,,,SITE001,Dr. Robert Chen,1966,58,YEARS,F,WHITE,NOT HISPANIC OR LATINO,TEP500,Tepotinib 500mg QD,TEP500,Tepotinib 500mg QD,,,USA
VISION-NSCLC,DM,VISION-NSCLC-SITE001-0103,0103,2024-04-24,2024-12-05,2024-04-24,2024-06-26,2024-04-07,2024-12-05,,,SITE001,Dr. Robert Chen,1991,33,YEARS,M,WHITE,NOT HISPANIC OR LATINO,TEP500,Tepotinib 500mg QD,TEP500,Tepotinib 500mg QD,,,USA
VISION-NSCLC,DM,VISION-NSCLC-SITE001-0106,0106,2024-04-19,2024-11-30,2024-04-19,2024-07-17,2024-04-02,2024-11-30,,,SITE001,Dr. Robert Chen,2001,23,YEARS,M,BLACK OR AFRICAN AMERICAN,NOT HISPANIC OR LATINO,TEP500,Tepotinib 500mg QD,TEP500,Tepotinib 500mg QD,,,USA
VISION-NSCLC,DM,VISION-NSCLC-SITE001-0109,0109,2024-02-20,2024-10-02,2024-02-20,2024-08-05,2024-01-26,2024-10-02,,,SITE001,Dr. Robert Chen,1994,30,YEARS,F,WHITE,NOT HISPANIC OR LATINO,TEP500,Tepotinib 500mg QD,TEP500,Tepotinib 500mg QD,,,USA
VISION-NSCLC,DM,VISION-NSCLC-SITE001-0112,0112,2024-05-03,2024-12-14,2024-05-03,2024-07-09,2024-04-05,2024-12-14,,,SITE001,Dr. Robert Chen,1974,50,YEARS,M,ASIAN,NOT HISPANIC OR LATINO,TEP500,Tepotinib 500mg QD,TEP500,Tepotinib 500mg QD,,,USA
VISION-NSCLC,DM,VISION-NSCLC-SITE001-0115,0115,2024-03-31,2024-04-06,2024-03-31,2024-04-06,2024-03-14,2024-04-06,,,SITE001,Dr. Robert Chen,1979,45,YEARS,M,WHITE,NOT HISPANIC OR LATINO,TEP500,Tepotinib 500mg QD,TEP500,Tepotinib 500mg QD,,,USA
VISION-NSCLC,DM,VISION-NSCLC-SITE001-0118,0118,2024-02-07,2024-09-19,2024-02-07,2024-05-18,2024-01-27,2024-09-19,,,SITE001,Dr. Robert Chen,1981,43,YEARS,M,WHITE,NOT HISPANIC OR LATINO,TEP500,Tepotinib 500mg QD,TEP500,Tepotinib 500mg QD,,,USA
VISION-NSCLC,DM,VISION-NSCLC-SITE001-0121,0121,2024-03-03,2024-10-14,2024-03-03,2024-07-20,2024-02-10,2024-10-14,,,SITE001,Dr. Robert Chen,1973,51,YEARS,M,WHITE,NOT HISPANIC OR LATINO,TEP500,Tepotinib 500mg QD,TEP500,Tepotinib 500mg QD,,,USA
VISION-NSCLC,DM,VISION-NSCLC-SITE001-0124,0124,2024-03-14,2024-04-02,2024-03-14,2024-03-24,2024-02-20,2024-04-02,2024-04-02,Y,SITE001,Dr. Robert Chen,1989,35,YEARS,M,BLACK OR AFRICAN AMERICAN,HISPANIC OR LATINO,TEP500,Tepotinib 500mg QD,TEP500,Tepotinib 500mg QD,,,USA
VISION-NSCLC,DM,VISION-NSCLC-SITE001-0127,0127,2024-02-19,2024-10-01,2024-02-19,2024-08-04,2024-02-06,2024-10-01,,,SITE001,Dr. Robert Chen,1966,58,YEARS,F,WHITE,UNKNOWN,TEP500,Tepotinib 500mg QD,TEP500,Tepotinib 500mg QD,,,USA
VISION-NSCLC,DM,VISION-NSCLC-SITE001-0130,0130,2024-02-20,2024-03-15,2024-02-20,2024-02-28,2024-02-02,2024-03-15,,,SITE001,Dr. Robert Chen,1964,60,YEARS,M,ASIAN,NOT HISPANIC OR LATINO,TEP500,Tepotinib 500mg QD,TEP500,Tepotinib 500mg QD,,,USA
VISION-NSCLC,DM,VISION-NSCLC-SITE001-0133,0133,2024-03-17,2024-10-28,2024-03-17,2024-05-10,2024-02-25,2024-10-28,,,SITE001,Dr. Robert Chen,1968,56,YEARS,F,OTHER,NOT HISPANIC OR LATINO,TEP500,Tepotinib 500mg QD,TEP500,Tepotinib 500mg QD,,,USA
VISION-NSCLC,DM,VISION-NSCLC-SITE001-0136,0136,2024-05-01,2024-12-12,2024-05-01,2024-08-31,2024-04-04,2024-12-12,,,SITE001,Dr. Robert Chen,2003,21,YEARS,F,WHITE,NOT HISPANIC OR LATINO,TEP500,Tepotinib 500mg QD,TEP500,Tepotinib 500mg QD,,,USA
VISION-NSCLC,DM,VISION-NSCLC-SITE001-0139,0139,2024-02-09,2024-09-21,2024-02-09,2024-07-15,2024-01-21,2024-09-21,,,SITE001,Dr. Robert Chen,1990,34,YEARS,F,WHITE,NOT HISPANIC OR LATINO,TEP500,Tepotinib 500mg QD,TEP500,Tepotinib 500mg QD,,,USA
VISION-NSCLC,DM,VISION-NSCLC-SITE001-0142,0142,2024-03-06,2024-04-21,2024-03-06,2024-04-21,2024-02-09,2024-04-21,,,SITE001,Dr. Robert Chen,1993,31,YEARS,M,WHITE,NOT HISPANIC OR LATINO,TEP500,Tepotinib 500mg QD,TEP500,Tepotinib 500mg QD,,,USA
VISION-NSCLC,DM,VISION-NSCLC-SITE001-0145,0145,2024-03-09,2024-04-03,2024-03-09,2024-03-21,2024-03-01,2024-04-03,,,SITE001,Dr. Robert Chen,1957,67,YEARS,M,WHITE,NOT HISPANIC OR LATINO,TEP500,Tepotinib 500mg QD,TEP500,Tepotinib 500mg QD,,,USA
VISION-NSCLC,DM,VISION-NSCLC-SITE001-0148,0148,2024-03-24,2024-11-04,2024-03-24,2024-06-06,2024-03-13,2024-11-04,,,SITE001,Dr. Robert Chen,1967,57,YEARS,M,WHITE,NOT HISPANIC OR LATINO,TEP500,Tepotinib 500mg QD,TEP500,Tepotinib 500mg QD,,,USA
VISION-NSCLC,DM,VISION-NSCLC-SITE002-0002,0002,2024-05-04,2024-09-15,2024-05-04,2024-08-02,2024-04-12,2024-09-15,,,SITE002,Dr. Maria Santos,1951,73,YEARS,F,ASIAN,UNKNOWN,TEP500,Tepotinib 500mg QD,TEP500,Tepotinib 500mg QD,,,USA
VISION-NSCLC,DM,VISION-NSCLC-SITE002-0005,0005,2024-04-19,2024-11-30,2024-04-19,2024-06-30,2024-04-03,2024-11-30,,,SITE002,Dr. Maria Santos,2006,18,YEARS,F,WHITE,NOT HISPANIC OR LATINO,TEP500,Tepotinib 500mg QD,TEP500,Tepotinib 500mg QD,,,USA
VISION-NSCLC,DM,VISION-NSCLC-SITE002-0008,0008,2024-02-23,2024-10-05,2024-02-23,2024-08-08,2024-01-22,2024-10-05,,,SITE002,Dr. Maria Santos,1949,75,YEARS,M,WHITE,NOT HISPANIC OR LATINO,TEP500,Tepotinib 500mg QD,TEP500,Tepotinib 500mg QD,,,USA
VISION-NSCLC,DM,VISION-NSCLC-SITE002-0011,0011,2024-03-27,2024-11-07,2024-03-27,2024-06-25,2024-02-24,2024-11-07,,,SITE002,Dr. Maria Santos,1973,51,YEARS,F,ASIAN,NOT HISPANIC OR LATINO,TEP500,Tepotinib 500mg QD,TEP500,Tepotinib 500mg QD,,,USA
VISION-NSCLC,DM,VISION-NSCLC-SITE002-0014,0014,2024-04-02,2024-11-13,2024-04-02,2024-06-28,2024-03-18,2024-11-13,,,SITE002,Dr. Maria Santos,1975,49,YEARS,F,WHITE,NOT HISPANIC OR LATINO,TEP500,Tepotinib 500mg QD,TEP500,Tepotinib 500mg QD,,,USA
VISION-NSCLC,DM,VISION-NSCLC-SITE002-0017,0017,2024-03-15,2024-03-16,2024-03-15,2024-03-16,2024-02-11,2024-03-16,,,SITE002,Dr. Maria Santos,1976,48,YEARS,F,WHITE,NOT HISPANIC OR LATINO,TEP500,Tepotinib 500mg QD,TEP500,Tepotinib 500mg QD,,,USA
VISION-NSCLC,DM,VISION-NSCLC-SITE002-0020,0020,2024-03-18,2024-10-29,2024-03-18,2024-07-31,2024-02-20,2024-10-29,,,SITE002,Dr. Maria Santos,1996,28,YEARS,M,WHITE,NOT HISPANIC OR LATINO,TEP500,Tepotinib 500mg QD,TEP500,Tepotinib 500mg QD,,,USA
VISION-NSCLC,DM,VISION-NSCLC-SITE002-0023,0023,2024-03-04,2024-10-15,2024-03-04,2024-06-25,2024-02-03,2024-10-15,,,SITE002,Dr. Maria Santos,1988,36,YEARS,F,WHITE,NOT HISPANIC OR LATINO,TEP500,Tepotinib 500mg QD,TEP500,Tepotinib 500mg QD,,,USA
VISION-NSCLC,DM,VISION-NSCLC-SITE002-0026,0026,2024-04-20,2024-04-23,2024-04-20,2024-04-21,2024-04-09,2024-04-23,,,SITE002,Dr. Maria Santos,1980,44,YEARS,M,WHITE,NOT HISPANIC OR LATINO,TEP500,Tepotinib 500mg QD,TEP500,Tepotinib 500mg QD,,,USA
VISION-NSCLC,DM,VISION-NSCLC-SITE002-0029,0029,2024-03-12,2024-06-15,2024-03-12,2024-05-02,2024-02-18,2024-06-15,,,SITE002,Dr. Maria Santos,1967,57,YEARS,M,WHITE,NOT HISPANIC OR LATINO,TEP500,Tepotinib 500mg QD,TEP500,Tepotinib 500mg QD,,,USA
VISION-NSCLC,DM,VISION-NSCLC-SITE002-0032,0032,2024-03-12,2024-10-23,2024-03-12,2024-07-09,2024-03-04,2024-10-23,,,SITE002,Dr. Maria Santos,2006,18,YEARS,F,WHITE,NOT HISPANIC OR LATINO,TEP500,Tepotinib 500mg QD,TEP500,Tepotinib 500mg QD,,,USA
VISION-NSCLC,DM,VISION-NSCLC-SITE002-0035,0035,2024-04-26,2024-12-07,2024-04-26,2024-10-05,2024-04-12,2024-12-07,,,SITE002,Dr. Maria Santos,1982,42,YEARS,F,WHITE,NOT HISPANIC OR LATINO,TEP500,Tepotinib 500mg QD,TEP500,Tepotinib 500mg QD,,,USA
VISION-NSCLC,DM,VISION-NSCLC-SITE002-0038,0038,2024-03-22,2024-11-02,2024-03-22,2024-06-06,2024-02-20,2024-11-02,,,SITE002,Dr. Maria Santos,1985,39,YEARS,M,WHITE,NOT HISPANIC OR LATINO,TEP500,Tepotinib 500mg QD,TEP500,Tepotinib 500mg QD,,,USA
VISION-NSCLC,DM,VISION-NSCLC-SITE002-0041,0041,2024-02-10,2024-07-24,2024-02-10,2024-04-29,2024-01-27,2024-07-24,,,SITE002,Dr. Maria Santos,1972,52,YEARS,M,WHITE,NOT HISPANIC OR LATINO,TEP500,Tepotinib 500mg QD,TEP500,Tepotinib 500mg QD,,,USA
VISION-NSCLC,DM,VISION-NSCLC-SITE002-0044,0044,2024-03-23,2024-11-03,2024-03-23,2024-09-04,2024-03-05,2024-11-03,,,SITE002,Dr. Maria Santos,1989,35,YEARS,M,WHITE,NOT HISPANIC OR LATINO,TEP500,Tepotinib 500mg QD,TEP500,Tepotinib 500mg QD,,,USA
VISION-NSCLC,DM,VISION-NSCLC-SITE002-0047,0047,2024-04-21,2024-12-02,2024-04-21,2024-07-29,2024-03-24,2024-12-02,,,SITE002,Dr. Maria Santos,1966,58,YEARS,F,WHITE,NOT HISPANIC OR LATINO,TEP500,Tepotinib 500mg QD,TEP500,Tepotinib 500mg QD,,,USA
VISION-NSCLC,DM,VISION-NSCLC-SITE002-0050,0050,2024-03-01,2024-03-02,2024-03-01,2024-03-02,2024-02-07,2024-03-02,,,SITE002,Dr. Maria Santos,1998,26,YEARS,F,WHITE,NOT HISPANIC OR LATINO,TEP500,Tepotinib 500mg QD,TEP500,Tepotinib 500mg QD,,,USA
VISION-NSCLC,DM,VISION-NSCLC-SITE002-0053,0053,,,,,2024-04-03,,,,SITE002,Dr. Maria Santos,1980,44,YEARS,M,WHITE,NOT HISPANIC OR LATINO,,,,,SCREEN FAILURE,,USA
VISION-NSCLC,DM,VISION-NSCLC-SITE002-0056,0056,2024-03-06,2024-10-17,2024-03-06,2024-07-29,2024-02-23,2024-10-17,,,SITE002,Dr. Maria Santos,1985,39,YEARS,F,WHITE,NOT HISPANIC OR LATINO,TEP500,Tepotinib 500mg QD,TEP500,Tepotinib 500mg QD,,,USA
VISION-NSCLC,DM,VISION-NSCLC-SITE002-0059,0059,2024-04-13,2024-11-24,2024-04-13,2024-08-21,2024-03-14,2024-11-24,,,SITE002,Dr. Maria Santos,1967,57,YEARS,M,BLACK OR AFRICAN AMERICAN,NOT HISPANIC OR LATINO,TEP500,Tepotinib 500mg QD,TEP500,Tepotinib 500mg QD,,,USA
VISION-NSCLC,DM,VISION-NSCLC-SITE002-0062,0062,2024-04-05,2024-09-02,2024-04-05,2024-09-02,2024-03-11,2024-09-02,2024-09-02,Y,SITE002,Dr. Maria Santos,1997,27,YEARS,M,WHITE,NOT HISPANIC OR LATINO,TEP500,Tepotinib 500mg QD,TEP500,Tepotinib 500mg QD,,,USA
VISION-NSCLC,DM,VISION-NSCLC-SITE002-0065,0065,,,,,2024-02-05,,,,SITE002,Dr. Maria Santos,1981,43,YEARS,M,WHITE,NOT HISPANIC OR LATINO,,,,,SCREEN FAILURE,,USA
VISION-NSCLC,DM,VISION-NSCLC-SITE002-0068,0068,2024-02-09,2024-09-21,2024-02-09,2024-05-02,2024-01-15,2024-09-21,,,SITE002,Dr. Maria Santos,2005,19,YEARS,F,ASIAN,HISPANIC OR LATINO,TEP500,Tepotinib 500mg QD,TEP500,Tepotinib 500mg QD,,,USA
VISION-NSCLC,DM,VISION-NSCLC-SITE002-0071,0071,2024-04-21,2024-12-02,2024-04-21,2024-08-08,2024-03-24,2024-12-02,,,SITE002,Dr. Maria Santos,1967,57,YEARS,F,WHITE,NOT HISPANIC OR LATINO,TEP500,Tepotinib 500mg QD,TEP500,Tepotinib 500mg QD,,,USA
VISION-NSCLC,DM,VISION-NSCLC-SITE002-0074,0074,2024-04-01,2024-11-12,2024-04-01,2024-07-13,2024-03-18,2024-11-12,,,SITE002,Dr. Maria Santos,1968,56,YEARS,M,WHITE,NOT HISPANIC OR LATINO,TEP500,Tepotinib 500mg QD,TEP500,Tepotinib 500mg QD,,,USA
VISION-NSCLC,DM,VISION-NSCLC-SITE002-0077,0077,2024-04-30,2024-12-11,2024-04-30,2024-09-03,2024-04-01,2024-12-11,,,SITE002,Dr. Maria Santos,1978,46,YEARS,F,ASIAN,HISPANIC OR LATINO,TEP500,Tepotinib 500mg QD,TEP500,Tepotinib 500mg QD,,,USA
VISION-NSCLC,DM,VISION-NSCLC-SITE002-0080,0080,2024-02-21,2024-10-03,2024-02-21,2024-05-21,2024-01-29,2024-10-03,,,SITE002,Dr. Maria Santos,2006,18,YEARS,F,BLACK OR AFRICAN AMERICAN,NOT HISPANIC OR LATINO,TEP500,Tepotinib 500mg QD,TEP500,Tepotinib 500mg QD,,,USA
VISION-NSCLC,DM,VISION-NSCLC-SITE002-0083,0083,2024-01-28,2024-09-09,2024-01-28,2024-03-21,2024-01-21,2024-09-09,,,SITE002,Dr. Maria Santos,1983,41,YEARS,M,ASIAN,HISPANIC OR LATINO,TEP500,Tepotinib 500mg QD,TEP500,Tepotinib 500mg QD,,,USA
VISION-NSCLC,DM,VISION-NSCLC-SITE002-0086,0086,2024-02-23,2024-10-05,2024-02-23,2024-08-08,2024-01-24,2024-10-05,,,SITE002,Dr. Maria Santos,1990,34,YEARS,M,WHITE,NOT HISPANIC OR LATINO,TEP500,Tepotinib 500mg QD,TEP500,Tepotinib 500mg QD,,,USA
VISION-NSCLC,DM,VISION-NSCLC-SITE002-0089,0089,2024-03-17,2024-10-28,2024-03-17,2024-06-08,2024-03-02,2024-10-28,,,SITE002,Dr. Maria Santos,1987,37,YEARS,F,BLACK OR AFRICAN AMERICAN,NOT HISPANIC OR LATINO,TEP500,Tepotinib 500mg QD,TEP500,Tepotinib 500mg QD,,,USA
VISION-NSCLC,DM,VISION-NSCLC-SITE002-0092,0092,2024-04-05,2024-04-08,2024-04-05,2024-04-07,2024-03-04,2024-04-08,,,SITE002,Dr. Maria Santos,1998,26,YEARS,M,BLACK OR AFRICAN AMERICAN,NOT HISPANIC OR LATINO,TEP500,Tepotinib 500mg QD,TEP500,Tepotinib 500mg QD,,,USA
VISION-NSCLC,DM,VISION-NSCLC-SITE002-0095,0095,2024-04-02,2024-11-13,2024-04-02,2024-08-17,2024-03-17,2024-11-13,,,SITE002,Dr. Maria Santos,1990,34,YEARS,M,OTHER,UNKNOWN,TEP500,Tepotinib 500mg QD,TEP500,Tepotinib 500mg QD,,,USA
VISION-NSCLC,DM,VISION-NSCLC-SITE002-0098,0098,,,,,2024-03-31,,,,SITE002,Dr. Maria Santos,1968,56,YEARS,F,WHITE,NOT HISPANIC OR LATINO,,,,,SCREEN FAILURE,,USA
VISION-NSCLC,DM,VISION-NSCLC-SITE002-0101,0101,2024-03-05,2024-10-16,2024-03-05,2024-07-08,2024-02-22,2024-10-16,,,SITE002,Dr. Maria Santos,1979,45,YEARS,M,WHITE,NOT HISPANIC OR LATINO,TEP500,Tepotinib 500mg QD,TEP500,Tepotinib 500mg QD,,,USA
VISION-NSCLC,DM,VISION-NSCLC-SITE002-0104,0104,2024-01-31,2024-09-12,2024-01-31,2024-06-14,2024-01-15,2024-09-12,,,SITE002,Dr. Maria Santos,1956,68,YEARS,F,WHITE,HISPANIC OR LATINO,TEP500,Tepotinib 500mg QD,TEP500,Tepotinib 500mg QD,,,USA
VISION-NSCLC,DM,VISION-NSCLC-SITE002-0107,0107,2024-03-17,2024-03-25,2024-03-17,2024-03-24,2024-02-17,2024-03-25,,,SITE002,Dr. Maria Santos,1993,31,YEARS,M,WHITE,NOT HISPANIC OR LATINO,TEP500,Tepotinib 500mg QD,TEP500,Tepotinib 500mg QD,,,USA
VISION-NSCLC,DM,VISION-NSCLC-SITE002-0110,0110,2024-04-14,2024-11-25,2024-04-14,2024-08-06,2024-03-30,2024-11-25,,,SITE002,Dr. Maria Santos,1980,44,YEARS,F,WHITE,NOT HISPANIC OR LATINO,TEP500,Tepotinib 500mg QD,TEP500,Tepotinib 500mg QD,,,USA
VISION-NSCLC,DM,VISION-NSCLC-SITE002-0113,0113,2024-02-21,2024-03-02,2024-02-21,2024-02-28,2024-01-26,2024-03-02,,,SITE002,Dr. Maria Santos,1979,45,YEARS,F,ASIAN,NOT HISPANIC OR LATINO,TEP500,Tepotinib 500mg QD,TEP500,Tepotinib 500mg QD,,,USA
VISION-NSCLC,DM,VISION-NSCLC-SITE002-0116,0116,2024-02-19,2024-10-01,2024-02-19,2024-08-04,2024-01-18,2024-10-01,,,SITE002,Dr. Maria Santos,1964,60,YEARS,F,WHITE,NOT HISPANIC OR LATINO,TEP500,Tepotinib 500mg QD,TEP500,Tepotinib 500mg QD,,,USA
VISION-NSCLC,DM,VISION-NSCLC-SITE002-0119,0119,2024-03-18,2024-10-29,2024-03-18,2024-08-24,2024-03-03,2024-10-29,,,SITE002,Dr. Maria Santos,1986,38,YEARS,F,WHITE,NOT HISPANIC OR LATINO,TEP500,Tepotinib 500mg QD,TEP500,Tepotinib 500mg QD,,,USA
VISION-NSCLC,DM,VISION-NSCLC-SITE002-0122,0122,2024-03-13,2024-10-24,2024-03-13,2024-07-29,2024-02-24,2024-10-24,,,SITE002,Dr. Maria Santos,1950,74,YEARS,F,OTHER,NOT HISPANIC OR LATINO,TEP500,Tepotinib 500mg QD,TEP500,Tepotinib 500mg QD,,,USA
VISION-NSCLC,DM,VISION-NSCLC-SITE002-0125,0125,2024-03-30,2024-07-19,2024-03-30,2024-07-09,2024-03-09,2024-07-19,,,SITE002,Dr. Maria Santos,1979,45,YEARS,M,WHITE,NOT HISPANIC OR LATINO,TEP500,Tepotinib 500mg QD,TEP500,Tepotinib 500mg QD,,,USA
VISION-NSCLC,DM,VISION-NSCLC-SITE002-0128,0128,2024-03-21,2024-11-01,2024-03-21,2024-08-08,2024-03-07,2024-11-01,,,SITE002,Dr. Maria Santos,1973,51,YEARS,F,WHITE,HISPANIC OR LATINO,TEP500,Tepotinib 500mg QD,TEP500,Tepotinib 500mg QD,,,USA
VISION-NSCLC,DM,VISION-NSCLC-SITE002-0131,0131,2024-04-23,2024-12-04,2024-04-23,2024-07-18,2024-03-30,2024-12-04,,,SITE002,Dr. Maria Santos,1962,62,YEARS,F,WHITE,NOT HISPANIC OR LATINO,TEP500,Tepotinib 500mg QD,TEP500,Tepotinib 500mg QD,,,USA
VISION-NSCLC,DM,VISION-NSCLC-SITE002-0134,0134,2024-03-09,2024-10-20,2024-03-09,2024-07-20,2024-02-21,2024-10-20,,,SITE002,Dr. Maria Santos,1956,68,YEARS,M,OTHER,NOT HISPANIC OR LATINO,TEP500,Tepotinib 500mg QD,TEP500,Tepotinib 500mg QD,,,USA
VISION-NSCLC,DM,VISION-NSCLC-SITE002-0137,0137,2024-02-18,2024-09-30,2024-02-18,2024-06-11,2024-02-02,2024-09-30,,,SITE002,Dr. Maria Santos,1999,25,YEARS,M,WHITE,NOT HISPANIC OR LATINO,TEP500,Tepotinib 500mg QD,TEP500,Tepotinib 500mg QD,,,USA
VISION-NSCLC,DM,VISION-NSCLC-SITE002-0140,0140,2024-02-21,2024-10-03,2024-02-21,2024-07-06,2024-02-12,2024-10-03,,,SITE002,Dr. Maria Santos,1996,28,YEARS,F,BLACK OR AFRICAN AMERICAN,NOT HISPANIC OR LATINO,TEP500,Tepotinib 500mg QD,TEP500,Tepotinib 500mg QD,,,USA
VISION-NSCLC,DM,VISION-NSCLC-SITE002-0143,0143,2024-03-15,2024-10-26,2024-03-15,2024-08-29,2024-02-12,2024-10-26,,,SITE002,Dr. Maria Santos,1991,33,YEARS,F,WHITE,NOT HISPANIC OR LATINO,TEP500,Tepotinib 500mg QD,TEP500,Tepotinib 500mg QD,,,USA
VISION-NSCLC,DM,VISION-NSCLC-SITE002-0146,0146,2024-03-27,2024-11-07,2024-03-27,2024-07-17,2024-03-05,2024-11-07,,,SITE002,Dr. Maria Santos,1976,48,YEARS,F,WHITE,NOT HISPANIC OR LATINO,TEP500,Tepotinib 500mg QD,TEP500,Tepotinib 500mg QD,,,USA
VISION-NSCLC,DM,VISION-NSCLC-SITE002-0149,0149,2024-03-31,2024-11-11,2024-03-31,2024-06-29,2024-03-14,2024-11-11,,,SITE002,Dr. Maria Santos,1974,50,YEARS,F,WHITE,NOT HISPANIC OR LATINO,TEP500,Tepotinib 500mg QD,TEP500,Tepotinib 500mg QD,,,USA
VISION-NSCLC,DM,VISION-NSCLC-SITE003-0003,0003,2024-03-18,2024-07-27,2024-03-18,2024-07-24,2024-02-27,2024-07-27,,,SITE003,Dr. James Wilson,1994,30,YEARS,F,OTHER,NOT HISPANIC OR LATINO,TEP500,Tepotinib 500mg QD,TEP500,Tepotinib 500mg QD,,,USA
VISION-NSCLC,DM,VISION-NSCLC-SITE003-0006,0006,2024-03-04,2024-10-15,2024-03-04,2024-06-25,2024-02-13,2024-10-15,,,SITE003,Dr. James Wilson,1970,54,YEARS,F,WHITE,NOT HISPANIC OR LATINO,TEP500,Tepotinib 500mg QD,TEP500,Tepotinib 500mg QD,,,USA
VISION-NSCLC,DM,VISION-NSCLC-SITE003-0009,0009,2024-04-09,2024-11-20,2024-04-09,2024-07-14,2024-03-28,2024-11-20,,,SITE003,Dr. James Wilson,1980,44,YEARS,F,ASIAN,NOT HISPANIC OR LATINO,TEP500,Tepotinib 500mg QD,TEP500,Tepotinib 500mg QD,,,USA
VISION-NSCLC,DM,VISION-NSCLC-SITE003-0012,0012,2024-04-04,2024-11-15,2024-04-04,2024-07-25,2024-03-23,2024-11-15,,,SITE003,Dr. James Wilson,1997,27,YEARS,F,WHITE,NOT HISPANIC OR LATINO,TEP500,Tepotinib 500mg QD,TEP500,Tepotinib 500mg QD,,,USA
VISION-NSCLC,DM,VISION-NSCLC-SITE003-0015,0015,,,,,2024-02-26,,,,SITE003,Dr. James Wilson,1954,70,YEARS,F,WHITE,NOT HISPANIC OR LATINO,,,,,SCREEN FAILURE,,USA
VISION-NSCLC,DM,VISION-NSCLC-SITE003-0018,0018,,,,,2024-04-01,,,,SITE003,Dr. James Wilson,1972,52,YEARS,F,BLACK OR AFRICAN AMERICAN,HISPANIC OR LATINO,,,,,SCREEN FAILURE,,USA
VISION-NSCLC,DM,VISION-NSCLC-SITE003-0021,0021,2024-02-21,2024-10-03,2024-02-21,2024-06-28,2024-01-30,2024-10-03,,,SITE003,Dr. James Wilson,1972,52,YEARS,F,BLACK OR AFRICAN AMERICAN,NOT HISPANIC OR LATINO,TEP500,Tepotinib 500mg QD,TEP500,Tepotinib 500mg QD,,,USA
VISION-NSCLC,DM,VISION-NSCLC-SITE003-0024,0024,2024-02-19,2024-10-01,2024-02-19,2024-07-15,2024-02-12,2024-10-01,,,SITE003,Dr. James Wilson,1975,49,YEARS,M,WHITE,NOT HISPANIC OR LATINO,TEP500,Tepotinib 500mg QD,TEP500,Tepotinib 500mg QD,,,USA
VISION-NSCLC,DM,VISION-NSCLC-SITE003-0027,0027,,,,,2024-03-24,,,,SITE003,Dr. James Wilson,1962,62,YEARS,F,WHITE,UNKNOWN,,,,,SCREEN FAILURE,,USA
VISION-NSCLC,DM,VISION-NSCLC-SITE003-0030,0030,2024-04-08,2024-11-19,2024-04-08,2024-07-20,2024-03-11,2024-11-19,,,SITE003,Dr. James Wilson,1976,48,YEARS,M,WHITE,NOT HISPANIC OR LATINO,TEP500,Tepotinib 500mg QD,TEP500,Tepotinib 500mg QD,,,USA
VISION-NSCLC,DM,VISION-NSCLC-SITE003-0033,0033,2024-04-12,2024-05-07,2024-04-12,2024-05-03,2024-03-29,2024-05-07,,,SITE003,Dr. James Wilson,1990,34,YEARS,F,WHITE,NOT HISPANIC OR LATINO,TEP500,Tepotinib 500mg QD,TEP500,Tepotinib 500mg QD,,,USA
VISION-NSCLC,DM,VISION-NSCLC-SITE003-0036,0036,2024-02-22,2024-10-04,2024-02-22,2024-06-01,2024-02-09,2024-10-04,,,SITE003,Dr. James Wilson,1985,39,YEARS,M,WHITE,NOT HISPANIC OR LATINO,TEP500,Tepotinib 500mg QD,TEP500,Tepotinib 500mg QD,,,USA
VISION-NSCLC,DM,VISION-NSCLC-SITE003-0039,0039,2024-02-29,2024-10-11,2024-02-29,2024-07-11,2024-02-08,2024-10-11,,,SITE003,Dr. James Wilson,1988,36,YEARS,F,WHITE,NOT HISPANIC OR LATINO,TEP500,Tepotinib 500mg QD,TEP500,Tepotinib 500mg QD,,,USA
VISION-NSCLC,DM,VISION-NSCLC-SITE003-0042,0042,2024-03-25,2024-11-05,2024-03-25,2024-07-07,2024-02-21,2024-11-05,,,SITE003,Dr. James Wilson,1988,36,YEARS,F,WHITE,NOT HISPANIC OR LATINO,TEP500,Tepotinib 500mg QD,TEP500,Tepotinib 500mg QD,,,USA
VISION-NSCLC,DM,VISION-NSCLC-SITE003-0045,0045,,,,,2024-03-16,,,,SITE003,Dr. James Wilson,1972,52,YEARS,M,WHITE,NOT HISPANIC OR LATINO,,,,,SCREEN FAILURE,,USA
VISION-NSCLC,DM,VISION-NSCLC-SITE003-0048,0048,2024-04-17,2024-11-28,2024-04-17,2024-07-22,2024-03-16,2024-11-28,,,SITE003,Dr. James Wilson,1953,71,YEARS,F,WHITE,HISPANIC OR LATINO,TEP500,Tepotinib 500mg QD,TEP500,Tepotinib 500mg QD,,,USA
VISION-NSCLC,DM,VISION-NSCLC-SITE003-0051,0051,2024-04-04,2024-11-15,2024-04-04,2024-08-30,2024-03-23,2024-11-15,,,SITE003,Dr. James Wilson,1990,34,YEARS,F,WHITE,NOT HISPANIC OR LATINO,TEP500,Tepotinib 500mg QD,TEP500,Tepotinib 500mg QD,,,USA
VISION-NSCLC,DM,VISION-NSCLC-SITE003-0054,0054,2024-01-26,2024-09-07,2024-01-26,2024-06-11,2024-01-18,2024-09-07,,,SITE003,Dr. James Wilson,1961,63,YEARS,F,BLACK OR AFRICAN AMERICAN,NOT HISPANIC OR LATINO,TEP500,Tepotinib 500mg QD,TEP500,Tepotinib 500mg QD,,,USA
VISION-NSCLC,DM,VISION-NSCLC-SITE003-0057,0057,2024-03-31,2024-11-11,2024-03-31,2024-08-15,2024-03-20,2024-11-11,,,SITE003,Dr. James Wilson,1984,40,YEARS,M,BLACK OR AFRICAN AMERICAN,NOT HISPANIC OR LATINO,TEP500,Tepotinib 500mg QD,TEP500,Tepotinib 500mg QD,,,USA
VISION-NSCLC,DM,VISION-NSCLC-SITE003-0060,0060,2024-03-25,2024-11-05,2024-03-25,2024-06-26,2024-03-01,2024-11-05,,,SITE003,Dr. James Wilson,1978,46,YEARS,M,WHITE,NOT HISPANIC OR LATINO,TEP500,Tepotinib 500mg QD,TEP500,Tepotinib 500mg QD,,,USA
VISION-NSCLC,DM,VISION-NSCLC-SITE003-0063,0063,2024-02-28,2024-10-10,2024-02-28,2024-06-09,2024-02-01,2024-10-10,,,SITE003,Dr. James Wilson,1984,40,YEARS,M,WHITE,NOT HISPANIC OR LATINO,TEP500,Tepotinib 500mg QD,TEP500,Tepotinib 500mg QD,,,USA
VISION-NSCLC,DM,VISION-NSCLC-SITE003-0066,0066,2024-02-21,2024-10-03,2024-02-21,2024-07-19,2024-02-01,2024-10-03,,,SITE003,Dr. James Wilson,1974,50,YEARS,M,WHITE,NOT HISPANIC OR LATINO,TEP500,Tepotinib 500mg QD,TEP500,Tepotinib 500mg QD,,,USA
VISION-NSCLC,DM,VISION-NSCLC-SITE003-0069,0069,2024-03-30,2024-03-31,2024-03-30,2024-03-31,2024-03-08,2024-03-31,,,SITE003,Dr. James Wilson,1983,41,YEARS,M,WHITE,NOT HISPANIC OR LATINO,TEP500,Tepotinib 500mg QD,TEP500,Tepotinib 500mg QD,,,USA
VISION-NSCLC,DM,VISION-NSCLC-SITE003-0072,0072,2024-04-07,2024-11-18,2024-04-07,2024-07-28,2024-03-19,2024-11-18,,,SITE003,Dr. James Wilson,1995,29,YEARS,F,WHITE,NOT HISPANIC OR LATINO,TEP500,Tepotinib 500mg QD,TEP500,Tepotinib 500mg QD,,,USA
VISION-NSCLC,DM,VISION-NSCLC-SITE003-0075,0075,2024-04-09,2024-11-20,2024-04-09,2024-09-23,2024-03-12,2024-11-20,,,SITE003,Dr. James Wilson,1984,40,YEARS,M,WHITE,NOT HISPANIC OR LATINO,TEP500,Tepotinib 500mg QD,TEP500,Tepotinib 500mg QD,,,USA
VISION-NSCLC,DM,VISION-NSCLC-SITE003-0078,0078,2024-03-29,2024-07-31,2024-03-29,2024-06-01,2024-03-17,2024-07-31,,,SITE003,Dr. James Wilson,1966,58,YEARS,M,WHITE,UNKNOWN,TEP500,Tepotinib 500mg QD,TEP500,Tepotinib 500mg QD,,,USA
VISION-NSCLC,DM,VISION-NSCLC-SITE003-0081,0081,2024-03-31,2024-11-11,2024-03-31,2024-07-08,2024-03-23,2024-11-11,,,SITE003,Dr. James Wilson,1964,60,YEARS,M,ASIAN,NOT HISPANIC OR LATINO,TEP500,Tepotinib 500mg QD,TEP500,Tepotinib 500mg QD,,,USA
VISION-NSCLC,DM,VISION-NSCLC-SITE003-0084,0084,2024-03-20,2024-10-31,2024-03-20,2024-06-16,2024-03-03,2024-10-31,,,SITE003,Dr. James Wilson,1976,48,YEARS,M,WHITE,NOT HISPANIC OR LATINO,TEP500,Tepotinib 500mg QD,TEP500,Tepotinib 500mg QD,,,USA
VISION-NSCLC,DM,VISION-NSCLC-SITE003-0087,0087,2024-02-04,2024-02-20,2024-02-04,2024-02-12,2024-01-22,2024-02-20,,,SITE003,Dr. James Wilson,2006,18,YEARS,M,WHITE,NOT HISPANIC OR LATINO,TEP500,Tepotinib 500mg QD,TEP500,Tepotinib 500mg QD,,,USA
VISION-NSCLC,DM,VISION-NSCLC-SITE003-0090,0090,2024-03-05,2024-10-16,2024-03-05,2024-07-22,2024-01-31,2024-10-16,,,SITE003,Dr. James Wilson,2006,18,YEARS,M,WHITE,NOT HISPANIC OR LATINO,TEP500,Tepotinib 500mg QD,TEP500,Tepotinib 500mg QD,,,USA
VISION-NSCLC,DM,VISION-NSCLC-SITE003-0093,0093,2024-04-21,2024-12-02,2024-04-21,2024-09-04,2024-03-17,2024-12-02,,,SITE003,Dr. James Wilson,1981,43,YEARS,M,WHITE,HISPANIC OR LATINO,TEP500,Tepotinib 500mg QD,TEP500,Tepotinib 500mg QD,,,USA
VISION-NSCLC,DM,VISION-NSCLC-SITE003-0096,0096,2024-04-19,2024-11-30,2024-04-19,2024-08-10,2024-03-29,2024-11-30,,,SITE003,Dr. James Wilson,1977,47,YEARS,M,OTHER,NOT HISPANIC OR LATINO,TEP500,Tepotinib 500mg QD,TEP500,Tepotinib 500mg QD,,,USA
VISION-NSCLC,DM,VISION-NSCLC-SITE003-0099,0099,,,,,2024-03-20,,,,SITE003,Dr. James Wilson,1956,68,YEARS,F,WHITE,NOT HISPANIC OR LATINO,,,,,SCREEN FAILURE,,USA
VISION-NSCLC,DM,VISION-NSCLC-SITE003-0102,0102,2024-04-30,2024-08-18,2024-04-30,2024-07-15,2024-03-30,2024-08-18,,,SITE003,Dr. James Wilson,1970,54,YEARS,F,WHITE,NOT HISPANIC OR LATINO,TEP500,Tepotinib 500mg QD,TEP500,Tepotinib 500mg QD,,,USA
VISION-NSCLC,DM,VISION-NSCLC-SITE003-0105,0105,2024-04-20,2024-12-01,2024-04-20,2024-09-11,2024-03-19,2024-12-01,,,SITE003,Dr. James Wilson,2002,22,YEARS,F,ASIAN,NOT HISPANIC OR LATINO,TEP500,Tepotinib 500mg QD,TEP500,Tepotinib 500mg QD,,,USA
VISION-NSCLC,DM,VISION-NSCLC-SITE003-0108,0108,2024-02-15,2024-02-22,2024-02-15,2024-02-20,2024-01-27,2024-02-22,,,SITE003,Dr. James Wilson,1982,42,YEARS,M,WHITE,UNKNOWN,TEP500,Tepotinib 500mg QD,TEP500,Tepotinib 500mg QD,,,USA
VISION-NSCLC,DM,VISION-NSCLC-SITE003-0111,0111,2024-02-16,2024-09-28,2024-02-16,2024-07-17,2024-02-01,2024-09-28,,,SITE003,Dr. James Wilson,1972,52,YEARS,F,WHITE,NOT HISPANIC OR LATINO,TEP500,Tepotinib 500mg QD,TEP500,Tepotinib 500mg QD,,,USA
VISION-NSCLC,DM,VISION-NSCLC-SITE003-0114,0114,2024-03-13,2024-10-24,2024-03-13,2024-07-18,2024-02-16,2024-10-24,,,SITE003,Dr. James Wilson,1994,30,YEARS,M,WHITE,NOT HISPANIC OR LATINO,TEP500,Tepotinib 500mg QD,TEP500,Tepotinib 500mg QD,,,USA
VISION-NSCLC,DM,VISION-NSCLC-SITE003-0117,0117,2024-03-02,2024-10-13,2024-03-02,2024-06-20,2024-02-08,2024-10-13,,,SITE003,Dr. James Wilson,1968,56,YEARS,M,WHITE,NOT HISPANIC OR LATINO,TEP500,Tepotinib 500mg QD,TEP500,Tepotinib 500mg QD,,,USA
VISION-NSCLC,DM,VISION-NSCLC-SITE003-0120,0120,2024-04-12,2024-11-23,2024-04-12,2024-07-14,2024-03-12,2024-11-23,,,SITE003,Dr. James Wilson,1960,64,YEARS,F,WHITE,NOT HISPANIC OR LATINO,TEP500,Tepotinib 500mg QD,TEP500,Tepotinib 500mg QD,,,USA
VISION-NSCLC,DM,VISION-NSCLC-SITE003-0123,0123,2024-03-20,2024-04-22,2024-03-20,2024-04-09,2024-03-02,2024-04-22,,,SITE003,Dr. James Wilson,1974,50,YEARS,M,WHITE,NOT HISPANIC OR LATINO,TEP500,Tepotinib 500mg QD,TEP500,Tepotinib 500mg QD,,,USA
VISION-NSCLC,DM,VISION-NSCLC-SITE003-0126,0126,2024-02-19,2024-10-01,2024-02-19,2024-07-24,2024-01-24,2024-10-01,,,SITE003,Dr. James Wilson,1993,31,YEARS,M,OTHER,NOT HISPANIC OR LATINO,TEP500,Tepotinib 500mg QD,TEP500,Tepotinib 500mg QD,,,USA
VISION-NSCLC,DM,VISION-NSCLC-SITE003-0129,0129,2024-01-26,2024-09-07,2024-01-26,2024-06-10,2024-01-15,2024-09-07,,,SITE003,Dr. James Wilson,1982,42,YEARS,M,ASIAN,NOT HISPANIC OR LATINO,TEP500,Tepotinib 500mg QD,TEP500,Tepotinib 500mg QD,,,USA
VISION-NSCLC,DM,VISION-NSCLC-SITE003-0132,0132,2024-03-08,2024-10-19,2024-03-08,2024-07-29,2024-02-19,2024-10-19,,,SITE003,Dr. James Wilson,1969,55,YEARS,M,WHITE,NOT HISPANIC OR LATINO,TEP500,Tepotinib 500mg QD,TEP500,Tepotinib 500mg QD,,,USA
VISION-NSCLC,DM,VISION-NSCLC-SITE003-0135,0135,,,,,2024-01-18,,,,SITE003,Dr. James Wilson,1976,48,YEARS,F,WHITE,HISPANIC OR LATINO,,,,,SCREEN FAILURE,,USA
VISION-NSCLC,DM,VISION-NSCLC-SITE003-0138,0138,2024-04-24,2024-12-05,2024-04-24,2024-10-08,2024-04-05,2024-12-05,,,SITE003,Dr. James Wilson,1985,39,YEARS,F,OTHER,NOT HISPANIC OR LATINO,TEP500,Tepotinib 500mg QD,TEP500,Tepotinib 500mg QD,,,USA
VISION-NSCLC,DM,VISION-NSCLC-SITE003-0141,0141,,,,,2024-03-25,,,,SITE003,Dr. James Wilson,2006,18,YEARS,M,OTHER,NOT HISPANIC OR LATINO,,,,,SCREEN FAILURE,,USA
VISION-NSCLC,DM,VISION-NSCLC-SITE003-0144,0144,2024-04-12,2024-04-13,2024-04-12,2024-04-13,2024-03-10,2024-04-13,,,SITE003,Dr. James Wilson,1975,49,YEARS,M,WHITE,NOT HISPANIC OR LATINO,TEP500,Tepotinib 500mg QD,TEP500,Tepotinib 500mg QD,,,USA
VISION-NSCLC,DM,VISION-NSCLC-SITE003-0147,0147,2024-04-25,2024-12-06,2024-04-25,2024-07-29,2024-03-22,2024-12-06,,,SITE003,Dr. James Wilson,1979,45,YEARS,F,OTHER,NOT HISPANIC OR LATINO,TEP500,Tepotinib 500mg QD,TEP500,Tepotinib 500mg QD,,,USA
VISION-NSCLC,DM,VISION-NSCLC-SITE003-0150,0150,2024-04-02,2024-11-13,2024-04-02,2024-08-17,2024-03-10,2024-11-13,,,SITE003,Dr. James Wilson,1986,38,YEARS,F,WHITE,HISPANIC OR LATINO,TEP500,Tepotinib 500mg QD,TEP500,Tepotinib 500mg QD,,,USA
