STUDYID,DOMAIN,USUBJID,PESEQ,PETESTCD,PETEST,PEORRES,PESTRESC,VISITNUM,VISIT,EPOCH,PEDTC,PEDY
VISION-NSCLC,PE,VISION-NSCLC-SITE001-0001,1,ABDOMEN,ABDOMEN,NORMAL,NORMAL,1.0,SCREENING,SCREENING,2024-03-07,-20
VISION-NSCLC,PE,VISION-NSCLC-SITE001-0001,2,CARDIOVA,CARDIOVASCULAR,NORMAL,NORMAL,1.0,SCREENING,SCREENING,2024-03-07,-20
VISION-NSCLC,PE,VISION-NSCLC-SITE001-0001,3,EARSNOSE,"EARS, NOSE, AND THROAT",NORMAL,NORMAL,1.0,SCREENING,SCREENING,2024-03-07,-20
VISION-NSCLC,PE,VISION-NSCLC-SITE001-0001,4,EYES,EYES,NORMAL,NORMAL,1.0,SCREENING,SCREENING,2024-03-07,-20
VISION-NSCLC,PE,VISION-NSCLC-SITE001-0001,5,GENERALA,GENERAL APPEARANCE,NORMAL,NORMAL,1.0,SCREENING,SCREENING,2024-03-07,-20
VISION-NSCLC,PE,VISION-NSCLC-SITE001-0001,6,HEADANDN,HEAD AND NECK,NORMAL,NORMAL,1.0,SCREENING,SCREENING,2024-03-07,-20
VISION-NSCLC,PE,VISION-NSCLC-SITE001-0001,7,MUSCULOS,MUSCULOSKELETAL,NORMAL,NORMAL,1.0,SCREENING,SCREENING,2024-03-07,-20
VISION-NSCLC,PE,VISION-NSCLC-SITE001-0001,8,NEUROLOG,NEUROLOGICAL,NORMAL,NORMAL,1.0,SCREENING,SCREENING,2024-03-07,-20
VISION-NSCLC,PE,VISION-NSCLC-SITE001-0001,9,RESPIRAT,RESPIRATORY,NORMAL,NORMAL,1.0,SCREENING,SCREENING,2024-03-07,-20
VISION-NSCLC,PE,VISION-NSCLC-SITE001-0001,10,SKIN,SKIN,NORMAL,NORMAL,1.0,SCREENING,SCREENING,2024-03-07,-20
VISION-NSCLC,PE,VISION-NSCLC-SITE001-0001,11,ABDOMEN,ABDOMEN,NORMAL,NORMAL,2.0,C1D1,TREATMENT,2024-03-27,1
VISION-NSCLC,PE,VISION-NSCLC-SITE001-0001,12,CARDIOVA,CARDIOVASCULAR,NORMAL,NORMAL,2.0,C1D1,TREATMENT,2024-03-27,1
VISION-NSCLC,PE,VISION-NSCLC-SITE001-0001,13,EARSNOSE,"EARS, NOSE, AND THROAT",NORMAL,NORMAL,2.0,C1D1,TREATMENT,2024-03-27,1
VISION-NSCLC,PE,VISION-NSCLC-SITE001-0001,14,EYES,EYES,NORMAL,NORMAL,2.0,C1D1,TREATMENT,2024-03-27,1
VISION-NSCLC,PE,VISION-NSCLC-SITE001-0001,15,GENERALA,GENERAL APPEARANCE,NORMAL,NORMAL,2.0,C1D1,TREATMENT,2024-03-27,1
VISION-NSCLC,PE,VISION-NSCLC-SITE001-0001,16,HEADANDN,HEAD AND NECK,NORMAL,NORMAL,2.0,C1D1,TREATMENT,2024-03-27,1
VISION-NSCLC,PE,VISION-NSCLC-SITE001-0001,17,MUSCULOS,MUSCULOSKELETAL,NORMAL,NORMAL,2.0,C1D1,TREATMENT,2024-03-27,1
VISION-NSCLC,PE,VISION-NSCLC-SITE001-0001,18,NEUROLOG,NEUROLOGICAL,NORMAL,NORMAL,2.0,C1D1,TREATMENT,2024-03-27,1
VISION-NSCLC,PE,VISION-NSCLC-SITE001-0001,19,RESPIRAT,RESPIRATORY,NORMAL,NORMAL,2.0,C1D1,TREATMENT,2024-03-27,1
VISION-NSCLC,PE,VISION-NSCLC-SITE001-0001,20,SKIN,SKIN,NORMAL,NORMAL,2.0,C1D1,TREATMENT,2024-03-27,1
VISION-NSCLC,PE,VISION-NSCLC-SITE001-0007,1,ABDOMEN,ABDOMEN,NORMAL,NORMAL,1.0,SCREENING,SCREENING,2024-01-15,-29
VISION-NSCLC,PE,VISION-NSCLC-SITE001-0007,2,CARDIOVA,CARDIOVASCULAR,NORMAL,NORMAL,1.0,SCREENING,SCREENING,2024-01-15,-29
VISION-NSCLC,PE,VISION-NSCLC-SITE001-0007,3,EARSNOSE,"EARS, NOSE, AND THROAT",NORMAL,NORMAL,1.0,SCREENING,SCREENING,2024-01-15,-29
VISION-NSCLC,PE,VISION-NSCLC-SITE001-0007,4,EYES,EYES,NORMAL,NORMAL,1.0,SCREENING,SCREENING,2024-01-15,-29
VISION-NSCLC,PE,VISION-NSCLC-SITE001-0007,5,GENERALA,GENERAL APPEARANCE,NORMAL,NORMAL,1.0,SCREENING,SCREENING,2024-01-15,-29
VISION-NSCLC,PE,VISION-NSCLC-SITE001-0007,6,HEADANDN,HEAD AND NECK,NORMAL,NORMAL,1.0,SCREENING,SCREENING,2024-01-15,-29
VISION-NSCLC,PE,VISION-NSCLC-SITE001-0007,7,MUSCULOS,MUSCULOSKELETAL,NORMAL,NORMAL,1.0,SCREENING,SCREENING,2024-01-15,-29
VISION-NSCLC,PE,VISION-NSCLC-SITE001-0007,8,NEUROLOG,NEUROLOGICAL,NORMAL,NORMAL,1.0,SCREENING,SCREENING,2024-01-15,-29
VISION-NSCLC,PE,VISION-NSCLC-SITE001-0007,9,RESPIRAT,RESPIRATORY,NORMAL,NORMAL,1.0,SCREENING,SCREENING,2024-01-15,-29
VISION-NSCLC,PE,VISION-NSCLC-SITE001-0007,10,SKIN,SKIN,NORMAL,NORMAL,1.0,SCREENING,SCREENING,2024-01-15,-29
VISION-NSCLC,PE,VISION-NSCLC-SITE001-0007,11,ABDOMEN,ABDOMEN,NORMAL,NORMAL,2.0,C1D1,TREATMENT,2024-02-13,1
VISION-NSCLC,PE,VISION-NSCLC-SITE001-0007,12,CARDIOVA,CARDIOVASCULAR,NORMAL,NORMAL,2.0,C1D1,TREATMENT,2024-02-13,1
VISION-NSCLC,PE,VISION-NSCLC-SITE001-0007,13,EARSNOSE,"EARS, NOSE, AND THROAT",NORMAL,NORMAL,2.0,C1D1,TREATMENT,2024-02-13,1
VISION-NSCLC,PE,VISION-NSCLC-SITE001-0007,14,EYES,EYES,NORMAL,NORMAL,2.0,C1D1,TREATMENT,2024-02-13,1
VISION-NSCLC,PE,VISION-NSCLC-SITE001-0007,15,GENERALA,GENERAL APPEARANCE,NORMAL,NORMAL,2.0,C1D1,TREATMENT,2024-02-13,1
VISION-NSCLC,PE,VISION-NSCLC-SITE001-0007,16,HEADANDN,HEAD AND NECK,NORMAL,NORMAL,2.0,C1D1,TREATMENT,2024-02-13,1
VISION-NSCLC,PE,VISION-NSCLC-SITE001-0007,17,MUSCULOS,MUSCULOSKELETAL,NORMAL,NORMAL,2.0,C1D1,TREATMENT,2024-02-13,1
VISION-NSCLC,PE,VISION-NSCLC-SITE001-0007,18,NEUROLOG,NEUROLOGICAL,NORMAL,NORMAL,2.0,C1D1,TREATMENT,2024-02-13,1
VISION-NSCLC,PE,VISION-NSCLC-SITE001-0007,19,RESPIRAT,RESPIRATORY,NORMAL,NORMAL,2.0,C1D1,TREATMENT,2024-02-13,1
VISION-NSCLC,PE,VISION-NSCLC-SITE001-0007,20,SKIN,SKIN,NORMAL,NORMAL,2.0,C1D1,TREATMENT,2024-02-13,1
VISION-NSCLC,PE,VISION-NSCLC-SITE001-0010,1,ABDOMEN,ABDOMEN,NORMAL,NORMAL,1.0,SCREENING,SCREENING,2024-01-28,-8
VISION-NSCLC,PE,VISION-NSCLC-SITE001-0010,2,CARDIOVA,CARDIOVASCULAR,NORMAL,NORMAL,1.0,SCREENING,SCREENING,2024-01-28,-8
VISION-NSCLC,PE,VISION-NSCLC-SITE001-0010,3,EARSNOSE,"EARS, NOSE, AND THROAT",PHARYNGEAL ERYTHEMA,PHARYNGEAL ERYTHEMA,1.0,SCREENING,SCREENING,2024-01-28,-8
VISION-NSCLC,PE,VISION-NSCLC-SITE001-0010,4,EYES,EYES,NORMAL,NORMAL,1.0,SCREENING,SCREENING,2024-01-28,-8
VISION-NSCLC,PE,VISION-NSCLC-SITE001-0010,5,GENERALA,GENERAL APPEARANCE,NORMAL,NORMAL,1.0,SCREENING,SCREENING,2024-01-28,-8
VISION-NSCLC,PE,VISION-NSCLC-SITE001-0010,6,HEADANDN,HEAD AND NECK,NORMAL,NORMAL,1.0,SCREENING,SCREENING,2024-01-28,-8
VISION-NSCLC,PE,VISION-NSCLC-SITE001-0010,7,MUSCULOS,MUSCULOSKELETAL,NORMAL,NORMAL,1.0,SCREENING,SCREENING,2024-01-28,-8
VISION-NSCLC,PE,VISION-NSCLC-SITE001-0010,8,NEUROLOG,NEUROLOGICAL,NORMAL,NORMAL,1.0,SCREENING,SCREENING,2024-01-28,-8
VISION-NSCLC,PE,VISION-NSCLC-SITE001-0010,9,RESPIRAT,RESPIRATORY,NORMAL,NORMAL,1.0,SCREENING,SCREENING,2024-01-28,-8
VISION-NSCLC,PE,VISION-NSCLC-SITE001-0010,10,SKIN,SKIN,NORMAL,NORMAL,1.0,SCREENING,SCREENING,2024-01-28,-8
VISION-NSCLC,PE,VISION-NSCLC-SITE001-0010,11,ABDOMEN,ABDOMEN,NORMAL,NORMAL,2.0,C1D1,TREATMENT,2024-02-05,1
VISION-NSCLC,PE,VISION-NSCLC-SITE001-0010,12,CARDIOVA,CARDIOVASCULAR,NORMAL,NORMAL,2.0,C1D1,TREATMENT,2024-02-05,1
VISION-NSCLC,PE,VISION-NSCLC-SITE001-0010,13,EARSNOSE,"EARS, NOSE, AND THROAT",NORMAL,NORMAL,2.0,C1D1,TREATMENT,2024-02-05,1
VISION-NSCLC,PE,VISION-NSCLC-SITE001-0010,14,EYES,EYES,NORMAL,NORMAL,2.0,C1D1,TREATMENT,2024-02-05,1
VISION-NSCLC,PE,VISION-NSCLC-SITE001-0010,15,GENERALA,GENERAL APPEARANCE,NORMAL,NORMAL,2.0,C1D1,TREATMENT,2024-02-05,1
VISION-NSCLC,PE,VISION-NSCLC-SITE001-0010,16,HEADANDN,HEAD AND NECK,NORMAL,NORMAL,2.0,C1D1,TREATMENT,2024-02-05,1
VISION-NSCLC,PE,VISION-NSCLC-SITE001-0010,17,MUSCULOS,MUSCULOSKELETAL,NORMAL,NORMAL,2.0,C1D1,TREATMENT,2024-02-05,1
VISION-NSCLC,PE,VISION-NSCLC-SITE001-0010,18,NEUROLOG,NEUROLOGICAL,NORMAL,NORMAL,2.0,C1D1,TREATMENT,2024-02-05,1
VISION-NSCLC,PE,VISION-NSCLC-SITE001-0010,19,RESPIRAT,RESPIRATORY,NORMAL,NORMAL,2.0,C1D1,TREATMENT,2024-02-05,1
VISION-NSCLC,PE,VISION-NSCLC-SITE001-0010,20,SKIN,SKIN,NORMAL,NORMAL,2.0,C1D1,TREATMENT,2024-02-05,1
VISION-NSCLC,PE,VISION-NSCLC-SITE001-0016,1,ABDOMEN,ABDOMEN,HEPATOMEGALY,HEPATOMEGALY,1.0,SCREENING,SCREENING,2024-03-31,-11
VISION-NSCLC,PE,VISION-NSCLC-SITE001-0016,2,CARDIOVA,CARDIOVASCULAR,NORMAL,NORMAL,1.0,SCREENING,SCREENING,2024-03-31,-11
VISION-NSCLC,PE,VISION-NSCLC-SITE001-0016,3,EARSNOSE,"EARS, NOSE, AND THROAT",NORMAL,NORMAL,1.0,SCREENING,SCREENING,2024-03-31,-11
VISION-NSCLC,PE,VISION-NSCLC-SITE001-0016,4,EYES,EYES,NORMAL,NORMAL,1.0,SCREENING,SCREENING,2024-03-31,-11
VISION-NSCLC,PE,VISION-NSCLC-SITE001-0016,5,GENERALA,GENERAL APPEARANCE,NORMAL,NORMAL,1.0,SCREENING,SCREENING,2024-03-31,-11
VISION-NSCLC,PE,VISION-NSCLC-SITE001-0016,6,HEADANDN,HEAD AND NECK,NORMAL,NORMAL,1.0,SCREENING,SCREENING,2024-03-31,-11
VISION-NSCLC,PE,VISION-NSCLC-SITE001-0016,7,MUSCULOS,MUSCULOSKELETAL,NORMAL,NORMAL,1.0,SCREENING,SCREENING,2024-03-31,-11
VISION-NSCLC,PE,VISION-NSCLC-SITE001-0016,8,NEUROLOG,NEUROLOGICAL,NORMAL,NORMAL,1.0,SCREENING,SCREENING,2024-03-31,-11
VISION-NSCLC,PE,VISION-NSCLC-SITE001-0016,9,RESPIRAT,RESPIRATORY,NORMAL,NORMAL,1.0,SCREENING,SCREENING,2024-03-31,-11
VISION-NSCLC,PE,VISION-NSCLC-SITE001-0016,10,SKIN,SKIN,NORMAL,NORMAL,1.0,SCREENING,SCREENING,2024-03-31,-11
VISION-NSCLC,PE,VISION-NSCLC-SITE001-0016,11,ABDOMEN,ABDOMEN,NORMAL,NORMAL,2.0,C1D1,TREATMENT,2024-04-11,1
VISION-NSCLC,PE,VISION-NSCLC-SITE001-0016,12,CARDIOVA,CARDIOVASCULAR,NORMAL,NORMAL,2.0,C1D1,TREATMENT,2024-04-11,1
VISION-NSCLC,PE,VISION-NSCLC-SITE001-0016,13,EARSNOSE,"EARS, NOSE, AND THROAT",NORMAL,NORMAL,2.0,C1D1,TREATMENT,2024-04-11,1
VISION-NSCLC,PE,VISION-NSCLC-SITE001-0016,14,EYES,EYES,ICTERUS,ICTERUS,2.0,C1D1,TREATMENT,2024-04-11,1
VISION-NSCLC,PE,VISION-NSCLC-SITE001-0016,15,GENERALA,GENERAL APPEARANCE,NORMAL,NORMAL,2.0,C1D1,TREATMENT,2024-04-11,1
VISION-NSCLC,PE,VISION-NSCLC-SITE001-0016,16,HEADANDN,HEAD AND NECK,NORMAL,NORMAL,2.0,C1D1,TREATMENT,2024-04-11,1
VISION-NSCLC,PE,VISION-NSCLC-SITE001-0016,17,MUSCULOS,MUSCULOSKELETAL,NORMAL,NORMAL,2.0,C1D1,TREATMENT,2024-04-11,1
VISION-NSCLC,PE,VISION-NSCLC-SITE001-0016,18,NEUROLOG,NEUROLOGICAL,NORMAL,NORMAL,2.0,C1D1,TREATMENT,2024-04-11,1
VISION-NSCLC,PE,VISION-NSCLC-SITE001-0016,19,RESPIRAT,RESPIRATORY,NORMAL,NORMAL,2.0,C1D1,TREATMENT,2024-04-11,1
VISION-NSCLC,PE,VISION-NSCLC-SITE001-0016,20,SKIN,SKIN,NORMAL,NORMAL,2.0,C1D1,TREATMENT,2024-04-11,1
VISION-NSCLC,PE,VISION-NSCLC-SITE001-0019,1,ABDOMEN,ABDOMEN,NORMAL,NORMAL,1.0,SCREENING,SCREENING,2024-02-21,-34
VISION-NSCLC,PE,VISION-NSCLC-SITE001-0019,2,CARDIOVA,CARDIOVASCULAR,NORMAL,NORMAL,1.0,SCREENING,SCREENING,2024-02-21,-34
VISION-NSCLC,PE,VISION-NSCLC-SITE001-0019,3,EARSNOSE,"EARS, NOSE, AND THROAT",NORMAL,NORMAL,1.0,SCREENING,SCREENING,2024-02-21,-34
VISION-NSCLC,PE,VISION-NSCLC-SITE001-0019,4,EYES,EYES,NORMAL,NORMAL,1.0,SCREENING,SCREENING,2024-02-21,-34
VISION-NSCLC,PE,VISION-NSCLC-SITE001-0019,5,GENERALA,GENERAL APPEARANCE,NORMAL,NORMAL,1.0,SCREENING,SCREENING,2024-02-21,-34
VISION-NSCLC,PE,VISION-NSCLC-SITE001-0019,6,HEADANDN,HEAD AND NECK,NORMAL,NORMAL,1.0,SCREENING,SCREENING,2024-02-21,-34
VISION-NSCLC,PE,VISION-NSCLC-SITE001-0019,7,MUSCULOS,MUSCULOSKELETAL,NORMAL,NORMAL,1.0,SCREENING,SCREENING,2024-02-21,-34
VISION-NSCLC,PE,VISION-NSCLC-SITE001-0019,8,NEUROLOG,NEUROLOGICAL,NORMAL,NORMAL,1.0,SCREENING,SCREENING,2024-02-21,-34
VISION-NSCLC,PE,VISION-NSCLC-SITE001-0019,9,RESPIRAT,RESPIRATORY,NORMAL,NORMAL,1.0,SCREENING,SCREENING,2024-02-21,-34
VISION-NSCLC,PE,VISION-NSCLC-SITE001-0019,10,SKIN,SKIN,NORMAL,NORMAL,1.0,SCREENING,SCREENING,2024-02-21,-34
VISION-NSCLC,PE,VISION-NSCLC-SITE001-0019,11,ABDOMEN,ABDOMEN,NORMAL,NORMAL,2.0,C1D1,TREATMENT,2024-03-26,1
VISION-NSCLC,PE,VISION-NSCLC-SITE001-0019,12,CARDIOVA,CARDIOVASCULAR,NORMAL,NORMAL,2.0,C1D1,TREATMENT,2024-03-26,1
VISION-NSCLC,PE,VISION-NSCLC-SITE001-0019,13,EARSNOSE,"EARS, NOSE, AND THROAT",NORMAL,NORMAL,2.0,C1D1,TREATMENT,2024-03-26,1
VISION-NSCLC,PE,VISION-NSCLC-SITE001-0019,14,EYES,EYES,NORMAL,NORMAL,2.0,C1D1,TREATMENT,2024-03-26,1
VISION-NSCLC,PE,VISION-NSCLC-SITE001-0019,15,GENERALA,GENERAL APPEARANCE,PALLOR,PALLOR,2.0,C1D1,TREATMENT,2024-03-26,1
VISION-NSCLC,PE,VISION-NSCLC-SITE001-0019,16,HEADANDN,HEAD AND NECK,NORMAL,NORMAL,2.0,C1D1,TREATMENT,2024-03-26,1
VISION-NSCLC,PE,VISION-NSCLC-SITE001-0019,17,MUSCULOS,MUSCULOSKELETAL,NORMAL,NORMAL,2.0,C1D1,TREATMENT,2024-03-26,1
VISION-NSCLC,PE,VISION-NSCLC-SITE001-0019,18,NEUROLOG,NEUROLOGICAL,NORMAL,NORMAL,2.0,C1D1,TREATMENT,2024-03-26,1
VISION-NSCLC,PE,VISION-NSCLC-SITE001-0019,19,RESPIRAT,RESPIRATORY,NORMAL,NORMAL,2.0,C1D1,TREATMENT,2024-03-26,1
VISION-NSCLC,PE,VISION-NSCLC-SITE001-0019,20,SKIN,SKIN,NORMAL,NORMAL,2.0,C1D1,TREATMENT,2024-03-26,1
VISION-NSCLC,PE,VISION-NSCLC-SITE001-0022,1,ABDOMEN,ABDOMEN,NORMAL,NORMAL,1.0,SCREENING,SCREENING,2024-01-25,-34
VISION-NSCLC,PE,VISION-NSCLC-SITE001-0022,2,CARDIOVA,CARDIOVASCULAR,NORMAL,NORMAL,1.0,SCREENING,SCREENING,2024-01-25,-34
VISION-NSCLC,PE,VISION-NSCLC-SITE001-0022,3,EARSNOSE,"EARS, NOSE, AND THROAT",NORMAL,NORMAL,1.0,SCREENING,SCREENING,2024-01-25,-34
VISION-NSCLC,PE,VISION-NSCLC-SITE001-0022,4,EYES,EYES,NORMAL,NORMAL,1.0,SCREENING,SCREENING,2024-01-25,-34
VISION-NSCLC,PE,VISION-NSCLC-SITE001-0022,5,GENERALA,GENERAL APPEARANCE,CACHEXIA,CACHEXIA,1.0,SCREENING,SCREENING,2024-01-25,-34
VISION-NSCLC,PE,VISION-NSCLC-SITE001-0022,6,HEADANDN,HEAD AND NECK,NORMAL,NORMAL,1.0,SCREENING,SCREENING,2024-01-25,-34
VISION-NSCLC,PE,VISION-NSCLC-SITE001-0022,7,MUSCULOS,MUSCULOSKELETAL,NORMAL,NORMAL,1.0,SCREENING,SCREENING,2024-01-25,-34
VISION-NSCLC,PE,VISION-NSCLC-SITE001-0022,8,NEUROLOG,NEUROLOGICAL,NORMAL,NORMAL,1.0,SCREENING,SCREENING,2024-01-25,-34
VISION-NSCLC,PE,VISION-NSCLC-SITE001-0022,9,RESPIRAT,RESPIRATORY,NORMAL,NORMAL,1.0,SCREENING,SCREENING,2024-01-25,-34
VISION-NSCLC,PE,VISION-NSCLC-SITE001-0022,10,SKIN,SKIN,NORMAL,NORMAL,1.0,SCREENING,SCREENING,2024-01-25,-34
VISION-NSCLC,PE,VISION-NSCLC-SITE001-0022,11,ABDOMEN,ABDOMEN,NORMAL,NORMAL,2.0,C1D1,TREATMENT,2024-02-28,1
VISION-NSCLC,PE,VISION-NSCLC-SITE001-0022,12,CARDIOVA,CARDIOVASCULAR,NORMAL,NORMAL,2.0,C1D1,TREATMENT,2024-02-28,1
VISION-NSCLC,PE,VISION-NSCLC-SITE001-0022,13,EARSNOSE,"EARS, NOSE, AND THROAT",NORMAL,NORMAL,2.0,C1D1,TREATMENT,2024-02-28,1
VISION-NSCLC,PE,VISION-NSCLC-SITE001-0022,14,EYES,EYES,NORMAL,NORMAL,2.0,C1D1,TREATMENT,2024-02-28,1
VISION-NSCLC,PE,VISION-NSCLC-SITE001-0022,15,GENERALA,GENERAL APPEARANCE,NORMAL,NORMAL,2.0,C1D1,TREATMENT,2024-02-28,1
VISION-NSCLC,PE,VISION-NSCLC-SITE001-0022,16,HEADANDN,HEAD AND NECK,NORMAL,NORMAL,2.0,C1D1,TREATMENT,2024-02-28,1
VISION-NSCLC,PE,VISION-NSCLC-SITE001-0022,17,MUSCULOS,MUSCULOSKELETAL,JOINT TENDERNESS,JOINT TENDERNESS,2.0,C1D1,TREATMENT,2024-02-28,1
VISION-NSCLC,PE,VISION-NSCLC-SITE001-0022,18,NEUROLOG,NEUROLOGICAL,NORMAL,NORMAL,2.0,C1D1,TREATMENT,2024-02-28,1
VISION-NSCLC,PE,VISION-NSCLC-SITE001-0022,19,RESPIRAT,RESPIRATORY,NORMAL,NORMAL,2.0,C1D1,TREATMENT,2024-02-28,1
VISION-NSCLC,PE,VISION-NSCLC-SITE001-0022,20,SKIN,SKIN,NORMAL,NORMAL,2.0,C1D1,TREATMENT,2024-02-28,1
VISION-NSCLC,PE,VISION-NSCLC-SITE001-0025,1,ABDOMEN,ABDOMEN,NORMAL,NORMAL,1.0,SCREENING,SCREENING,2024-03-04,-10
VISION-NSCLC,PE,VISION-NSCLC-SITE001-0025,2,CARDIOVA,CARDIOVASCULAR,NORMAL,NORMAL,1.0,SCREENING,SCREENING,2024-03-04,-10
VISION-NSCLC,PE,VISION-NSCLC-SITE001-0025,3,EARSNOSE,"EARS, NOSE, AND THROAT",NORMAL,NORMAL,1.0,SCREENING,SCREENING,2024-03-04,-10
VISION-NSCLC,PE,VISION-NSCLC-SITE001-0025,4,EYES,EYES,NORMAL,NORMAL,1.0,SCREENING,SCREENING,2024-03-04,-10
VISION-NSCLC,PE,VISION-NSCLC-SITE001-0025,5,GENERALA,GENERAL APPEARANCE,NORMAL,NORMAL,1.0,SCREENING,SCREENING,2024-03-04,-10
VISION-NSCLC,PE,VISION-NSCLC-SITE001-0025,6,HEADANDN,HEAD AND NECK,NORMAL,NORMAL,1.0,SCREENING,SCREENING,2024-03-04,-10
VISION-NSCLC,PE,VISION-NSCLC-SITE001-0025,7,MUSCULOS,MUSCULOSKELETAL,NORMAL,NORMAL,1.0,SCREENING,SCREENING,2024-03-04,-10
VISION-NSCLC,PE,VISION-NSCLC-SITE001-0025,8,NEUROLOG,NEUROLOGICAL,NORMAL,NORMAL,1.0,SCREENING,SCREENING,2024-03-04,-10
VISION-NSCLC,PE,VISION-NSCLC-SITE001-0025,9,RESPIRAT,RESPIRATORY,NORMAL,NORMAL,1.0,SCREENING,SCREENING,2024-03-04,-10
VISION-NSCLC,PE,VISION-NSCLC-SITE001-0025,10,SKIN,SKIN,BRUISING,BRUISING,1.0,SCREENING,SCREENING,2024-03-04,-10
VISION-NSCLC,PE,VISION-NSCLC-SITE001-0025,11,ABDOMEN,ABDOMEN,NORMAL,NORMAL,2.0,C1D1,TREATMENT,2024-03-14,1
VISION-NSCLC,PE,VISION-NSCLC-SITE001-0025,12,CARDIOVA,CARDIOVASCULAR,NORMAL,NORMAL,2.0,C1D1,TREATMENT,2024-03-14,1
VISION-NSCLC,PE,VISION-NSCLC-SITE001-0025,13,EARSNOSE,"EARS, NOSE, AND THROAT",NORMAL,NORMAL,2.0,C1D1,TREATMENT,2024-03-14,1
VISION-NSCLC,PE,VISION-NSCLC-SITE001-0025,14,EYES,EYES,NORMAL,NORMAL,2.0,C1D1,TREATMENT,2024-03-14,1
VISION-NSCLC,PE,VISION-NSCLC-SITE001-0025,15,GENERALA,GENERAL APPEARANCE,NORMAL,NORMAL,2.0,C1D1,TREATMENT,2024-03-14,1
VISION-NSCLC,PE,VISION-NSCLC-SITE001-0025,16,HEADANDN,HEAD AND NECK,NORMAL,NORMAL,2.0,C1D1,TREATMENT,2024-03-14,1
VISION-NSCLC,PE,VISION-NSCLC-SITE001-0025,17,MUSCULOS,MUSCULOSKELETAL,NORMAL,NORMAL,2.0,C1D1,TREATMENT,2024-03-14,1
VISION-NSCLC,PE,VISION-NSCLC-SITE001-0025,18,NEUROLOG,NEUROLOGICAL,NORMAL,NORMAL,2.0,C1D1,TREATMENT,2024-03-14,1
VISION-NSCLC,PE,VISION-NSCLC-SITE001-0025,19,RESPIRAT,RESPIRATORY,NORMAL,NORMAL,2.0,C1D1,TREATMENT,2024-03-14,1
VISION-NSCLC,PE,VISION-NSCLC-SITE001-0025,20,SKIN,SKIN,NORMAL,NORMAL,2.0,C1D1,TREATMENT,2024-03-14,1
VISION-NSCLC,PE,VISION-NSCLC-SITE001-0028,1,ABDOMEN,ABDOMEN,DISTENSION,DISTENSION,1.0,SCREENING,SCREENING,2024-02-11,-10
VISION-NSCLC,PE,VISION-NSCLC-SITE001-0028,2,CARDIOVA,CARDIOVASCULAR,NORMAL,NORMAL,1.0,SCREENING,SCREENING,2024-02-11,-10
VISION-NSCLC,PE,VISION-NSCLC-SITE001-0028,3,EARSNOSE,"EARS, NOSE, AND THROAT",NORMAL,NORMAL,1.0,SCREENING,SCREENING,2024-02-11,-10
VISION-NSCLC,PE,VISION-NSCLC-SITE001-0028,4,EYES,EYES,NORMAL,NORMAL,1.0,SCREENING,SCREENING,2024-02-11,-10
VISION-NSCLC,PE,VISION-NSCLC-SITE001-0028,5,GENERALA,GENERAL APPEARANCE,NORMAL,NORMAL,1.0,SCREENING,SCREENING,2024-02-11,-10
VISION-NSCLC,PE,VISION-NSCLC-SITE001-0028,6,HEADANDN,HEAD AND NECK,NORMAL,NORMAL,1.0,SCREENING,SCREENING,2024-02-11,-10
VISION-NSCLC,PE,VISION-NSCLC-SITE001-0028,7,MUSCULOS,MUSCULOSKELETAL,NORMAL,NORMAL,1.0,SCREENING,SCREENING,2024-02-11,-10
VISION-NSCLC,PE,VISION-NSCLC-SITE001-0028,8,NEUROLOG,NEUROLOGICAL,NORMAL,NORMAL,1.0,SCREENING,SCREENING,2024-02-11,-10
VISION-NSCLC,PE,VISION-NSCLC-SITE001-0028,9,RESPIRAT,RESPIRATORY,NORMAL,NORMAL,1.0,SCREENING,SCREENING,2024-02-11,-10
VISION-NSCLC,PE,VISION-NSCLC-SITE001-0028,10,SKIN,SKIN,NORMAL,NORMAL,1.0,SCREENING,SCREENING,2024-02-11,-10
VISION-NSCLC,PE,VISION-NSCLC-SITE001-0028,11,ABDOMEN,ABDOMEN,NORMAL,NORMAL,2.0,C1D1,TREATMENT,2024-02-21,1
VISION-NSCLC,PE,VISION-NSCLC-SITE001-0028,12,CARDIOVA,CARDIOVASCULAR,NORMAL,NORMAL,2.0,C1D1,TREATMENT,2024-02-21,1
VISION-NSCLC,PE,VISION-NSCLC-SITE001-0028,13,EARSNOSE,"EARS, NOSE, AND THROAT",NORMAL,NORMAL,2.0,C1D1,TREATMENT,2024-02-21,1
VISION-NSCLC,PE,VISION-NSCLC-SITE001-0028,14,EYES,EYES,NORMAL,NORMAL,2.0,C1D1,TREATMENT,2024-02-21,1
VISION-NSCLC,PE,VISION-NSCLC-SITE001-0028,15,GENERALA,GENERAL APPEARANCE,NORMAL,NORMAL,2.0,C1D1,TREATMENT,2024-02-21,1
VISION-NSCLC,PE,VISION-NSCLC-SITE001-0028,16,HEADANDN,HEAD AND NECK,NORMAL,NORMAL,2.0,C1D1,TREATMENT,2024-02-21,1
VISION-NSCLC,PE,VISION-NSCLC-SITE001-0028,17,MUSCULOS,MUSCULOSKELETAL,NORMAL,NORMAL,2.0,C1D1,TREATMENT,2024-02-21,1
VISION-NSCLC,PE,VISION-NSCLC-SITE001-0028,18,NEUROLOG,NEUROLOGICAL,NORMAL,NORMAL,2.0,C1D1,TREATMENT,2024-02-21,1
VISION-NSCLC,PE,VISION-NSCLC-SITE001-0028,19,RESPIRAT,RESPIRATORY,NORMAL,NORMAL,2.0,C1D1,TREATMENT,2024-02-21,1
VISION-NSCLC,PE,VISION-NSCLC-SITE001-0028,20,SKIN,SKIN,NORMAL,NORMAL,2.0,C1D1,TREATMENT,2024-02-21,1
VISION-NSCLC,PE,VISION-NSCLC-SITE001-0031,1,ABDOMEN,ABDOMEN,NORMAL,NORMAL,1.0,SCREENING,SCREENING,2024-02-02,-33
VISION-NSCLC,PE,VISION-NSCLC-SITE001-0031,2,CARDIOVA,CARDIOVASCULAR,NORMAL,NORMAL,1.0,SCREENING,SCREENING,2024-02-02,-33
VISION-NSCLC,PE,VISION-NSCLC-SITE001-0031,3,EARSNOSE,"EARS, NOSE, AND THROAT",NORMAL,NORMAL,1.0,SCREENING,SCREENING,2024-02-02,-33
VISION-NSCLC,PE,VISION-NSCLC-SITE001-0031,4,EYES,EYES,NORMAL,NORMAL,1.0,SCREENING,SCREENING,2024-02-02,-33
VISION-NSCLC,PE,VISION-NSCLC-SITE001-0031,5,GENERALA,GENERAL APPEARANCE,NORMAL,NORMAL,1.0,SCREENING,SCREENING,2024-02-02,-33
VISION-NSCLC,PE,VISION-NSCLC-SITE001-0031,6,HEADANDN,HEAD AND NECK,NORMAL,NORMAL,1.0,SCREENING,SCREENING,2024-02-02,-33
VISION-NSCLC,PE,VISION-NSCLC-SITE001-0031,7,MUSCULOS,MUSCULOSKELETAL,NORMAL,NORMAL,1.0,SCREENING,SCREENING,2024-02-02,-33
VISION-NSCLC,PE,VISION-NSCLC-SITE001-0031,8,NEUROLOG,NEUROLOGICAL,NORMAL,NORMAL,1.0,SCREENING,SCREENING,2024-02-02,-33
VISION-NSCLC,PE,VISION-NSCLC-SITE001-0031,9,RESPIRAT,RESPIRATORY,NORMAL,NORMAL,1.0,SCREENING,SCREENING,2024-02-02,-33
VISION-NSCLC,PE,VISION-NSCLC-SITE001-0031,10,SKIN,SKIN,NORMAL,NORMAL,1.0,SCREENING,SCREENING,2024-02-02,-33
VISION-NSCLC,PE,VISION-NSCLC-SITE001-0031,11,ABDOMEN,ABDOMEN,NORMAL,NORMAL,2.0,C1D1,TREATMENT,2024-03-06,1
VISION-NSCLC,PE,VISION-NSCLC-SITE001-0031,12,CARDIOVA,CARDIOVASCULAR,NORMAL,NORMAL,2.0,C1D1,TREATMENT,2024-03-06,1
VISION-NSCLC,PE,VISION-NSCLC-SITE001-0031,13,EARSNOSE,"EARS, NOSE, AND THROAT",NORMAL,NORMAL,2.0,C1D1,TREATMENT,2024-03-06,1
VISION-NSCLC,PE,VISION-NSCLC-SITE001-0031,14,EYES,EYES,NORMAL,NORMAL,2.0,C1D1,TREATMENT,2024-03-06,1
VISION-NSCLC,PE,VISION-NSCLC-SITE001-0031,15,GENERALA,GENERAL APPEARANCE,NORMAL,NORMAL,2.0,C1D1,TREATMENT,2024-03-06,1
VISION-NSCLC,PE,VISION-NSCLC-SITE001-0031,16,HEADANDN,HEAD AND NECK,NORMAL,NORMAL,2.0,C1D1,TREATMENT,2024-03-06,1
VISION-NSCLC,PE,VISION-NSCLC-SITE001-0031,17,MUSCULOS,MUSCULOSKELETAL,JOINT TENDERNESS,JOINT TENDERNESS,2.0,C1D1,TREATMENT,2024-03-06,1
VISION-NSCLC,PE,VISION-NSCLC-SITE001-0031,18,NEUROLOG,NEUROLOGICAL,NORMAL,NORMAL,2.0,C1D1,TREATMENT,2024-03-06,1
VISION-NSCLC,PE,VISION-NSCLC-SITE001-0031,19,RESPIRAT,RESPIRATORY,NORMAL,NORMAL,2.0,C1D1,TREATMENT,2024-03-06,1
VISION-NSCLC,PE,VISION-NSCLC-SITE001-0031,20,SKIN,SKIN,NORMAL,NORMAL,2.0,C1D1,TREATMENT,2024-03-06,1
VISION-NSCLC,PE,VISION-NSCLC-SITE001-0034,1,ABDOMEN,ABDOMEN,NORMAL,NORMAL,1.0,SCREENING,SCREENING,2024-02-18,-14
VISION-NSCLC,PE,VISION-NSCLC-SITE001-0034,2,CARDIOVA,CARDIOVASCULAR,NORMAL,NORMAL,1.0,SCREENING,SCREENING,2024-02-18,-14
VISION-NSCLC,PE,VISION-NSCLC-SITE001-0034,3,EARSNOSE,"EARS, NOSE, AND THROAT",NORMAL,NORMAL,1.0,SCREENING,SCREENING,2024-02-18,-14
VISION-NSCLC,PE,VISION-NSCLC-SITE001-0034,4,EYES,EYES,NORMAL,NORMAL,1.0,SCREENING,SCREENING,2024-02-18,-14
VISION-NSCLC,PE,VISION-NSCLC-SITE001-0034,5,GENERALA,GENERAL APPEARANCE,NORMAL,NORMAL,1.0,SCREENING,SCREENING,2024-02-18,-14
VISION-NSCLC,PE,VISION-NSCLC-SITE001-0034,6,HEADANDN,HEAD AND NECK,NORMAL,NORMAL,1.0,SCREENING,SCREENING,2024-02-18,-14
VISION-NSCLC,PE,VISION-NSCLC-SITE001-0034,7,MUSCULOS,MUSCULOSKELETAL,NORMAL,NORMAL,1.0,SCREENING,SCREENING,2024-02-18,-14
VISION-NSCLC,PE,VISION-NSCLC-SITE001-0034,8,NEUROLOG,NEUROLOGICAL,TREMOR,TREMOR,1.0,SCREENING,SCREENING,2024-02-18,-14
VISION-NSCLC,PE,VISION-NSCLC-SITE001-0034,9,RESPIRAT,RESPIRATORY,NORMAL,NORMAL,1.0,SCREENING,SCREENING,2024-02-18,-14
VISION-NSCLC,PE,VISION-NSCLC-SITE001-0034,10,SKIN,SKIN,NORMAL,NORMAL,1.0,SCREENING,SCREENING,2024-02-18,-14
VISION-NSCLC,PE,VISION-NSCLC-SITE001-0034,11,ABDOMEN,ABDOMEN,NORMAL,NORMAL,2.0,C1D1,TREATMENT,2024-03-03,1
VISION-NSCLC,PE,VISION-NSCLC-SITE001-0034,12,CARDIOVA,CARDIOVASCULAR,NORMAL,NORMAL,2.0,C1D1,TREATMENT,2024-03-03,1
VISION-NSCLC,PE,VISION-NSCLC-SITE001-0034,13,EARSNOSE,"EARS, NOSE, AND THROAT",NORMAL,NORMAL,2.0,C1D1,TREATMENT,2024-03-03,1
VISION-NSCLC,PE,VISION-NSCLC-SITE001-0034,14,EYES,EYES,NORMAL,NORMAL,2.0,C1D1,TREATMENT,2024-03-03,1
VISION-NSCLC,PE,VISION-NSCLC-SITE001-0034,15,GENERALA,GENERAL APPEARANCE,NORMAL,NORMAL,2.0,C1D1,TREATMENT,2024-03-03,1
VISION-NSCLC,PE,VISION-NSCLC-SITE001-0034,16,HEADANDN,HEAD AND NECK,NORMAL,NORMAL,2.0,C1D1,TREATMENT,2024-03-03,1
VISION-NSCLC,PE,VISION-NSCLC-SITE001-0034,17,MUSCULOS,MUSCULOSKELETAL,NORMAL,NORMAL,2.0,C1D1,TREATMENT,2024-03-03,1
VISION-NSCLC,PE,VISION-NSCLC-SITE001-0034,18,NEUROLOG,NEUROLOGICAL,NORMAL,NORMAL,2.0,C1D1,TREATMENT,2024-03-03,1
VISION-NSCLC,PE,VISION-NSCLC-SITE001-0034,19,RESPIRAT,RESPIRATORY,NORMAL,NORMAL,2.0,C1D1,TREATMENT,2024-03-03,1
VISION-NSCLC,PE,VISION-NSCLC-SITE001-0034,20,SKIN,SKIN,RASH,RASH,2.0,C1D1,TREATMENT,2024-03-03,1
VISION-NSCLC,PE,VISION-NSCLC-SITE001-0037,1,ABDOMEN,ABDOMEN,NORMAL,NORMAL,1.0,SCREENING,SCREENING,2024-03-11,-13
VISION-NSCLC,PE,VISION-NSCLC-SITE001-0037,2,CARDIOVA,CARDIOVASCULAR,NORMAL,NORMAL,1.0,SCREENING,SCREENING,2024-03-11,-13
VISION-NSCLC,PE,VISION-NSCLC-SITE001-0037,3,EARSNOSE,"EARS, NOSE, AND THROAT",NORMAL,NORMAL,1.0,SCREENING,SCREENING,2024-03-11,-13
VISION-NSCLC,PE,VISION-NSCLC-SITE001-0037,4,EYES,EYES,NORMAL,NORMAL,1.0,SCREENING,SCREENING,2024-03-11,-13
VISION-NSCLC,PE,VISION-NSCLC-SITE001-0037,5,GENERALA,GENERAL APPEARANCE,NORMAL,NORMAL,1.0,SCREENING,SCREENING,2024-03-11,-13
VISION-NSCLC,PE,VISION-NSCLC-SITE001-0037,6,HEADANDN,HEAD AND NECK,NORMAL,NORMAL,1.0,SCREENING,SCREENING,2024-03-11,-13
VISION-NSCLC,PE,VISION-NSCLC-SITE001-0037,7,MUSCULOS,MUSCULOSKELETAL,NORMAL,NORMAL,1.0,SCREENING,SCREENING,2024-03-11,-13
VISION-NSCLC,PE,VISION-NSCLC-SITE001-0037,8,NEUROLOG,NEUROLOGICAL,NORMAL,NORMAL,1.0,SCREENING,SCREENING,2024-03-11,-13
VISION-NSCLC,PE,VISION-NSCLC-SITE001-0037,9,RESPIRAT,RESPIRATORY,WHEEZING,WHEEZING,1.0,SCREENING,SCREENING,2024-03-11,-13
VISION-NSCLC,PE,VISION-NSCLC-SITE001-0037,10,SKIN,SKIN,NORMAL,NORMAL,1.0,SCREENING,SCREENING,2024-03-11,-13
VISION-NSCLC,PE,VISION-NSCLC-SITE001-0037,11,ABDOMEN,ABDOMEN,NORMAL,NORMAL,2.0,C1D1,TREATMENT,2024-03-24,1
VISION-NSCLC,PE,VISION-NSCLC-SITE001-0037,12,CARDIOVA,CARDIOVASCULAR,NORMAL,NORMAL,2.0,C1D1,TREATMENT,2024-03-24,1
VISION-NSCLC,PE,VISION-NSCLC-SITE001-0037,13,EARSNOSE,"EARS, NOSE, AND THROAT",NORMAL,NORMAL,2.0,C1D1,TREATMENT,2024-03-24,1
VISION-NSCLC,PE,VISION-NSCLC-SITE001-0037,14,EYES,EYES,NORMAL,NORMAL,2.0,C1D1,TREATMENT,2024-03-24,1
VISION-NSCLC,PE,VISION-NSCLC-SITE001-0037,15,GENERALA,GENERAL APPEARANCE,NORMAL,NORMAL,2.0,C1D1,TREATMENT,2024-03-24,1
VISION-NSCLC,PE,VISION-NSCLC-SITE001-0037,16,HEADANDN,HEAD AND NECK,NORMAL,NORMAL,2.0,C1D1,TREATMENT,2024-03-24,1
VISION-NSCLC,PE,VISION-NSCLC-SITE001-0037,17,MUSCULOS,MUSCULOSKELETAL,NORMAL,NORMAL,2.0,C1D1,TREATMENT,2024-03-24,1
VISION-NSCLC,PE,VISION-NSCLC-SITE001-0037,18,NEUROLOG,NEUROLOGICAL,NORMAL,NORMAL,2.0,C1D1,TREATMENT,2024-03-24,1
VISION-NSCLC,PE,VISION-NSCLC-SITE001-0037,19,RESPIRAT,RESPIRATORY,NORMAL,NORMAL,2.0,C1D1,TREATMENT,2024-03-24,1
VISION-NSCLC,PE,VISION-NSCLC-SITE001-0037,20,SKIN,SKIN,NORMAL,NORMAL,2.0,C1D1,TREATMENT,2024-03-24,1
VISION-NSCLC,PE,VISION-NSCLC-SITE001-0040,1,ABDOMEN,ABDOMEN,NORMAL,NORMAL,1.0,SCREENING,SCREENING,2024-03-14,-19
VISION-NSCLC,PE,VISION-NSCLC-SITE001-0040,2,CARDIOVA,CARDIOVASCULAR,NORMAL,NORMAL,1.0,SCREENING,SCREENING,2024-03-14,-19
VISION-NSCLC,PE,VISION-NSCLC-SITE001-0040,3,EARSNOSE,"EARS, NOSE, AND THROAT",NORMAL,NORMAL,1.0,SCREENING,SCREENING,2024-03-14,-19
VISION-NSCLC,PE,VISION-NSCLC-SITE001-0040,4,EYES,EYES,NORMAL,NORMAL,1.0,SCREENING,SCREENING,2024-03-14,-19
VISION-NSCLC,PE,VISION-NSCLC-SITE001-0040,5,GENERALA,GENERAL APPEARANCE,NORMAL,NORMAL,1.0,SCREENING,SCREENING,2024-03-14,-19
VISION-NSCLC,PE,VISION-NSCLC-SITE001-0040,6,HEADANDN,HEAD AND NECK,NORMAL,NORMAL,1.0,SCREENING,SCREENING,2024-03-14,-19
VISION-NSCLC,PE,VISION-NSCLC-SITE001-0040,7,MUSCULOS,MUSCULOSKELETAL,NORMAL,NORMAL,1.0,SCREENING,SCREENING,2024-03-14,-19
VISION-NSCLC,PE,VISION-NSCLC-SITE001-0040,8,NEUROLOG,NEUROLOGICAL,NORMAL,NORMAL,1.0,SCREENING,SCREENING,2024-03-14,-19
VISION-NSCLC,PE,VISION-NSCLC-SITE001-0040,9,RESPIRAT,RESPIRATORY,NORMAL,NORMAL,1.0,SCREENING,SCREENING,2024-03-14,-19
VISION-NSCLC,PE,VISION-NSCLC-SITE001-0040,10,SKIN,SKIN,NORMAL,NORMAL,1.0,SCREENING,SCREENING,2024-03-14,-19
VISION-NSCLC,PE,VISION-NSCLC-SITE001-0040,11,ABDOMEN,ABDOMEN,NORMAL,NORMAL,2.0,C1D1,TREATMENT,2024-04-02,1
VISION-NSCLC,PE,VISION-NSCLC-SITE001-0040,12,CARDIOVA,CARDIOVASCULAR,NORMAL,NORMAL,2.0,C1D1,TREATMENT,2024-04-02,1
VISION-NSCLC,PE,VISION-NSCLC-SITE001-0040,13,EARSNOSE,"EARS, NOSE, AND THROAT",NORMAL,NORMAL,2.0,C1D1,TREATMENT,2024-04-02,1
VISION-NSCLC,PE,VISION-NSCLC-SITE001-0040,14,EYES,EYES,NORMAL,NORMAL,2.0,C1D1,TREATMENT,2024-04-02,1
VISION-NSCLC,PE,VISION-NSCLC-SITE001-0040,15,GENERALA,GENERAL APPEARANCE,NORMAL,NORMAL,2.0,C1D1,TREATMENT,2024-04-02,1
VISION-NSCLC,PE,VISION-NSCLC-SITE001-0040,16,HEADANDN,HEAD AND NECK,NORMAL,NORMAL,2.0,C1D1,TREATMENT,2024-04-02,1
VISION-NSCLC,PE,VISION-NSCLC-SITE001-0040,17,MUSCULOS,MUSCULOSKELETAL,NORMAL,NORMAL,2.0,C1D1,TREATMENT,2024-04-02,1
VISION-NSCLC,PE,VISION-NSCLC-SITE001-0040,18,NEUROLOG,NEUROLOGICAL,NORMAL,NORMAL,2.0,C1D1,TREATMENT,2024-04-02,1
VISION-NSCLC,PE,VISION-NSCLC-SITE001-0040,19,RESPIRAT,RESPIRATORY,NORMAL,NORMAL,2.0,C1D1,TREATMENT,2024-04-02,1
VISION-NSCLC,PE,VISION-NSCLC-SITE001-0040,20,SKIN,SKIN,NORMAL,NORMAL,2.0,C1D1,TREATMENT,2024-04-02,1
VISION-NSCLC,PE,VISION-NSCLC-SITE001-0043,1,ABDOMEN,ABDOMEN,NORMAL,NORMAL,1.0,SCREENING,SCREENING,2024-03-14,-12
VISION-NSCLC,PE,VISION-NSCLC-SITE001-0043,2,CARDIOVA,CARDIOVASCULAR,NORMAL,NORMAL,1.0,SCREENING,SCREENING,2024-03-14,-12
VISION-NSCLC,PE,VISION-NSCLC-SITE001-0043,3,EARSNOSE,"EARS, NOSE, AND THROAT",NORMAL,NORMAL,1.0,SCREENING,SCREENING,2024-03-14,-12
VISION-NSCLC,PE,VISION-NSCLC-SITE001-0043,4,EYES,EYES,NORMAL,NORMAL,1.0,SCREENING,SCREENING,2024-03-14,-12
VISION-NSCLC,PE,VISION-NSCLC-SITE001-0043,5,GENERALA,GENERAL APPEARANCE,NORMAL,NORMAL,1.0,SCREENING,SCREENING,2024-03-14,-12
VISION-NSCLC,PE,VISION-NSCLC-SITE001-0043,6,HEADANDN,HEAD AND NECK,NORMAL,NORMAL,1.0,SCREENING,SCREENING,2024-03-14,-12
VISION-NSCLC,PE,VISION-NSCLC-SITE001-0043,7,MUSCULOS,MUSCULOSKELETAL,NORMAL,NORMAL,1.0,SCREENING,SCREENING,2024-03-14,-12
VISION-NSCLC,PE,VISION-NSCLC-SITE001-0043,8,NEUROLOG,NEUROLOGICAL,NORMAL,NORMAL,1.0,SCREENING,SCREENING,2024-03-14,-12
VISION-NSCLC,PE,VISION-NSCLC-SITE001-0043,9,RESPIRAT,RESPIRATORY,NORMAL,NORMAL,1.0,SCREENING,SCREENING,2024-03-14,-12
VISION-NSCLC,PE,VISION-NSCLC-SITE001-0043,10,SKIN,SKIN,NORMAL,NORMAL,1.0,SCREENING,SCREENING,2024-03-14,-12
VISION-NSCLC,PE,VISION-NSCLC-SITE001-0043,11,ABDOMEN,ABDOMEN,NORMAL,NORMAL,2.0,C1D1,TREATMENT,2024-03-26,1
VISION-NSCLC,PE,VISION-NSCLC-SITE001-0043,12,CARDIOVA,CARDIOVASCULAR,NORMAL,NORMAL,2.0,C1D1,TREATMENT,2024-03-26,1
VISION-NSCLC,PE,VISION-NSCLC-SITE001-0043,13,EARSNOSE,"EARS, NOSE, AND THROAT",NORMAL,NORMAL,2.0,C1D1,TREATMENT,2024-03-26,1
VISION-NSCLC,PE,VISION-NSCLC-SITE001-0043,14,EYES,EYES,NORMAL,NORMAL,2.0,C1D1,TREATMENT,2024-03-26,1
VISION-NSCLC,PE,VISION-NSCLC-SITE001-0043,15,GENERALA,GENERAL APPEARANCE,NORMAL,NORMAL,2.0,C1D1,TREATMENT,2024-03-26,1
VISION-NSCLC,PE,VISION-NSCLC-SITE001-0043,16,HEADANDN,HEAD AND NECK,NORMAL,NORMAL,2.0,C1D1,TREATMENT,2024-03-26,1
VISION-NSCLC,PE,VISION-NSCLC-SITE001-0043,17,MUSCULOS,MUSCULOSKELETAL,NORMAL,NORMAL,2.0,C1D1,TREATMENT,2024-03-26,1
VISION-NSCLC,PE,VISION-NSCLC-SITE001-0043,18,NEUROLOG,NEUROLOGICAL,NORMAL,NORMAL,2.0,C1D1,TREATMENT,2024-03-26,1
VISION-NSCLC,PE,VISION-NSCLC-SITE001-0043,19,RESPIRAT,RESPIRATORY,NORMAL,NORMAL,2.0,C1D1,TREATMENT,2024-03-26,1
VISION-NSCLC,PE,VISION-NSCLC-SITE001-0043,20,SKIN,SKIN,NORMAL,NORMAL,2.0,C1D1,TREATMENT,2024-03-26,1
VISION-NSCLC,PE,VISION-NSCLC-SITE001-0046,1,ABDOMEN,ABDOMEN,NORMAL,NORMAL,1.0,SCREENING,SCREENING,2024-03-22,-7
VISION-NSCLC,PE,VISION-NSCLC-SITE001-0046,2,CARDIOVA,CARDIOVASCULAR,NORMAL,NORMAL,1.0,SCREENING,SCREENING,2024-03-22,-7
VISION-NSCLC,PE,VISION-NSCLC-SITE001-0046,3,EARSNOSE,"EARS, NOSE, AND THROAT",NORMAL,NORMAL,1.0,SCREENING,SCREENING,2024-03-22,-7
VISION-NSCLC,PE,VISION-NSCLC-SITE001-0046,4,EYES,EYES,NORMAL,NORMAL,1.0,SCREENING,SCREENING,2024-03-22,-7
VISION-NSCLC,PE,VISION-NSCLC-SITE001-0046,5,GENERALA,GENERAL APPEARANCE,CACHEXIA,CACHEXIA,1.0,SCREENING,SCREENING,2024-03-22,-7
VISION-NSCLC,PE,VISION-NSCLC-SITE001-0046,6,HEADANDN,HEAD AND NECK,NORMAL,NORMAL,1.0,SCREENING,SCREENING,2024-03-22,-7
VISION-NSCLC,PE,VISION-NSCLC-SITE001-0046,7,MUSCULOS,MUSCULOSKELETAL,NORMAL,NORMAL,1.0,SCREENING,SCREENING,2024-03-22,-7
VISION-NSCLC,PE,VISION-NSCLC-SITE001-0046,8,NEUROLOG,NEUROLOGICAL,NORMAL,NORMAL,1.0,SCREENING,SCREENING,2024-03-22,-7
VISION-NSCLC,PE,VISION-NSCLC-SITE001-0046,9,RESPIRAT,RESPIRATORY,NORMAL,NORMAL,1.0,SCREENING,SCREENING,2024-03-22,-7
VISION-NSCLC,PE,VISION-NSCLC-SITE001-0046,10,SKIN,SKIN,NORMAL,NORMAL,1.0,SCREENING,SCREENING,2024-03-22,-7
VISION-NSCLC,PE,VISION-NSCLC-SITE001-0046,11,ABDOMEN,ABDOMEN,NORMAL,NORMAL,2.0,C1D1,TREATMENT,2024-03-29,1
VISION-NSCLC,PE,VISION-NSCLC-SITE001-0046,12,CARDIOVA,CARDIOVASCULAR,NORMAL,NORMAL,2.0,C1D1,TREATMENT,2024-03-29,1
VISION-NSCLC,PE,VISION-NSCLC-SITE001-0046,13,EARSNOSE,"EARS, NOSE, AND THROAT",NORMAL,NORMAL,2.0,C1D1,TREATMENT,2024-03-29,1
VISION-NSCLC,PE,VISION-NSCLC-SITE001-0046,14,EYES,EYES,NORMAL,NORMAL,2.0,C1D1,TREATMENT,2024-03-29,1
VISION-NSCLC,PE,VISION-NSCLC-SITE001-0046,15,GENERALA,GENERAL APPEARANCE,NORMAL,NORMAL,2.0,C1D1,TREATMENT,2024-03-29,1
VISION-NSCLC,PE,VISION-NSCLC-SITE001-0046,16,HEADANDN,HEAD AND NECK,NORMAL,NORMAL,2.0,C1D1,TREATMENT,2024-03-29,1
VISION-NSCLC,PE,VISION-NSCLC-SITE001-0046,17,MUSCULOS,MUSCULOSKELETAL,NORMAL,NORMAL,2.0,C1D1,TREATMENT,2024-03-29,1
VISION-NSCLC,PE,VISION-NSCLC-SITE001-0046,18,NEUROLOG,NEUROLOGICAL,NORMAL,NORMAL,2.0,C1D1,TREATMENT,2024-03-29,1
VISION-NSCLC,PE,VISION-NSCLC-SITE001-0046,19,RESPIRAT,RESPIRATORY,NORMAL,NORMAL,2.0,C1D1,TREATMENT,2024-03-29,1
VISION-NSCLC,PE,VISION-NSCLC-SITE001-0046,20,SKIN,SKIN,NORMAL,NORMAL,2.0,C1D1,TREATMENT,2024-03-29,1
VISION-NSCLC,PE,VISION-NSCLC-SITE001-0049,1,ABDOMEN,ABDOMEN,NORMAL,NORMAL,1.0,SCREENING,SCREENING,2024-02-14,-21
VISION-NSCLC,PE,VISION-NSCLC-SITE001-0049,2,CARDIOVA,CARDIOVASCULAR,NORMAL,NORMAL,1.0,SCREENING,SCREENING,2024-02-14,-21
VISION-NSCLC,PE,VISION-NSCLC-SITE001-0049,3,EARSNOSE,"EARS, NOSE, AND THROAT",NORMAL,NORMAL,1.0,SCREENING,SCREENING,2024-02-14,-21
VISION-NSCLC,PE,VISION-NSCLC-SITE001-0049,4,EYES,EYES,NORMAL,NORMAL,1.0,SCREENING,SCREENING,2024-02-14,-21
VISION-NSCLC,PE,VISION-NSCLC-SITE001-0049,5,GENERALA,GENERAL APPEARANCE,NORMAL,NORMAL,1.0,SCREENING,SCREENING,2024-02-14,-21
VISION-NSCLC,PE,VISION-NSCLC-SITE001-0049,6,HEADANDN,HEAD AND NECK,NORMAL,NORMAL,1.0,SCREENING,SCREENING,2024-02-14,-21
VISION-NSCLC,PE,VISION-NSCLC-SITE001-0049,7,MUSCULOS,MUSCULOSKELETAL,NORMAL,NORMAL,1.0,SCREENING,SCREENING,2024-02-14,-21
VISION-NSCLC,PE,VISION-NSCLC-SITE001-0049,8,NEUROLOG,NEUROLOGICAL,NORMAL,NORMAL,1.0,SCREENING,SCREENING,2024-02-14,-21
VISION-NSCLC,PE,VISION-NSCLC-SITE001-0049,9,RESPIRAT,RESPIRATORY,NORMAL,NORMAL,1.0,SCREENING,SCREENING,2024-02-14,-21
VISION-NSCLC,PE,VISION-NSCLC-SITE001-0049,10,SKIN,SKIN,NORMAL,NORMAL,1.0,SCREENING,SCREENING,2024-02-14,-21
VISION-NSCLC,PE,VISION-NSCLC-SITE001-0049,11,ABDOMEN,ABDOMEN,NORMAL,NORMAL,2.0,C1D1,TREATMENT,2024-03-06,1
VISION-NSCLC,PE,VISION-NSCLC-SITE001-0049,12,CARDIOVA,CARDIOVASCULAR,NORMAL,NORMAL,2.0,C1D1,TREATMENT,2024-03-06,1
VISION-NSCLC,PE,VISION-NSCLC-SITE001-0049,13,EARSNOSE,"EARS, NOSE, AND THROAT",NORMAL,NORMAL,2.0,C1D1,TREATMENT,2024-03-06,1
VISION-NSCLC,PE,VISION-NSCLC-SITE001-0049,14,EYES,EYES,NORMAL,NORMAL,2.0,C1D1,TREATMENT,2024-03-06,1
VISION-NSCLC,PE,VISION-NSCLC-SITE001-0049,15,GENERALA,GENERAL APPEARANCE,NORMAL,NORMAL,2.0,C1D1,TREATMENT,2024-03-06,1
VISION-NSCLC,PE,VISION-NSCLC-SITE001-0049,16,HEADANDN,HEAD AND NECK,NORMAL,NORMAL,2.0,C1D1,TREATMENT,2024-03-06,1
VISION-NSCLC,PE,VISION-NSCLC-SITE001-0049,17,MUSCULOS,MUSCULOSKELETAL,NORMAL,NORMAL,2.0,C1D1,TREATMENT,2024-03-06,1
VISION-NSCLC,PE,VISION-NSCLC-SITE001-0049,18,NEUROLOG,NEUROLOGICAL,NORMAL,NORMAL,2.0,C1D1,TREATMENT,2024-03-06,1
VISION-NSCLC,PE,VISION-NSCLC-SITE001-0049,19,RESPIRAT,RESPIRATORY,NORMAL,NORMAL,2.0,C1D1,TREATMENT,2024-03-06,1
VISION-NSCLC,PE,VISION-NSCLC-SITE001-0049,20,SKIN,SKIN,NORMAL,NORMAL,2.0,C1D1,TREATMENT,2024-03-06,1
VISION-NSCLC,PE,VISION-NSCLC-SITE001-0052,1,ABDOMEN,ABDOMEN,NORMAL,NORMAL,1.0,SCREENING,SCREENING,2024-02-12,-19
VISION-NSCLC,PE,VISION-NSCLC-SITE001-0052,2,CARDIOVA,CARDIOVASCULAR,NORMAL,NORMAL,1.0,SCREENING,SCREENING,2024-02-12,-19
VISION-NSCLC,PE,VISION-NSCLC-SITE001-0052,3,EARSNOSE,"EARS, NOSE, AND THROAT",NORMAL,NORMAL,1.0,SCREENING,SCREENING,2024-02-12,-19
VISION-NSCLC,PE,VISION-NSCLC-SITE001-0052,4,EYES,EYES,NORMAL,NORMAL,1.0,SCREENING,SCREENING,2024-02-12,-19
VISION-NSCLC,PE,VISION-NSCLC-SITE001-0052,5,GENERALA,GENERAL APPEARANCE,NORMAL,NORMAL,1.0,SCREENING,SCREENING,2024-02-12,-19
VISION-NSCLC,PE,VISION-NSCLC-SITE001-0052,6,HEADANDN,HEAD AND NECK,NORMAL,NORMAL,1.0,SCREENING,SCREENING,2024-02-12,-19
VISION-NSCLC,PE,VISION-NSCLC-SITE001-0052,7,MUSCULOS,MUSCULOSKELETAL,NORMAL,NORMAL,1.0,SCREENING,SCREENING,2024-02-12,-19
VISION-NSCLC,PE,VISION-NSCLC-SITE001-0052,8,NEUROLOG,NEUROLOGICAL,NORMAL,NORMAL,1.0,SCREENING,SCREENING,2024-02-12,-19
VISION-NSCLC,PE,VISION-NSCLC-SITE001-0052,9,RESPIRAT,RESPIRATORY,NORMAL,NORMAL,1.0,SCREENING,SCREENING,2024-02-12,-19
VISION-NSCLC,PE,VISION-NSCLC-SITE001-0052,10,SKIN,SKIN,NORMAL,NORMAL,1.0,SCREENING,SCREENING,2024-02-12,-19
VISION-NSCLC,PE,VISION-NSCLC-SITE001-0052,11,ABDOMEN,ABDOMEN,NORMAL,NORMAL,2.0,C1D1,TREATMENT,2024-03-02,1
VISION-NSCLC,PE,VISION-NSCLC-SITE001-0052,12,CARDIOVA,CARDIOVASCULAR,NORMAL,NORMAL,2.0,C1D1,TREATMENT,2024-03-02,1
VISION-NSCLC,PE,VISION-NSCLC-SITE001-0052,13,EARSNOSE,"EARS, NOSE, AND THROAT",NORMAL,NORMAL,2.0,C1D1,TREATMENT,2024-03-02,1
VISION-NSCLC,PE,VISION-NSCLC-SITE001-0052,14,EYES,EYES,NORMAL,NORMAL,2.0,C1D1,TREATMENT,2024-03-02,1
VISION-NSCLC,PE,VISION-NSCLC-SITE001-0052,15,GENERALA,GENERAL APPEARANCE,NORMAL,NORMAL,2.0,C1D1,TREATMENT,2024-03-02,1
VISION-NSCLC,PE,VISION-NSCLC-SITE001-0052,16,HEADANDN,HEAD AND NECK,NORMAL,NORMAL,2.0,C1D1,TREATMENT,2024-03-02,1
VISION-NSCLC,PE,VISION-NSCLC-SITE001-0052,17,MUSCULOS,MUSCULOSKELETAL,NORMAL,NORMAL,2.0,C1D1,TREATMENT,2024-03-02,1
VISION-NSCLC,PE,VISION-NSCLC-SITE001-0052,18,NEUROLOG,NEUROLOGICAL,NORMAL,NORMAL,2.0,C1D1,TREATMENT,2024-03-02,1
VISION-NSCLC,PE,VISION-NSCLC-SITE001-0052,19,RESPIRAT,RESPIRATORY,NORMAL,NORMAL,2.0,C1D1,TREATMENT,2024-03-02,1
VISION-NSCLC,PE,VISION-NSCLC-SITE001-0052,20,SKIN,SKIN,NORMAL,NORMAL,2.0,C1D1,TREATMENT,2024-03-02,1
VISION-NSCLC,PE,VISION-NSCLC-SITE001-0055,1,ABDOMEN,ABDOMEN,NORMAL,NORMAL,1.0,SCREENING,SCREENING,2024-01-27,-30
VISION-NSCLC,PE,VISION-NSCLC-SITE001-0055,2,CARDIOVA,CARDIOVASCULAR,NORMAL,NORMAL,1.0,SCREENING,SCREENING,2024-01-27,-30
VISION-NSCLC,PE,VISION-NSCLC-SITE001-0055,3,EARSNOSE,"EARS, NOSE, AND THROAT",NORMAL,NORMAL,1.0,SCREENING,SCREENING,2024-01-27,-30
VISION-NSCLC,PE,VISION-NSCLC-SITE001-0055,4,EYES,EYES,ICTERUS,ICTERUS,1.0,SCREENING,SCREENING,2024-01-27,-30
VISION-NSCLC,PE,VISION-NSCLC-SITE001-0055,5,GENERALA,GENERAL APPEARANCE,NORMAL,NORMAL,1.0,SCREENING,SCREENING,2024-01-27,-30
VISION-NSCLC,PE,VISION-NSCLC-SITE001-0055,6,HEADANDN,HEAD AND NECK,NORMAL,NORMAL,1.0,SCREENING,SCREENING,2024-01-27,-30
VISION-NSCLC,PE,VISION-NSCLC-SITE001-0055,7,MUSCULOS,MUSCULOSKELETAL,NORMAL,NORMAL,1.0,SCREENING,SCREENING,2024-01-27,-30
VISION-NSCLC,PE,VISION-NSCLC-SITE001-0055,8,NEUROLOG,NEUROLOGICAL,NORMAL,NORMAL,1.0,SCREENING,SCREENING,2024-01-27,-30
VISION-NSCLC,PE,VISION-NSCLC-SITE001-0055,9,RESPIRAT,RESPIRATORY,NORMAL,NORMAL,1.0,SCREENING,SCREENING,2024-01-27,-30
VISION-NSCLC,PE,VISION-NSCLC-SITE001-0055,10,SKIN,SKIN,NORMAL,NORMAL,1.0,SCREENING,SCREENING,2024-01-27,-30
VISION-NSCLC,PE,VISION-NSCLC-SITE001-0055,11,ABDOMEN,ABDOMEN,NORMAL,NORMAL,2.0,C1D1,TREATMENT,2024-02-26,1
VISION-NSCLC,PE,VISION-NSCLC-SITE001-0055,12,CARDIOVA,CARDIOVASCULAR,NORMAL,NORMAL,2.0,C1D1,TREATMENT,2024-02-26,1
VISION-NSCLC,PE,VISION-NSCLC-SITE001-0055,13,EARSNOSE,"EARS, NOSE, AND THROAT",NORMAL,NORMAL,2.0,C1D1,TREATMENT,2024-02-26,1
VISION-NSCLC,PE,VISION-NSCLC-SITE001-0055,14,EYES,EYES,NORMAL,NORMAL,2.0,C1D1,TREATMENT,2024-02-26,1
VISION-NSCLC,PE,VISION-NSCLC-SITE001-0055,15,GENERALA,GENERAL APPEARANCE,NORMAL,NORMAL,2.0,C1D1,TREATMENT,2024-02-26,1
VISION-NSCLC,PE,VISION-NSCLC-SITE001-0055,16,HEADANDN,HEAD AND NECK,NORMAL,NORMAL,2.0,C1D1,TREATMENT,2024-02-26,1
VISION-NSCLC,PE,VISION-NSCLC-SITE001-0055,17,MUSCULOS,MUSCULOSKELETAL,NORMAL,NORMAL,2.0,C1D1,TREATMENT,2024-02-26,1
VISION-NSCLC,PE,VISION-NSCLC-SITE001-0055,18,NEUROLOG,NEUROLOGICAL,NORMAL,NORMAL,2.0,C1D1,TREATMENT,2024-02-26,1
VISION-NSCLC,PE,VISION-NSCLC-SITE001-0055,19,RESPIRAT,RESPIRATORY,NORMAL,NORMAL,2.0,C1D1,TREATMENT,2024-02-26,1
VISION-NSCLC,PE,VISION-NSCLC-SITE001-0055,20,SKIN,SKIN,NORMAL,NORMAL,2.0,C1D1,TREATMENT,2024-02-26,1
VISION-NSCLC,PE,VISION-NSCLC-SITE001-0058,1,ABDOMEN,ABDOMEN,NORMAL,NORMAL,1.0,SCREENING,SCREENING,2024-03-03,-32
VISION-NSCLC,PE,VISION-NSCLC-SITE001-0058,2,CARDIOVA,CARDIOVASCULAR,NORMAL,NORMAL,1.0,SCREENING,SCREENING,2024-03-03,-32
VISION-NSCLC,PE,VISION-NSCLC-SITE001-0058,3,EARSNOSE,"EARS, NOSE, AND THROAT",NORMAL,NORMAL,1.0,SCREENING,SCREENING,2024-03-03,-32
VISION-NSCLC,PE,VISION-NSCLC-SITE001-0058,4,EYES,EYES,NORMAL,NORMAL,1.0,SCREENING,SCREENING,2024-03-03,-32
VISION-NSCLC,PE,VISION-NSCLC-SITE001-0058,5,GENERALA,GENERAL APPEARANCE,NORMAL,NORMAL,1.0,SCREENING,SCREENING,2024-03-03,-32
VISION-NSCLC,PE,VISION-NSCLC-SITE001-0058,6,HEADANDN,HEAD AND NECK,NORMAL,NORMAL,1.0,SCREENING,SCREENING,2024-03-03,-32
VISION-NSCLC,PE,VISION-NSCLC-SITE001-0058,7,MUSCULOS,MUSCULOSKELETAL,LIMITED RANGE OF MOTION,LIMITED RANGE OF MOTION,1.0,SCREENING,SCREENING,2024-03-03,-32
VISION-NSCLC,PE,VISION-NSCLC-SITE001-0058,8,NEUROLOG,NEUROLOGICAL,NORMAL,NORMAL,1.0,SCREENING,SCREENING,2024-03-03,-32
VISION-NSCLC,PE,VISION-NSCLC-SITE001-0058,9,RESPIRAT,RESPIRATORY,NORMAL,NORMAL,1.0,SCREENING,SCREENING,2024-03-03,-32
VISION-NSCLC,PE,VISION-NSCLC-SITE001-0058,10,SKIN,SKIN,NORMAL,NORMAL,1.0,SCREENING,SCREENING,2024-03-03,-32
VISION-NSCLC,PE,VISION-NSCLC-SITE001-0058,11,ABDOMEN,ABDOMEN,NORMAL,NORMAL,2.0,C1D1,TREATMENT,2024-04-04,1
VISION-NSCLC,PE,VISION-NSCLC-SITE001-0058,12,CARDIOVA,CARDIOVASCULAR,NORMAL,NORMAL,2.0,C1D1,TREATMENT,2024-04-04,1
VISION-NSCLC,PE,VISION-NSCLC-SITE001-0058,13,EARSNOSE,"EARS, NOSE, AND THROAT",NORMAL,NORMAL,2.0,C1D1,TREATMENT,2024-04-04,1
VISION-NSCLC,PE,VISION-NSCLC-SITE001-0058,14,EYES,EYES,NORMAL,NORMAL,2.0,C1D1,TREATMENT,2024-04-04,1
VISION-NSCLC,PE,VISION-NSCLC-SITE001-0058,15,GENERALA,GENERAL APPEARANCE,NORMAL,NORMAL,2.0,C1D1,TREATMENT,2024-04-04,1
VISION-NSCLC,PE,VISION-NSCLC-SITE001-0058,16,HEADANDN,HEAD AND NECK,NORMAL,NORMAL,2.0,C1D1,TREATMENT,2024-04-04,1
VISION-NSCLC,PE,VISION-NSCLC-SITE001-0058,17,MUSCULOS,MUSCULOSKELETAL,NORMAL,NORMAL,2.0,C1D1,TREATMENT,2024-04-04,1
VISION-NSCLC,PE,VISION-NSCLC-SITE001-0058,18,NEUROLOG,NEUROLOGICAL,NORMAL,NORMAL,2.0,C1D1,TREATMENT,2024-04-04,1
VISION-NSCLC,PE,VISION-NSCLC-SITE001-0058,19,RESPIRAT,RESPIRATORY,NORMAL,NORMAL,2.0,C1D1,TREATMENT,2024-04-04,1
VISION-NSCLC,PE,VISION-NSCLC-SITE001-0058,20,SKIN,SKIN,NORMAL,NORMAL,2.0,C1D1,TREATMENT,2024-04-04,1
VISION-NSCLC,PE,VISION-NSCLC-SITE001-0061,1,ABDOMEN,ABDOMEN,NORMAL,NORMAL,1.0,SCREENING,SCREENING,2024-03-11,-14
VISION-NSCLC,PE,VISION-NSCLC-SITE001-0061,2,CARDIOVA,CARDIOVASCULAR,NORMAL,NORMAL,1.0,SCREENING,SCREENING,2024-03-11,-14
VISION-NSCLC,PE,VISION-NSCLC-SITE001-0061,3,EARSNOSE,"EARS, NOSE, AND THROAT",NORMAL,NORMAL,1.0,SCREENING,SCREENING,2024-03-11,-14
VISION-NSCLC,PE,VISION-NSCLC-SITE001-0061,4,EYES,EYES,NORMAL,NORMAL,1.0,SCREENING,SCREENING,2024-03-11,-14
VISION-NSCLC,PE,VISION-NSCLC-SITE001-0061,5,GENERALA,GENERAL APPEARANCE,NORMAL,NORMAL,1.0,SCREENING,SCREENING,2024-03-11,-14
VISION-NSCLC,PE,VISION-NSCLC-SITE001-0061,6,HEADANDN,HEAD AND NECK,NORMAL,NORMAL,1.0,SCREENING,SCREENING,2024-03-11,-14
VISION-NSCLC,PE,VISION-NSCLC-SITE001-0061,7,MUSCULOS,MUSCULOSKELETAL,NORMAL,NORMAL,1.0,SCREENING,SCREENING,2024-03-11,-14
VISION-NSCLC,PE,VISION-NSCLC-SITE001-0061,8,NEUROLOG,NEUROLOGICAL,NORMAL,NORMAL,1.0,SCREENING,SCREENING,2024-03-11,-14
VISION-NSCLC,PE,VISION-NSCLC-SITE001-0061,9,RESPIRAT,RESPIRATORY,NORMAL,NORMAL,1.0,SCREENING,SCREENING,2024-03-11,-14
VISION-NSCLC,PE,VISION-NSCLC-SITE001-0061,10,SKIN,SKIN,NORMAL,NORMAL,1.0,SCREENING,SCREENING,2024-03-11,-14
VISION-NSCLC,PE,VISION-NSCLC-SITE001-0061,11,ABDOMEN,ABDOMEN,TENDERNESS,TENDERNESS,2.0,C1D1,TREATMENT,2024-03-25,1
VISION-NSCLC,PE,VISION-NSCLC-SITE001-0061,12,CARDIOVA,CARDIOVASCULAR,NORMAL,NORMAL,2.0,C1D1,TREATMENT,2024-03-25,1
VISION-NSCLC,PE,VISION-NSCLC-SITE001-0061,13,EARSNOSE,"EARS, NOSE, AND THROAT",NORMAL,NORMAL,2.0,C1D1,TREATMENT,2024-03-25,1
VISION-NSCLC,PE,VISION-NSCLC-SITE001-0061,14,EYES,EYES,CONJUNCTIVAL PALLOR,CONJUNCTIVAL PALLOR,2.0,C1D1,TREATMENT,2024-03-25,1
VISION-NSCLC,PE,VISION-NSCLC-SITE001-0061,15,GENERALA,GENERAL APPEARANCE,NORMAL,NORMAL,2.0,C1D1,TREATMENT,2024-03-25,1
VISION-NSCLC,PE,VISION-NSCLC-SITE001-0061,16,HEADANDN,HEAD AND NECK,NORMAL,NORMAL,2.0,C1D1,TREATMENT,2024-03-25,1
VISION-NSCLC,PE,VISION-NSCLC-SITE001-0061,17,MUSCULOS,MUSCULOSKELETAL,NORMAL,NORMAL,2.0,C1D1,TREATMENT,2024-03-25,1
VISION-NSCLC,PE,VISION-NSCLC-SITE001-0061,18,NEUROLOG,NEUROLOGICAL,NORMAL,NORMAL,2.0,C1D1,TREATMENT,2024-03-25,1
VISION-NSCLC,PE,VISION-NSCLC-SITE001-0061,19,RESPIRAT,RESPIRATORY,NORMAL,NORMAL,2.0,C1D1,TREATMENT,2024-03-25,1
VISION-NSCLC,PE,VISION-NSCLC-SITE001-0061,20,SKIN,SKIN,NORMAL,NORMAL,2.0,C1D1,TREATMENT,2024-03-25,1
VISION-NSCLC,PE,VISION-NSCLC-SITE001-0064,1,ABDOMEN,ABDOMEN,NORMAL,NORMAL,1.0,SCREENING,SCREENING,2024-03-06,-12
VISION-NSCLC,PE,VISION-NSCLC-SITE001-0064,2,CARDIOVA,CARDIOVASCULAR,NORMAL,NORMAL,1.0,SCREENING,SCREENING,2024-03-06,-12
VISION-NSCLC,PE,VISION-NSCLC-SITE001-0064,3,EARSNOSE,"EARS, NOSE, AND THROAT",NORMAL,NORMAL,1.0,SCREENING,SCREENING,2024-03-06,-12
VISION-NSCLC,PE,VISION-NSCLC-SITE001-0064,4,EYES,EYES,NORMAL,NORMAL,1.0,SCREENING,SCREENING,2024-03-06,-12
VISION-NSCLC,PE,VISION-NSCLC-SITE001-0064,5,GENERALA,GENERAL APPEARANCE,NORMAL,NORMAL,1.0,SCREENING,SCREENING,2024-03-06,-12
VISION-NSCLC,PE,VISION-NSCLC-SITE001-0064,6,HEADANDN,HEAD AND NECK,NORMAL,NORMAL,1.0,SCREENING,SCREENING,2024-03-06,-12
VISION-NSCLC,PE,VISION-NSCLC-SITE001-0064,7,MUSCULOS,MUSCULOSKELETAL,NORMAL,NORMAL,1.0,SCREENING,SCREENING,2024-03-06,-12
VISION-NSCLC,PE,VISION-NSCLC-SITE001-0064,8,NEUROLOG,NEUROLOGICAL,NORMAL,NORMAL,1.0,SCREENING,SCREENING,2024-03-06,-12
VISION-NSCLC,PE,VISION-NSCLC-SITE001-0064,9,RESPIRAT,RESPIRATORY,NORMAL,NORMAL,1.0,SCREENING,SCREENING,2024-03-06,-12
VISION-NSCLC,PE,VISION-NSCLC-SITE001-0064,10,SKIN,SKIN,NORMAL,NORMAL,1.0,SCREENING,SCREENING,2024-03-06,-12
VISION-NSCLC,PE,VISION-NSCLC-SITE001-0064,11,ABDOMEN,ABDOMEN,NORMAL,NORMAL,2.0,C1D1,TREATMENT,2024-03-18,1
VISION-NSCLC,PE,VISION-NSCLC-SITE001-0064,12,CARDIOVA,CARDIOVASCULAR,NORMAL,NORMAL,2.0,C1D1,TREATMENT,2024-03-18,1
VISION-NSCLC,PE,VISION-NSCLC-SITE001-0064,13,EARSNOSE,"EARS, NOSE, AND THROAT",NORMAL,NORMAL,2.0,C1D1,TREATMENT,2024-03-18,1
VISION-NSCLC,PE,VISION-NSCLC-SITE001-0064,14,EYES,EYES,NORMAL,NORMAL,2.0,C1D1,TREATMENT,2024-03-18,1
VISION-NSCLC,PE,VISION-NSCLC-SITE001-0064,15,GENERALA,GENERAL APPEARANCE,NORMAL,NORMAL,2.0,C1D1,TREATMENT,2024-03-18,1
VISION-NSCLC,PE,VISION-NSCLC-SITE001-0064,16,HEADANDN,HEAD AND NECK,NORMAL,NORMAL,2.0,C1D1,TREATMENT,2024-03-18,1
VISION-NSCLC,PE,VISION-NSCLC-SITE001-0064,17,MUSCULOS,MUSCULOSKELETAL,NORMAL,NORMAL,2.0,C1D1,TREATMENT,2024-03-18,1
VISION-NSCLC,PE,VISION-NSCLC-SITE001-0064,18,NEUROLOG,NEUROLOGICAL,NORMAL,NORMAL,2.0,C1D1,TREATMENT,2024-03-18,1
VISION-NSCLC,PE,VISION-NSCLC-SITE001-0064,19,RESPIRAT,RESPIRATORY,NORMAL,NORMAL,2.0,C1D1,TREATMENT,2024-03-18,1
VISION-NSCLC,PE,VISION-NSCLC-SITE001-0064,20,SKIN,SKIN,NORMAL,NORMAL,2.0,C1D1,TREATMENT,2024-03-18,1
VISION-NSCLC,PE,VISION-NSCLC-SITE001-0067,1,ABDOMEN,ABDOMEN,NORMAL,NORMAL,1.0,SCREENING,SCREENING,2024-03-30,-25
VISION-NSCLC,PE,VISION-NSCLC-SITE001-0067,2,CARDIOVA,CARDIOVASCULAR,NORMAL,NORMAL,1.0,SCREENING,SCREENING,2024-03-30,-25
VISION-NSCLC,PE,VISION-NSCLC-SITE001-0067,3,EARSNOSE,"EARS, NOSE, AND THROAT",NORMAL,NORMAL,1.0,SCREENING,SCREENING,2024-03-30,-25
VISION-NSCLC,PE,VISION-NSCLC-SITE001-0067,4,EYES,EYES,NORMAL,NORMAL,1.0,SCREENING,SCREENING,2024-03-30,-25
VISION-NSCLC,PE,VISION-NSCLC-SITE001-0067,5,GENERALA,GENERAL APPEARANCE,NORMAL,NORMAL,1.0,SCREENING,SCREENING,2024-03-30,-25
VISION-NSCLC,PE,VISION-NSCLC-SITE001-0067,6,HEADANDN,HEAD AND NECK,NORMAL,NORMAL,1.0,SCREENING,SCREENING,2024-03-30,-25
VISION-NSCLC,PE,VISION-NSCLC-SITE001-0067,7,MUSCULOS,MUSCULOSKELETAL,NORMAL,NORMAL,1.0,SCREENING,SCREENING,2024-03-30,-25
VISION-NSCLC,PE,VISION-NSCLC-SITE001-0067,8,NEUROLOG,NEUROLOGICAL,NORMAL,NORMAL,1.0,SCREENING,SCREENING,2024-03-30,-25
VISION-NSCLC,PE,VISION-NSCLC-SITE001-0067,9,RESPIRAT,RESPIRATORY,NORMAL,NORMAL,1.0,SCREENING,SCREENING,2024-03-30,-25
VISION-NSCLC,PE,VISION-NSCLC-SITE001-0067,10,SKIN,SKIN,NORMAL,NORMAL,1.0,SCREENING,SCREENING,2024-03-30,-25
VISION-NSCLC,PE,VISION-NSCLC-SITE001-0067,11,ABDOMEN,ABDOMEN,NORMAL,NORMAL,2.0,C1D1,TREATMENT,2024-04-24,1
VISION-NSCLC,PE,VISION-NSCLC-SITE001-0067,12,CARDIOVA,CARDIOVASCULAR,NORMAL,NORMAL,2.0,C1D1,TREATMENT,2024-04-24,1
VISION-NSCLC,PE,VISION-NSCLC-SITE001-0067,13,EARSNOSE,"EARS, NOSE, AND THROAT",NORMAL,NORMAL,2.0,C1D1,TREATMENT,2024-04-24,1
VISION-NSCLC,PE,VISION-NSCLC-SITE001-0067,14,EYES,EYES,NORMAL,NORMAL,2.0,C1D1,TREATMENT,2024-04-24,1
VISION-NSCLC,PE,VISION-NSCLC-SITE001-0067,15,GENERALA,GENERAL APPEARANCE,NORMAL,NORMAL,2.0,C1D1,TREATMENT,2024-04-24,1
VISION-NSCLC,PE,VISION-NSCLC-SITE001-0067,16,HEADANDN,HEAD AND NECK,NORMAL,NORMAL,2.0,C1D1,TREATMENT,2024-04-24,1
VISION-NSCLC,PE,VISION-NSCLC-SITE001-0067,17,MUSCULOS,MUSCULOSKELETAL,NORMAL,NORMAL,2.0,C1D1,TREATMENT,2024-04-24,1
VISION-NSCLC,PE,VISION-NSCLC-SITE001-0067,18,NEUROLOG,NEUROLOGICAL,NORMAL,NORMAL,2.0,C1D1,TREATMENT,2024-04-24,1
VISION-NSCLC,PE,VISION-NSCLC-SITE001-0067,19,RESPIRAT,RESPIRATORY,CRACKLES,CRACKLES,2.0,C1D1,TREATMENT,2024-04-24,1
VISION-NSCLC,PE,VISION-NSCLC-SITE001-0067,20,SKIN,SKIN,NORMAL,NORMAL,2.0,C1D1,TREATMENT,2024-04-24,1
VISION-NSCLC,PE,VISION-NSCLC-SITE001-0070,1,ABDOMEN,ABDOMEN,NORMAL,NORMAL,1.0,SCREENING,SCREENING,2024-01-19,-10
VISION-NSCLC,PE,VISION-NSCLC-SITE001-0070,2,CARDIOVA,CARDIOVASCULAR,NORMAL,NORMAL,1.0,SCREENING,SCREENING,2024-01-19,-10
VISION-NSCLC,PE,VISION-NSCLC-SITE001-0070,3,EARSNOSE,"EARS, NOSE, AND THROAT",NORMAL,NORMAL,1.0,SCREENING,SCREENING,2024-01-19,-10
VISION-NSCLC,PE,VISION-NSCLC-SITE001-0070,4,EYES,EYES,NORMAL,NORMAL,1.0,SCREENING,SCREENING,2024-01-19,-10
VISION-NSCLC,PE,VISION-NSCLC-SITE001-0070,5,GENERALA,GENERAL APPEARANCE,NORMAL,NORMAL,1.0,SCREENING,SCREENING,2024-01-19,-10
VISION-NSCLC,PE,VISION-NSCLC-SITE001-0070,6,HEADANDN,HEAD AND NECK,NORMAL,NORMAL,1.0,SCREENING,SCREENING,2024-01-19,-10
VISION-NSCLC,PE,VISION-NSCLC-SITE001-0070,7,MUSCULOS,MUSCULOSKELETAL,NORMAL,NORMAL,1.0,SCREENING,SCREENING,2024-01-19,-10
VISION-NSCLC,PE,VISION-NSCLC-SITE001-0070,8,NEUROLOG,NEUROLOGICAL,NORMAL,NORMAL,1.0,SCREENING,SCREENING,2024-01-19,-10
VISION-NSCLC,PE,VISION-NSCLC-SITE001-0070,9,RESPIRAT,RESPIRATORY,NORMAL,NORMAL,1.0,SCREENING,SCREENING,2024-01-19,-10
VISION-NSCLC,PE,VISION-NSCLC-SITE001-0070,10,SKIN,SKIN,NORMAL,NORMAL,1.0,SCREENING,SCREENING,2024-01-19,-10
VISION-NSCLC,PE,VISION-NSCLC-SITE001-0070,11,ABDOMEN,ABDOMEN,NORMAL,NORMAL,2.0,C1D1,TREATMENT,2024-01-29,1
VISION-NSCLC,PE,VISION-NSCLC-SITE001-0070,12,CARDIOVA,CARDIOVASCULAR,NORMAL,NORMAL,2.0,C1D1,TREATMENT,2024-01-29,1
VISION-NSCLC,PE,VISION-NSCLC-SITE001-0070,13,EARSNOSE,"EARS, NOSE, AND THROAT",NORMAL,NORMAL,2.0,C1D1,TREATMENT,2024-01-29,1
VISION-NSCLC,PE,VISION-NSCLC-SITE001-0070,14,EYES,EYES,NORMAL,NORMAL,2.0,C1D1,TREATMENT,2024-01-29,1
VISION-NSCLC,PE,VISION-NSCLC-SITE001-0070,15,GENERALA,GENERAL APPEARANCE,NORMAL,NORMAL,2.0,C1D1,TREATMENT,2024-01-29,1
VISION-NSCLC,PE,VISION-NSCLC-SITE001-0070,16,HEADANDN,HEAD AND NECK,NORMAL,NORMAL,2.0,C1D1,TREATMENT,2024-01-29,1
VISION-NSCLC,PE,VISION-NSCLC-SITE001-0070,17,MUSCULOS,MUSCULOSKELETAL,NORMAL,NORMAL,2.0,C1D1,TREATMENT,2024-01-29,1
VISION-NSCLC,PE,VISION-NSCLC-SITE001-0070,18,NEUROLOG,NEUROLOGICAL,NORMAL,NORMAL,2.0,C1D1,TREATMENT,2024-01-29,1
VISION-NSCLC,PE,VISION-NSCLC-SITE001-0070,19,RESPIRAT,RESPIRATORY,NORMAL,NORMAL,2.0,C1D1,TREATMENT,2024-01-29,1
VISION-NSCLC,PE,VISION-NSCLC-SITE001-0070,20,SKIN,SKIN,NORMAL,NORMAL,2.0,C1D1,TREATMENT,2024-01-29,1
VISION-NSCLC,PE,VISION-NSCLC-SITE001-0073,1,ABDOMEN,ABDOMEN,NORMAL,NORMAL,1.0,SCREENING,SCREENING,2024-01-15,-11
VISION-NSCLC,PE,VISION-NSCLC-SITE001-0073,2,CARDIOVA,CARDIOVASCULAR,NORMAL,NORMAL,1.0,SCREENING,SCREENING,2024-01-15,-11
VISION-NSCLC,PE,VISION-NSCLC-SITE001-0073,3,EARSNOSE,"EARS, NOSE, AND THROAT",NORMAL,NORMAL,1.0,SCREENING,SCREENING,2024-01-15,-11
VISION-NSCLC,PE,VISION-NSCLC-SITE001-0073,4,EYES,EYES,NORMAL,NORMAL,1.0,SCREENING,SCREENING,2024-01-15,-11
VISION-NSCLC,PE,VISION-NSCLC-SITE001-0073,5,GENERALA,GENERAL APPEARANCE,NORMAL,NORMAL,1.0,SCREENING,SCREENING,2024-01-15,-11
VISION-NSCLC,PE,VISION-NSCLC-SITE001-0073,6,HEADANDN,HEAD AND NECK,NORMAL,NORMAL,1.0,SCREENING,SCREENING,2024-01-15,-11
VISION-NSCLC,PE,VISION-NSCLC-SITE001-0073,7,MUSCULOS,MUSCULOSKELETAL,NORMAL,NORMAL,1.0,SCREENING,SCREENING,2024-01-15,-11
VISION-NSCLC,PE,VISION-NSCLC-SITE001-0073,8,NEUROLOG,NEUROLOGICAL,NORMAL,NORMAL,1.0,SCREENING,SCREENING,2024-01-15,-11
VISION-NSCLC,PE,VISION-NSCLC-SITE001-0073,9,RESPIRAT,RESPIRATORY,NORMAL,NORMAL,1.0,SCREENING,SCREENING,2024-01-15,-11
VISION-NSCLC,PE,VISION-NSCLC-SITE001-0073,10,SKIN,SKIN,NORMAL,NORMAL,1.0,SCREENING,SCREENING,2024-01-15,-11
VISION-NSCLC,PE,VISION-NSCLC-SITE001-0073,11,ABDOMEN,ABDOMEN,NORMAL,NORMAL,2.0,C1D1,TREATMENT,2024-01-26,1
VISION-NSCLC,PE,VISION-NSCLC-SITE001-0073,12,CARDIOVA,CARDIOVASCULAR,NORMAL,NORMAL,2.0,C1D1,TREATMENT,2024-01-26,1
VISION-NSCLC,PE,VISION-NSCLC-SITE001-0073,13,EARSNOSE,"EARS, NOSE, AND THROAT",NORMAL,NORMAL,2.0,C1D1,TREATMENT,2024-01-26,1
VISION-NSCLC,PE,VISION-NSCLC-SITE001-0073,14,EYES,EYES,NORMAL,NORMAL,2.0,C1D1,TREATMENT,2024-01-26,1
VISION-NSCLC,PE,VISION-NSCLC-SITE001-0073,15,GENERALA,GENERAL APPEARANCE,NORMAL,NORMAL,2.0,C1D1,TREATMENT,2024-01-26,1
VISION-NSCLC,PE,VISION-NSCLC-SITE001-0073,16,HEADANDN,HEAD AND NECK,NORMAL,NORMAL,2.0,C1D1,TREATMENT,2024-01-26,1
VISION-NSCLC,PE,VISION-NSCLC-SITE001-0073,17,MUSCULOS,MUSCULOSKELETAL,NORMAL,NORMAL,2.0,C1D1,TREATMENT,2024-01-26,1
VISION-NSCLC,PE,VISION-NSCLC-SITE001-0073,18,NEUROLOG,NEUROLOGICAL,NORMAL,NORMAL,2.0,C1D1,TREATMENT,2024-01-26,1
VISION-NSCLC,PE,VISION-NSCLC-SITE001-0073,19,RESPIRAT,RESPIRATORY,NORMAL,NORMAL,2.0,C1D1,TREATMENT,2024-01-26,1
VISION-NSCLC,PE,VISION-NSCLC-SITE001-0073,20,SKIN,SKIN,NORMAL,NORMAL,2.0,C1D1,TREATMENT,2024-01-26,1
VISION-NSCLC,PE,VISION-NSCLC-SITE001-0076,1,ABDOMEN,ABDOMEN,NORMAL,NORMAL,1.0,SCREENING,SCREENING,2024-04-09,-23
VISION-NSCLC,PE,VISION-NSCLC-SITE001-0076,2,CARDIOVA,CARDIOVASCULAR,NORMAL,NORMAL,1.0,SCREENING,SCREENING,2024-04-09,-23
VISION-NSCLC,PE,VISION-NSCLC-SITE001-0076,3,EARSNOSE,"EARS, NOSE, AND THROAT",NORMAL,NORMAL,1.0,SCREENING,SCREENING,2024-04-09,-23
VISION-NSCLC,PE,VISION-NSCLC-SITE001-0076,4,EYES,EYES,NORMAL,NORMAL,1.0,SCREENING,SCREENING,2024-04-09,-23
VISION-NSCLC,PE,VISION-NSCLC-SITE001-0076,5,GENERALA,GENERAL APPEARANCE,NORMAL,NORMAL,1.0,SCREENING,SCREENING,2024-04-09,-23
VISION-NSCLC,PE,VISION-NSCLC-SITE001-0076,6,HEADANDN,HEAD AND NECK,NORMAL,NORMAL,1.0,SCREENING,SCREENING,2024-04-09,-23
VISION-NSCLC,PE,VISION-NSCLC-SITE001-0076,7,MUSCULOS,MUSCULOSKELETAL,NORMAL,NORMAL,1.0,SCREENING,SCREENING,2024-04-09,-23
VISION-NSCLC,PE,VISION-NSCLC-SITE001-0076,8,NEUROLOG,NEUROLOGICAL,NORMAL,NORMAL,1.0,SCREENING,SCREENING,2024-04-09,-23
VISION-NSCLC,PE,VISION-NSCLC-SITE001-0076,9,RESPIRAT,RESPIRATORY,NORMAL,NORMAL,1.0,SCREENING,SCREENING,2024-04-09,-23
VISION-NSCLC,PE,VISION-NSCLC-SITE001-0076,10,SKIN,SKIN,NORMAL,NORMAL,1.0,SCREENING,SCREENING,2024-04-09,-23
VISION-NSCLC,PE,VISION-NSCLC-SITE001-0076,11,ABDOMEN,ABDOMEN,NORMAL,NORMAL,2.0,C1D1,TREATMENT,2024-05-02,1
VISION-NSCLC,PE,VISION-NSCLC-SITE001-0076,12,CARDIOVA,CARDIOVASCULAR,NORMAL,NORMAL,2.0,C1D1,TREATMENT,2024-05-02,1
VISION-NSCLC,PE,VISION-NSCLC-SITE001-0076,13,EARSNOSE,"EARS, NOSE, AND THROAT",NORMAL,NORMAL,2.0,C1D1,TREATMENT,2024-05-02,1
VISION-NSCLC,PE,VISION-NSCLC-SITE001-0076,14,EYES,EYES,NORMAL,NORMAL,2.0,C1D1,TREATMENT,2024-05-02,1
VISION-NSCLC,PE,VISION-NSCLC-SITE001-0076,15,GENERALA,GENERAL APPEARANCE,NORMAL,NORMAL,2.0,C1D1,TREATMENT,2024-05-02,1
VISION-NSCLC,PE,VISION-NSCLC-SITE001-0076,16,HEADANDN,HEAD AND NECK,NORMAL,NORMAL,2.0,C1D1,TREATMENT,2024-05-02,1
VISION-NSCLC,PE,VISION-NSCLC-SITE001-0076,17,MUSCULOS,MUSCULOSKELETAL,NORMAL,NORMAL,2.0,C1D1,TREATMENT,2024-05-02,1
VISION-NSCLC,PE,VISION-NSCLC-SITE001-0076,18,NEUROLOG,NEUROLOGICAL,NORMAL,NORMAL,2.0,C1D1,TREATMENT,2024-05-02,1
VISION-NSCLC,PE,VISION-NSCLC-SITE001-0076,19,RESPIRAT,RESPIRATORY,NORMAL,NORMAL,2.0,C1D1,TREATMENT,2024-05-02,1
VISION-NSCLC,PE,VISION-NSCLC-SITE001-0076,20,SKIN,SKIN,NORMAL,NORMAL,2.0,C1D1,TREATMENT,2024-05-02,1
VISION-NSCLC,PE,VISION-NSCLC-SITE001-0079,1,ABDOMEN,ABDOMEN,NORMAL,NORMAL,1.0,SCREENING,SCREENING,2024-02-18,-30
VISION-NSCLC,PE,VISION-NSCLC-SITE001-0079,2,CARDIOVA,CARDIOVASCULAR,NORMAL,NORMAL,1.0,SCREENING,SCREENING,2024-02-18,-30
VISION-NSCLC,PE,VISION-NSCLC-SITE001-0079,3,EARSNOSE,"EARS, NOSE, AND THROAT",NORMAL,NORMAL,1.0,SCREENING,SCREENING,2024-02-18,-30
VISION-NSCLC,PE,VISION-NSCLC-SITE001-0079,4,EYES,EYES,NORMAL,NORMAL,1.0,SCREENING,SCREENING,2024-02-18,-30
VISION-NSCLC,PE,VISION-NSCLC-SITE001-0079,5,GENERALA,GENERAL APPEARANCE,NORMAL,NORMAL,1.0,SCREENING,SCREENING,2024-02-18,-30
VISION-NSCLC,PE,VISION-NSCLC-SITE001-0079,6,HEADANDN,HEAD AND NECK,NORMAL,NORMAL,1.0,SCREENING,SCREENING,2024-02-18,-30
VISION-NSCLC,PE,VISION-NSCLC-SITE001-0079,7,MUSCULOS,MUSCULOSKELETAL,NORMAL,NORMAL,1.0,SCREENING,SCREENING,2024-02-18,-30
VISION-NSCLC,PE,VISION-NSCLC-SITE001-0079,8,NEUROLOG,NEUROLOGICAL,NORMAL,NORMAL,1.0,SCREENING,SCREENING,2024-02-18,-30
VISION-NSCLC,PE,VISION-NSCLC-SITE001-0079,9,RESPIRAT,RESPIRATORY,NORMAL,NORMAL,1.0,SCREENING,SCREENING,2024-02-18,-30
VISION-NSCLC,PE,VISION-NSCLC-SITE001-0079,10,SKIN,SKIN,NORMAL,NORMAL,1.0,SCREENING,SCREENING,2024-02-18,-30
VISION-NSCLC,PE,VISION-NSCLC-SITE001-0079,11,ABDOMEN,ABDOMEN,NORMAL,NORMAL,2.0,C1D1,TREATMENT,2024-03-19,1
VISION-NSCLC,PE,VISION-NSCLC-SITE001-0079,12,CARDIOVA,CARDIOVASCULAR,NORMAL,NORMAL,2.0,C1D1,TREATMENT,2024-03-19,1
VISION-NSCLC,PE,VISION-NSCLC-SITE001-0079,13,EARSNOSE,"EARS, NOSE, AND THROAT",NORMAL,NORMAL,2.0,C1D1,TREATMENT,2024-03-19,1
VISION-NSCLC,PE,VISION-NSCLC-SITE001-0079,14,EYES,EYES,NORMAL,NORMAL,2.0,C1D1,TREATMENT,2024-03-19,1
VISION-NSCLC,PE,VISION-NSCLC-SITE001-0079,15,GENERALA,GENERAL APPEARANCE,NORMAL,NORMAL,2.0,C1D1,TREATMENT,2024-03-19,1
VISION-NSCLC,PE,VISION-NSCLC-SITE001-0079,16,HEADANDN,HEAD AND NECK,NORMAL,NORMAL,2.0,C1D1,TREATMENT,2024-03-19,1
VISION-NSCLC,PE,VISION-NSCLC-SITE001-0079,17,MUSCULOS,MUSCULOSKELETAL,NORMAL,NORMAL,2.0,C1D1,TREATMENT,2024-03-19,1
VISION-NSCLC,PE,VISION-NSCLC-SITE001-0079,18,NEUROLOG,NEUROLOGICAL,NORMAL,NORMAL,2.0,C1D1,TREATMENT,2024-03-19,1
VISION-NSCLC,PE,VISION-NSCLC-SITE001-0079,19,RESPIRAT,RESPIRATORY,NORMAL,NORMAL,2.0,C1D1,TREATMENT,2024-03-19,1
VISION-NSCLC,PE,VISION-NSCLC-SITE001-0079,20,SKIN,SKIN,NORMAL,NORMAL,2.0,C1D1,TREATMENT,2024-03-19,1
VISION-NSCLC,PE,VISION-NSCLC-SITE001-0082,1,ABDOMEN,ABDOMEN,NORMAL,NORMAL,1.0,SCREENING,SCREENING,2024-01-22,-34
VISION-NSCLC,PE,VISION-NSCLC-SITE001-0082,2,CARDIOVA,CARDIOVASCULAR,PERIPHERAL EDEMA,PERIPHERAL EDEMA,1.0,SCREENING,SCREENING,2024-01-22,-34
VISION-NSCLC,PE,VISION-NSCLC-SITE001-0082,3,EARSNOSE,"EARS, NOSE, AND THROAT",NORMAL,NORMAL,1.0,SCREENING,SCREENING,2024-01-22,-34
VISION-NSCLC,PE,VISION-NSCLC-SITE001-0082,4,EYES,EYES,NORMAL,NORMAL,1.0,SCREENING,SCREENING,2024-01-22,-34
VISION-NSCLC,PE,VISION-NSCLC-SITE001-0082,5,GENERALA,GENERAL APPEARANCE,NORMAL,NORMAL,1.0,SCREENING,SCREENING,2024-01-22,-34
VISION-NSCLC,PE,VISION-NSCLC-SITE001-0082,6,HEADANDN,HEAD AND NECK,NORMAL,NORMAL,1.0,SCREENING,SCREENING,2024-01-22,-34
VISION-NSCLC,PE,VISION-NSCLC-SITE001-0082,7,MUSCULOS,MUSCULOSKELETAL,NORMAL,NORMAL,1.0,SCREENING,SCREENING,2024-01-22,-34
VISION-NSCLC,PE,VISION-NSCLC-SITE001-0082,8,NEUROLOG,NEUROLOGICAL,NORMAL,NORMAL,1.0,SCREENING,SCREENING,2024-01-22,-34
VISION-NSCLC,PE,VISION-NSCLC-SITE001-0082,9,RESPIRAT,RESPIRATORY,NORMAL,NORMAL,1.0,SCREENING,SCREENING,2024-01-22,-34
VISION-NSCLC,PE,VISION-NSCLC-SITE001-0082,10,SKIN,SKIN,NORMAL,NORMAL,1.0,SCREENING,SCREENING,2024-01-22,-34
VISION-NSCLC,PE,VISION-NSCLC-SITE001-0082,11,ABDOMEN,ABDOMEN,NORMAL,NORMAL,2.0,C1D1,TREATMENT,2024-02-25,1
VISION-NSCLC,PE,VISION-NSCLC-SITE001-0082,12,CARDIOVA,CARDIOVASCULAR,MURMUR,MURMUR,2.0,C1D1,TREATMENT,2024-02-25,1
VISION-NSCLC,PE,VISION-NSCLC-SITE001-0082,13,EARSNOSE,"EARS, NOSE, AND THROAT",NORMAL,NORMAL,2.0,C1D1,TREATMENT,2024-02-25,1
VISION-NSCLC,PE,VISION-NSCLC-SITE001-0082,14,EYES,EYES,NORMAL,NORMAL,2.0,C1D1,TREATMENT,2024-02-25,1
VISION-NSCLC,PE,VISION-NSCLC-SITE001-0082,15,GENERALA,GENERAL APPEARANCE,NORMAL,NORMAL,2.0,C1D1,TREATMENT,2024-02-25,1
VISION-NSCLC,PE,VISION-NSCLC-SITE001-0082,16,HEADANDN,HEAD AND NECK,NORMAL,NORMAL,2.0,C1D1,TREATMENT,2024-02-25,1
VISION-NSCLC,PE,VISION-NSCLC-SITE001-0082,17,MUSCULOS,MUSCULOSKELETAL,NORMAL,NORMAL,2.0,C1D1,TREATMENT,2024-02-25,1
VISION-NSCLC,PE,VISION-NSCLC-SITE001-0082,18,NEUROLOG,NEUROLOGICAL,NORMAL,NORMAL,2.0,C1D1,TREATMENT,2024-02-25,1
VISION-NSCLC,PE,VISION-NSCLC-SITE001-0082,19,RESPIRAT,RESPIRATORY,NORMAL,NORMAL,2.0,C1D1,TREATMENT,2024-02-25,1
VISION-NSCLC,PE,VISION-NSCLC-SITE001-0082,20,SKIN,SKIN,NORMAL,NORMAL,2.0,C1D1,TREATMENT,2024-02-25,1
VISION-NSCLC,PE,VISION-NSCLC-SITE001-0085,1,ABDOMEN,ABDOMEN,NORMAL,NORMAL,1.0,SCREENING,SCREENING,2024-02-02,-26
VISION-NSCLC,PE,VISION-NSCLC-SITE001-0085,2,CARDIOVA,CARDIOVASCULAR,NORMAL,NORMAL,1.0,SCREENING,SCREENING,2024-02-02,-26
VISION-NSCLC,PE,VISION-NSCLC-SITE001-0085,3,EARSNOSE,"EARS, NOSE, AND THROAT",NORMAL,NORMAL,1.0,SCREENING,SCREENING,2024-02-02,-26
VISION-NSCLC,PE,VISION-NSCLC-SITE001-0085,4,EYES,EYES,NORMAL,NORMAL,1.0,SCREENING,SCREENING,2024-02-02,-26
VISION-NSCLC,PE,VISION-NSCLC-SITE001-0085,5,GENERALA,GENERAL APPEARANCE,NORMAL,NORMAL,1.0,SCREENING,SCREENING,2024-02-02,-26
VISION-NSCLC,PE,VISION-NSCLC-SITE001-0085,6,HEADANDN,HEAD AND NECK,NORMAL,NORMAL,1.0,SCREENING,SCREENING,2024-02-02,-26
VISION-NSCLC,PE,VISION-NSCLC-SITE001-0085,7,MUSCULOS,MUSCULOSKELETAL,NORMAL,NORMAL,1.0,SCREENING,SCREENING,2024-02-02,-26
VISION-NSCLC,PE,VISION-NSCLC-SITE001-0085,8,NEUROLOG,NEUROLOGICAL,NORMAL,NORMAL,1.0,SCREENING,SCREENING,2024-02-02,-26
VISION-NSCLC,PE,VISION-NSCLC-SITE001-0085,9,RESPIRAT,RESPIRATORY,NORMAL,NORMAL,1.0,SCREENING,SCREENING,2024-02-02,-26
VISION-NSCLC,PE,VISION-NSCLC-SITE001-0085,10,SKIN,SKIN,NORMAL,NORMAL,1.0,SCREENING,SCREENING,2024-02-02,-26
VISION-NSCLC,PE,VISION-NSCLC-SITE001-0085,11,ABDOMEN,ABDOMEN,NORMAL,NORMAL,2.0,C1D1,TREATMENT,2024-02-28,1
VISION-NSCLC,PE,VISION-NSCLC-SITE001-0085,12,CARDIOVA,CARDIOVASCULAR,NORMAL,NORMAL,2.0,C1D1,TREATMENT,2024-02-28,1
VISION-NSCLC,PE,VISION-NSCLC-SITE001-0085,13,EARSNOSE,"EARS, NOSE, AND THROAT",NORMAL,NORMAL,2.0,C1D1,TREATMENT,2024-02-28,1
VISION-NSCLC,PE,VISION-NSCLC-SITE001-0085,14,EYES,EYES,NORMAL,NORMAL,2.0,C1D1,TREATMENT,2024-02-28,1
VISION-NSCLC,PE,VISION-NSCLC-SITE001-0085,15,GENERALA,GENERAL APPEARANCE,NORMAL,NORMAL,2.0,C1D1,TREATMENT,2024-02-28,1
VISION-NSCLC,PE,VISION-NSCLC-SITE001-0085,16,HEADANDN,HEAD AND NECK,NORMAL,NORMAL,2.0,C1D1,TREATMENT,2024-02-28,1
VISION-NSCLC,PE,VISION-NSCLC-SITE001-0085,17,MUSCULOS,MUSCULOSKELETAL,NORMAL,NORMAL,2.0,C1D1,TREATMENT,2024-02-28,1
VISION-NSCLC,PE,VISION-NSCLC-SITE001-0085,18,NEUROLOG,NEUROLOGICAL,DECREASED SENSATION,DECREASED SENSATION,2.0,C1D1,TREATMENT,2024-02-28,1
VISION-NSCLC,PE,VISION-NSCLC-SITE001-0085,19,RESPIRAT,RESPIRATORY,NORMAL,NORMAL,2.0,C1D1,TREATMENT,2024-02-28,1
VISION-NSCLC,PE,VISION-NSCLC-SITE001-0085,20,SKIN,SKIN,NORMAL,NORMAL,2.0,C1D1,TREATMENT,2024-02-28,1
VISION-NSCLC,PE,VISION-NSCLC-SITE001-0088,1,ABDOMEN,ABDOMEN,NORMAL,NORMAL,1.0,SCREENING,SCREENING,2024-02-11,-17
VISION-NSCLC,PE,VISION-NSCLC-SITE001-0088,2,CARDIOVA,CARDIOVASCULAR,NORMAL,NORMAL,1.0,SCREENING,SCREENING,2024-02-11,-17
VISION-NSCLC,PE,VISION-NSCLC-SITE001-0088,3,EARSNOSE,"EARS, NOSE, AND THROAT",NORMAL,NORMAL,1.0,SCREENING,SCREENING,2024-02-11,-17
VISION-NSCLC,PE,VISION-NSCLC-SITE001-0088,4,EYES,EYES,NORMAL,NORMAL,1.0,SCREENING,SCREENING,2024-02-11,-17
VISION-NSCLC,PE,VISION-NSCLC-SITE001-0088,5,GENERALA,GENERAL APPEARANCE,NORMAL,NORMAL,1.0,SCREENING,SCREENING,2024-02-11,-17
VISION-NSCLC,PE,VISION-NSCLC-SITE001-0088,6,HEADANDN,HEAD AND NECK,NORMAL,NORMAL,1.0,SCREENING,SCREENING,2024-02-11,-17
VISION-NSCLC,PE,VISION-NSCLC-SITE001-0088,7,MUSCULOS,MUSCULOSKELETAL,NORMAL,NORMAL,1.0,SCREENING,SCREENING,2024-02-11,-17
VISION-NSCLC,PE,VISION-NSCLC-SITE001-0088,8,NEUROLOG,NEUROLOGICAL,NORMAL,NORMAL,1.0,SCREENING,SCREENING,2024-02-11,-17
VISION-NSCLC,PE,VISION-NSCLC-SITE001-0088,9,RESPIRAT,RESPIRATORY,NORMAL,NORMAL,1.0,SCREENING,SCREENING,2024-02-11,-17
VISION-NSCLC,PE,VISION-NSCLC-SITE001-0088,10,SKIN,SKIN,NORMAL,NORMAL,1.0,SCREENING,SCREENING,2024-02-11,-17
VISION-NSCLC,PE,VISION-NSCLC-SITE001-0088,11,ABDOMEN,ABDOMEN,NORMAL,NORMAL,2.0,C1D1,TREATMENT,2024-02-28,1
VISION-NSCLC,PE,VISION-NSCLC-SITE001-0088,12,CARDIOVA,CARDIOVASCULAR,NORMAL,NORMAL,2.0,C1D1,TREATMENT,2024-02-28,1
VISION-NSCLC,PE,VISION-NSCLC-SITE001-0088,13,EARSNOSE,"EARS, NOSE, AND THROAT",NORMAL,NORMAL,2.0,C1D1,TREATMENT,2024-02-28,1
VISION-NSCLC,PE,VISION-NSCLC-SITE001-0088,14,EYES,EYES,NORMAL,NORMAL,2.0,C1D1,TREATMENT,2024-02-28,1
VISION-NSCLC,PE,VISION-NSCLC-SITE001-0088,15,GENERALA,GENERAL APPEARANCE,NORMAL,NORMAL,2.0,C1D1,TREATMENT,2024-02-28,1
VISION-NSCLC,PE,VISION-NSCLC-SITE001-0088,16,HEADANDN,HEAD AND NECK,NORMAL,NORMAL,2.0,C1D1,TREATMENT,2024-02-28,1
VISION-NSCLC,PE,VISION-NSCLC-SITE001-0088,17,MUSCULOS,MUSCULOSKELETAL,NORMAL,NORMAL,2.0,C1D1,TREATMENT,2024-02-28,1
VISION-NSCLC,PE,VISION-NSCLC-SITE001-0088,18,NEUROLOG,NEUROLOGICAL,NORMAL,NORMAL,2.0,C1D1,TREATMENT,2024-02-28,1
VISION-NSCLC,PE,VISION-NSCLC-SITE001-0088,19,RESPIRAT,RESPIRATORY,NORMAL,NORMAL,2.0,C1D1,TREATMENT,2024-02-28,1
VISION-NSCLC,PE,VISION-NSCLC-SITE001-0088,20,SKIN,SKIN,NORMAL,NORMAL,2.0,C1D1,TREATMENT,2024-02-28,1
VISION-NSCLC,PE,VISION-NSCLC-SITE001-0091,1,ABDOMEN,ABDOMEN,NORMAL,NORMAL,1.0,SCREENING,SCREENING,2024-02-28,-19
VISION-NSCLC,PE,VISION-NSCLC-SITE001-0091,2,CARDIOVA,CARDIOVASCULAR,NORMAL,NORMAL,1.0,SCREENING,SCREENING,2024-02-28,-19
VISION-NSCLC,PE,VISION-NSCLC-SITE001-0091,3,EARSNOSE,"EARS, NOSE, AND THROAT",NORMAL,NORMAL,1.0,SCREENING,SCREENING,2024-02-28,-19
VISION-NSCLC,PE,VISION-NSCLC-SITE001-0091,4,EYES,EYES,NORMAL,NORMAL,1.0,SCREENING,SCREENING,2024-02-28,-19
VISION-NSCLC,PE,VISION-NSCLC-SITE001-0091,5,GENERALA,GENERAL APPEARANCE,NORMAL,NORMAL,1.0,SCREENING,SCREENING,2024-02-28,-19
VISION-NSCLC,PE,VISION-NSCLC-SITE001-0091,6,HEADANDN,HEAD AND NECK,NORMAL,NORMAL,1.0,SCREENING,SCREENING,2024-02-28,-19
VISION-NSCLC,PE,VISION-NSCLC-SITE001-0091,7,MUSCULOS,MUSCULOSKELETAL,NORMAL,NORMAL,1.0,SCREENING,SCREENING,2024-02-28,-19
VISION-NSCLC,PE,VISION-NSCLC-SITE001-0091,8,NEUROLOG,NEUROLOGICAL,NORMAL,NORMAL,1.0,SCREENING,SCREENING,2024-02-28,-19
VISION-NSCLC,PE,VISION-NSCLC-SITE001-0091,9,RESPIRAT,RESPIRATORY,NORMAL,NORMAL,1.0,SCREENING,SCREENING,2024-02-28,-19
VISION-NSCLC,PE,VISION-NSCLC-SITE001-0091,10,SKIN,SKIN,NORMAL,NORMAL,1.0,SCREENING,SCREENING,2024-02-28,-19
VISION-NSCLC,PE,VISION-NSCLC-SITE001-0091,11,ABDOMEN,ABDOMEN,NORMAL,NORMAL,2.0,C1D1,TREATMENT,2024-03-18,1
VISION-NSCLC,PE,VISION-NSCLC-SITE001-0091,12,CARDIOVA,CARDIOVASCULAR,NORMAL,NORMAL,2.0,C1D1,TREATMENT,2024-03-18,1
VISION-NSCLC,PE,VISION-NSCLC-SITE001-0091,13,EARSNOSE,"EARS, NOSE, AND THROAT",NORMAL,NORMAL,2.0,C1D1,TREATMENT,2024-03-18,1
VISION-NSCLC,PE,VISION-NSCLC-SITE001-0091,14,EYES,EYES,NORMAL,NORMAL,2.0,C1D1,TREATMENT,2024-03-18,1
VISION-NSCLC,PE,VISION-NSCLC-SITE001-0091,15,GENERALA,GENERAL APPEARANCE,NORMAL,NORMAL,2.0,C1D1,TREATMENT,2024-03-18,1
VISION-NSCLC,PE,VISION-NSCLC-SITE001-0091,16,HEADANDN,HEAD AND NECK,NORMAL,NORMAL,2.0,C1D1,TREATMENT,2024-03-18,1
VISION-NSCLC,PE,VISION-NSCLC-SITE001-0091,17,MUSCULOS,MUSCULOSKELETAL,NORMAL,NORMAL,2.0,C1D1,TREATMENT,2024-03-18,1
VISION-NSCLC,PE,VISION-NSCLC-SITE001-0091,18,NEUROLOG,NEUROLOGICAL,NORMAL,NORMAL,2.0,C1D1,TREATMENT,2024-03-18,1
VISION-NSCLC,PE,VISION-NSCLC-SITE001-0091,19,RESPIRAT,RESPIRATORY,NORMAL,NORMAL,2.0,C1D1,TREATMENT,2024-03-18,1
VISION-NSCLC,PE,VISION-NSCLC-SITE001-0091,20,SKIN,SKIN,NORMAL,NORMAL,2.0,C1D1,TREATMENT,2024-03-18,1
VISION-NSCLC,PE,VISION-NSCLC-SITE001-0094,1,ABDOMEN,ABDOMEN,NORMAL,NORMAL,1.0,SCREENING,SCREENING,2024-03-09,-29
VISION-NSCLC,PE,VISION-NSCLC-SITE001-0094,2,CARDIOVA,CARDIOVASCULAR,NORMAL,NORMAL,1.0,SCREENING,SCREENING,2024-03-09,-29
VISION-NSCLC,PE,VISION-NSCLC-SITE001-0094,3,EARSNOSE,"EARS, NOSE, AND THROAT",NORMAL,NORMAL,1.0,SCREENING,SCREENING,2024-03-09,-29
VISION-NSCLC,PE,VISION-NSCLC-SITE001-0094,4,EYES,EYES,NORMAL,NORMAL,1.0,SCREENING,SCREENING,2024-03-09,-29
VISION-NSCLC,PE,VISION-NSCLC-SITE001-0094,5,GENERALA,GENERAL APPEARANCE,NORMAL,NORMAL,1.0,SCREENING,SCREENING,2024-03-09,-29
VISION-NSCLC,PE,VISION-NSCLC-SITE001-0094,6,HEADANDN,HEAD AND NECK,NORMAL,NORMAL,1.0,SCREENING,SCREENING,2024-03-09,-29
VISION-NSCLC,PE,VISION-NSCLC-SITE001-0094,7,MUSCULOS,MUSCULOSKELETAL,NORMAL,NORMAL,1.0,SCREENING,SCREENING,2024-03-09,-29
VISION-NSCLC,PE,VISION-NSCLC-SITE001-0094,8,NEUROLOG,NEUROLOGICAL,NORMAL,NORMAL,1.0,SCREENING,SCREENING,2024-03-09,-29
VISION-NSCLC,PE,VISION-NSCLC-SITE001-0094,9,RESPIRAT,RESPIRATORY,NORMAL,NORMAL,1.0,SCREENING,SCREENING,2024-03-09,-29
VISION-NSCLC,PE,VISION-NSCLC-SITE001-0094,10,SKIN,SKIN,NORMAL,NORMAL,1.0,SCREENING,SCREENING,2024-03-09,-29
VISION-NSCLC,PE,VISION-NSCLC-SITE001-0094,11,ABDOMEN,ABDOMEN,NORMAL,NORMAL,2.0,C1D1,TREATMENT,2024-04-07,1
VISION-NSCLC,PE,VISION-NSCLC-SITE001-0094,12,CARDIOVA,CARDIOVASCULAR,NORMAL,NORMAL,2.0,C1D1,TREATMENT,2024-04-07,1
VISION-NSCLC,PE,VISION-NSCLC-SITE001-0094,13,EARSNOSE,"EARS, NOSE, AND THROAT",NORMAL,NORMAL,2.0,C1D1,TREATMENT,2024-04-07,1
VISION-NSCLC,PE,VISION-NSCLC-SITE001-0094,14,EYES,EYES,NORMAL,NORMAL,2.0,C1D1,TREATMENT,2024-04-07,1
VISION-NSCLC,PE,VISION-NSCLC-SITE001-0094,15,GENERALA,GENERAL APPEARANCE,NORMAL,NORMAL,2.0,C1D1,TREATMENT,2024-04-07,1
VISION-NSCLC,PE,VISION-NSCLC-SITE001-0094,16,HEADANDN,HEAD AND NECK,NORMAL,NORMAL,2.0,C1D1,TREATMENT,2024-04-07,1
VISION-NSCLC,PE,VISION-NSCLC-SITE001-0094,17,MUSCULOS,MUSCULOSKELETAL,NORMAL,NORMAL,2.0,C1D1,TREATMENT,2024-04-07,1
VISION-NSCLC,PE,VISION-NSCLC-SITE001-0094,18,NEUROLOG,NEUROLOGICAL,NORMAL,NORMAL,2.0,C1D1,TREATMENT,2024-04-07,1
VISION-NSCLC,PE,VISION-NSCLC-SITE001-0094,19,RESPIRAT,RESPIRATORY,NORMAL,NORMAL,2.0,C1D1,TREATMENT,2024-04-07,1
VISION-NSCLC,PE,VISION-NSCLC-SITE001-0094,20,SKIN,SKIN,NORMAL,NORMAL,2.0,C1D1,TREATMENT,2024-04-07,1
VISION-NSCLC,PE,VISION-NSCLC-SITE001-0097,1,ABDOMEN,ABDOMEN,NORMAL,NORMAL,1.0,SCREENING,SCREENING,2024-02-12,-12
VISION-NSCLC,PE,VISION-NSCLC-SITE001-0097,2,CARDIOVA,CARDIOVASCULAR,NORMAL,NORMAL,1.0,SCREENING,SCREENING,2024-02-12,-12
VISION-NSCLC,PE,VISION-NSCLC-SITE001-0097,3,EARSNOSE,"EARS, NOSE, AND THROAT",NORMAL,NORMAL,1.0,SCREENING,SCREENING,2024-02-12,-12
VISION-NSCLC,PE,VISION-NSCLC-SITE001-0097,4,EYES,EYES,NORMAL,NORMAL,1.0,SCREENING,SCREENING,2024-02-12,-12
VISION-NSCLC,PE,VISION-NSCLC-SITE001-0097,5,GENERALA,GENERAL APPEARANCE,NORMAL,NORMAL,1.0,SCREENING,SCREENING,2024-02-12,-12
VISION-NSCLC,PE,VISION-NSCLC-SITE001-0097,6,HEADANDN,HEAD AND NECK,NORMAL,NORMAL,1.0,SCREENING,SCREENING,2024-02-12,-12
VISION-NSCLC,PE,VISION-NSCLC-SITE001-0097,7,MUSCULOS,MUSCULOSKELETAL,NORMAL,NORMAL,1.0,SCREENING,SCREENING,2024-02-12,-12
VISION-NSCLC,PE,VISION-NSCLC-SITE001-0097,8,NEUROLOG,NEUROLOGICAL,NORMAL,NORMAL,1.0,SCREENING,SCREENING,2024-02-12,-12
VISION-NSCLC,PE,VISION-NSCLC-SITE001-0097,9,RESPIRAT,RESPIRATORY,NORMAL,NORMAL,1.0,SCREENING,SCREENING,2024-02-12,-12
VISION-NSCLC,PE,VISION-NSCLC-SITE001-0097,10,SKIN,SKIN,NORMAL,NORMAL,1.0,SCREENING,SCREENING,2024-02-12,-12
VISION-NSCLC,PE,VISION-NSCLC-SITE001-0097,11,ABDOMEN,ABDOMEN,NORMAL,NORMAL,2.0,C1D1,TREATMENT,2024-02-24,1
VISION-NSCLC,PE,VISION-NSCLC-SITE001-0097,12,CARDIOVA,CARDIOVASCULAR,NORMAL,NORMAL,2.0,C1D1,TREATMENT,2024-02-24,1
VISION-NSCLC,PE,VISION-NSCLC-SITE001-0097,13,EARSNOSE,"EARS, NOSE, AND THROAT",NORMAL,NORMAL,2.0,C1D1,TREATMENT,2024-02-24,1
VISION-NSCLC,PE,VISION-NSCLC-SITE001-0097,14,EYES,EYES,NORMAL,NORMAL,2.0,C1D1,TREATMENT,2024-02-24,1
VISION-NSCLC,PE,VISION-NSCLC-SITE001-0097,15,GENERALA,GENERAL APPEARANCE,NORMAL,NORMAL,2.0,C1D1,TREATMENT,2024-02-24,1
VISION-NSCLC,PE,VISION-NSCLC-SITE001-0097,16,HEADANDN,HEAD AND NECK,NORMAL,NORMAL,2.0,C1D1,TREATMENT,2024-02-24,1
VISION-NSCLC,PE,VISION-NSCLC-SITE001-0097,17,MUSCULOS,MUSCULOSKELETAL,NORMAL,NORMAL,2.0,C1D1,TREATMENT,2024-02-24,1
VISION-NSCLC,PE,VISION-NSCLC-SITE001-0097,18,NEUROLOG,NEUROLOGICAL,NORMAL,NORMAL,2.0,C1D1,TREATMENT,2024-02-24,1
VISION-NSCLC,PE,VISION-NSCLC-SITE001-0097,19,RESPIRAT,RESPIRATORY,NORMAL,NORMAL,2.0,C1D1,TREATMENT,2024-02-24,1
VISION-NSCLC,PE,VISION-NSCLC-SITE001-0097,20,SKIN,SKIN,NORMAL,NORMAL,2.0,C1D1,TREATMENT,2024-02-24,1
VISION-NSCLC,PE,VISION-NSCLC-SITE001-0100,1,ABDOMEN,ABDOMEN,NORMAL,NORMAL,1.0,SCREENING,SCREENING,2024-04-13,-21
VISION-NSCLC,PE,VISION-NSCLC-SITE001-0100,2,CARDIOVA,CARDIOVASCULAR,NORMAL,NORMAL,1.0,SCREENING,SCREENING,2024-04-13,-21
VISION-NSCLC,PE,VISION-NSCLC-SITE001-0100,3,EARSNOSE,"EARS, NOSE, AND THROAT",NORMAL,NORMAL,1.0,SCREENING,SCREENING,2024-04-13,-21
VISION-NSCLC,PE,VISION-NSCLC-SITE001-0100,4,EYES,EYES,NORMAL,NORMAL,1.0,SCREENING,SCREENING,2024-04-13,-21
VISION-NSCLC,PE,VISION-NSCLC-SITE001-0100,5,GENERALA,GENERAL APPEARANCE,NORMAL,NORMAL,1.0,SCREENING,SCREENING,2024-04-13,-21
VISION-NSCLC,PE,VISION-NSCLC-SITE001-0100,6,HEADANDN,HEAD AND NECK,NORMAL,NORMAL,1.0,SCREENING,SCREENING,2024-04-13,-21
VISION-NSCLC,PE,VISION-NSCLC-SITE001-0100,7,MUSCULOS,MUSCULOSKELETAL,NORMAL,NORMAL,1.0,SCREENING,SCREENING,2024-04-13,-21
VISION-NSCLC,PE,VISION-NSCLC-SITE001-0100,8,NEUROLOG,NEUROLOGICAL,NORMAL,NORMAL,1.0,SCREENING,SCREENING,2024-04-13,-21
VISION-NSCLC,PE,VISION-NSCLC-SITE001-0100,9,RESPIRAT,RESPIRATORY,NORMAL,NORMAL,1.0,SCREENING,SCREENING,2024-04-13,-21
VISION-NSCLC,PE,VISION-NSCLC-SITE001-0100,10,SKIN,SKIN,NORMAL,NORMAL,1.0,SCREENING,SCREENING,2024-04-13,-21
VISION-NSCLC,PE,VISION-NSCLC-SITE001-0100,11,ABDOMEN,ABDOMEN,NORMAL,NORMAL,2.0,C1D1,TREATMENT,2024-05-04,1
VISION-NSCLC,PE,VISION-NSCLC-SITE001-0100,12,CARDIOVA,CARDIOVASCULAR,NORMAL,NORMAL,2.0,C1D1,TREATMENT,2024-05-04,1
VISION-NSCLC,PE,VISION-NSCLC-SITE001-0100,13,EARSNOSE,"EARS, NOSE, AND THROAT",NORMAL,NORMAL,2.0,C1D1,TREATMENT,2024-05-04,1
VISION-NSCLC,PE,VISION-NSCLC-SITE001-0100,14,EYES,EYES,NORMAL,NORMAL,2.0,C1D1,TREATMENT,2024-05-04,1
VISION-NSCLC,PE,VISION-NSCLC-SITE001-0100,15,GENERALA,GENERAL APPEARANCE,NORMAL,NORMAL,2.0,C1D1,TREATMENT,2024-05-04,1
VISION-NSCLC,PE,VISION-NSCLC-SITE001-0100,16,HEADANDN,HEAD AND NECK,NORMAL,NORMAL,2.0,C1D1,TREATMENT,2024-05-04,1
VISION-NSCLC,PE,VISION-NSCLC-SITE001-0100,17,MUSCULOS,MUSCULOSKELETAL,NORMAL,NORMAL,2.0,C1D1,TREATMENT,2024-05-04,1
VISION-NSCLC,PE,VISION-NSCLC-SITE001-0100,18,NEUROLOG,NEUROLOGICAL,NORMAL,NORMAL,2.0,C1D1,TREATMENT,2024-05-04,1
VISION-NSCLC,PE,VISION-NSCLC-SITE001-0100,19,RESPIRAT,RESPIRATORY,NORMAL,NORMAL,2.0,C1D1,TREATMENT,2024-05-04,1
VISION-NSCLC,PE,VISION-NSCLC-SITE001-0100,20,SKIN,SKIN,NORMAL,NORMAL,2.0,C1D1,TREATMENT,2024-05-04,1
VISION-NSCLC,PE,VISION-NSCLC-SITE001-0103,1,ABDOMEN,ABDOMEN,TENDERNESS,TENDERNESS,1.0,SCREENING,SCREENING,2024-04-07,-17
VISION-NSCLC,PE,VISION-NSCLC-SITE001-0103,2,CARDIOVA,CARDIOVASCULAR,NORMAL,NORMAL,1.0,SCREENING,SCREENING,2024-04-07,-17
VISION-NSCLC,PE,VISION-NSCLC-SITE001-0103,3,EARSNOSE,"EARS, NOSE, AND THROAT",NORMAL,NORMAL,1.0,SCREENING,SCREENING,2024-04-07,-17
VISION-NSCLC,PE,VISION-NSCLC-SITE001-0103,4,EYES,EYES,NORMAL,NORMAL,1.0,SCREENING,SCREENING,2024-04-07,-17
VISION-NSCLC,PE,VISION-NSCLC-SITE001-0103,5,GENERALA,GENERAL APPEARANCE,NORMAL,NORMAL,1.0,SCREENING,SCREENING,2024-04-07,-17
VISION-NSCLC,PE,VISION-NSCLC-SITE001-0103,6,HEADANDN,HEAD AND NECK,NORMAL,NORMAL,1.0,SCREENING,SCREENING,2024-04-07,-17
VISION-NSCLC,PE,VISION-NSCLC-SITE001-0103,7,MUSCULOS,MUSCULOSKELETAL,NORMAL,NORMAL,1.0,SCREENING,SCREENING,2024-04-07,-17
VISION-NSCLC,PE,VISION-NSCLC-SITE001-0103,8,NEUROLOG,NEUROLOGICAL,NORMAL,NORMAL,1.0,SCREENING,SCREENING,2024-04-07,-17
VISION-NSCLC,PE,VISION-NSCLC-SITE001-0103,9,RESPIRAT,RESPIRATORY,NORMAL,NORMAL,1.0,SCREENING,SCREENING,2024-04-07,-17
VISION-NSCLC,PE,VISION-NSCLC-SITE001-0103,10,SKIN,SKIN,NORMAL,NORMAL,1.0,SCREENING,SCREENING,2024-04-07,-17
VISION-NSCLC,PE,VISION-NSCLC-SITE001-0103,11,ABDOMEN,ABDOMEN,NORMAL,NORMAL,2.0,C1D1,TREATMENT,2024-04-24,1
VISION-NSCLC,PE,VISION-NSCLC-SITE001-0103,12,CARDIOVA,CARDIOVASCULAR,NORMAL,NORMAL,2.0,C1D1,TREATMENT,2024-04-24,1
VISION-NSCLC,PE,VISION-NSCLC-SITE001-0103,13,EARSNOSE,"EARS, NOSE, AND THROAT",NORMAL,NORMAL,2.0,C1D1,TREATMENT,2024-04-24,1
VISION-NSCLC,PE,VISION-NSCLC-SITE001-0103,14,EYES,EYES,NORMAL,NORMAL,2.0,C1D1,TREATMENT,2024-04-24,1
VISION-NSCLC,PE,VISION-NSCLC-SITE001-0103,15,GENERALA,GENERAL APPEARANCE,NORMAL,NORMAL,2.0,C1D1,TREATMENT,2024-04-24,1
VISION-NSCLC,PE,VISION-NSCLC-SITE001-0103,16,HEADANDN,HEAD AND NECK,NORMAL,NORMAL,2.0,C1D1,TREATMENT,2024-04-24,1
VISION-NSCLC,PE,VISION-NSCLC-SITE001-0103,17,MUSCULOS,MUSCULOSKELETAL,NORMAL,NORMAL,2.0,C1D1,TREATMENT,2024-04-24,1
VISION-NSCLC,PE,VISION-NSCLC-SITE001-0103,18,NEUROLOG,NEUROLOGICAL,NORMAL,NORMAL,2.0,C1D1,TREATMENT,2024-04-24,1
VISION-NSCLC,PE,VISION-NSCLC-SITE001-0103,19,RESPIRAT,RESPIRATORY,NORMAL,NORMAL,2.0,C1D1,TREATMENT,2024-04-24,1
VISION-NSCLC,PE,VISION-NSCLC-SITE001-0103,20,SKIN,SKIN,NORMAL,NORMAL,2.0,C1D1,TREATMENT,2024-04-24,1
VISION-NSCLC,PE,VISION-NSCLC-SITE001-0106,1,ABDOMEN,ABDOMEN,NORMAL,NORMAL,1.0,SCREENING,SCREENING,2024-04-02,-17
VISION-NSCLC,PE,VISION-NSCLC-SITE001-0106,2,CARDIOVA,CARDIOVASCULAR,NORMAL,NORMAL,1.0,SCREENING,SCREENING,2024-04-02,-17
VISION-NSCLC,PE,VISION-NSCLC-SITE001-0106,3,EARSNOSE,"EARS, NOSE, AND THROAT",NORMAL,NORMAL,1.0,SCREENING,SCREENING,2024-04-02,-17
VISION-NSCLC,PE,VISION-NSCLC-SITE001-0106,4,EYES,EYES,NORMAL,NORMAL,1.0,SCREENING,SCREENING,2024-04-02,-17
VISION-NSCLC,PE,VISION-NSCLC-SITE001-0106,5,GENERALA,GENERAL APPEARANCE,NORMAL,NORMAL,1.0,SCREENING,SCREENING,2024-04-02,-17
VISION-NSCLC,PE,VISION-NSCLC-SITE001-0106,6,HEADANDN,HEAD AND NECK,NORMAL,NORMAL,1.0,SCREENING,SCREENING,2024-04-02,-17
VISION-NSCLC,PE,VISION-NSCLC-SITE001-0106,7,MUSCULOS,MUSCULOSKELETAL,NORMAL,NORMAL,1.0,SCREENING,SCREENING,2024-04-02,-17
VISION-NSCLC,PE,VISION-NSCLC-SITE001-0106,8,NEUROLOG,NEUROLOGICAL,NORMAL,NORMAL,1.0,SCREENING,SCREENING,2024-04-02,-17
VISION-NSCLC,PE,VISION-NSCLC-SITE001-0106,9,RESPIRAT,RESPIRATORY,NORMAL,NORMAL,1.0,SCREENING,SCREENING,2024-04-02,-17
VISION-NSCLC,PE,VISION-NSCLC-SITE001-0106,10,SKIN,SKIN,NORMAL,NORMAL,1.0,SCREENING,SCREENING,2024-04-02,-17
VISION-NSCLC,PE,VISION-NSCLC-SITE001-0106,11,ABDOMEN,ABDOMEN,NORMAL,NORMAL,2.0,C1D1,TREATMENT,2024-04-19,1
VISION-NSCLC,PE,VISION-NSCLC-SITE001-0106,12,CARDIOVA,CARDIOVASCULAR,NORMAL,NORMAL,2.0,C1D1,TREATMENT,2024-04-19,1
VISION-NSCLC,PE,VISION-NSCLC-SITE001-0106,13,EARSNOSE,"EARS, NOSE, AND THROAT",NORMAL,NORMAL,2.0,C1D1,TREATMENT,2024-04-19,1
VISION-NSCLC,PE,VISION-NSCLC-SITE001-0106,14,EYES,EYES,NORMAL,NORMAL,2.0,C1D1,TREATMENT,2024-04-19,1
VISION-NSCLC,PE,VISION-NSCLC-SITE001-0106,15,GENERALA,GENERAL APPEARANCE,NORMAL,NORMAL,2.0,C1D1,TREATMENT,2024-04-19,1
VISION-NSCLC,PE,VISION-NSCLC-SITE001-0106,16,HEADANDN,HEAD AND NECK,NORMAL,NORMAL,2.0,C1D1,TREATMENT,2024-04-19,1
VISION-NSCLC,PE,VISION-NSCLC-SITE001-0106,17,MUSCULOS,MUSCULOSKELETAL,NORMAL,NORMAL,2.0,C1D1,TREATMENT,2024-04-19,1
VISION-NSCLC,PE,VISION-NSCLC-SITE001-0106,18,NEUROLOG,NEUROLOGICAL,NORMAL,NORMAL,2.0,C1D1,TREATMENT,2024-04-19,1
VISION-NSCLC,PE,VISION-NSCLC-SITE001-0106,19,RESPIRAT,RESPIRATORY,NORMAL,NORMAL,2.0,C1D1,TREATMENT,2024-04-19,1
VISION-NSCLC,PE,VISION-NSCLC-SITE001-0106,20,SKIN,SKIN,NORMAL,NORMAL,2.0,C1D1,TREATMENT,2024-04-19,1
VISION-NSCLC,PE,VISION-NSCLC-SITE001-0109,1,ABDOMEN,ABDOMEN,NORMAL,NORMAL,1.0,SCREENING,SCREENING,2024-01-26,-25
VISION-NSCLC,PE,VISION-NSCLC-SITE001-0109,2,CARDIOVA,CARDIOVASCULAR,NORMAL,NORMAL,1.0,SCREENING,SCREENING,2024-01-26,-25
VISION-NSCLC,PE,VISION-NSCLC-SITE001-0109,3,EARSNOSE,"EARS, NOSE, AND THROAT",NORMAL,NORMAL,1.0,SCREENING,SCREENING,2024-01-26,-25
VISION-NSCLC,PE,VISION-NSCLC-SITE001-0109,4,EYES,EYES,NORMAL,NORMAL,1.0,SCREENING,SCREENING,2024-01-26,-25
VISION-NSCLC,PE,VISION-NSCLC-SITE001-0109,5,GENERALA,GENERAL APPEARANCE,NORMAL,NORMAL,1.0,SCREENING,SCREENING,2024-01-26,-25
VISION-NSCLC,PE,VISION-NSCLC-SITE001-0109,6,HEADANDN,HEAD AND NECK,LYMPHADENOPATHY,LYMPHADENOPATHY,1.0,SCREENING,SCREENING,2024-01-26,-25
VISION-NSCLC,PE,VISION-NSCLC-SITE001-0109,7,MUSCULOS,MUSCULOSKELETAL,NORMAL,NORMAL,1.0,SCREENING,SCREENING,2024-01-26,-25
VISION-NSCLC,PE,VISION-NSCLC-SITE001-0109,8,NEUROLOG,NEUROLOGICAL,NORMAL,NORMAL,1.0,SCREENING,SCREENING,2024-01-26,-25
VISION-NSCLC,PE,VISION-NSCLC-SITE001-0109,9,RESPIRAT,RESPIRATORY,NORMAL,NORMAL,1.0,SCREENING,SCREENING,2024-01-26,-25
VISION-NSCLC,PE,VISION-NSCLC-SITE001-0109,10,SKIN,SKIN,NORMAL,NORMAL,1.0,SCREENING,SCREENING,2024-01-26,-25
VISION-NSCLC,PE,VISION-NSCLC-SITE001-0109,11,ABDOMEN,ABDOMEN,NORMAL,NORMAL,2.0,C1D1,TREATMENT,2024-02-20,1
VISION-NSCLC,PE,VISION-NSCLC-SITE001-0109,12,CARDIOVA,CARDIOVASCULAR,NORMAL,NORMAL,2.0,C1D1,TREATMENT,2024-02-20,1
VISION-NSCLC,PE,VISION-NSCLC-SITE001-0109,13,EARSNOSE,"EARS, NOSE, AND THROAT",NORMAL,NORMAL,2.0,C1D1,TREATMENT,2024-02-20,1
VISION-NSCLC,PE,VISION-NSCLC-SITE001-0109,14,EYES,EYES,NORMAL,NORMAL,2.0,C1D1,TREATMENT,2024-02-20,1
VISION-NSCLC,PE,VISION-NSCLC-SITE001-0109,15,GENERALA,GENERAL APPEARANCE,NORMAL,NORMAL,2.0,C1D1,TREATMENT,2024-02-20,1
VISION-NSCLC,PE,VISION-NSCLC-SITE001-0109,16,HEADANDN,HEAD AND NECK,NORMAL,NORMAL,2.0,C1D1,TREATMENT,2024-02-20,1
VISION-NSCLC,PE,VISION-NSCLC-SITE001-0109,17,MUSCULOS,MUSCULOSKELETAL,NORMAL,NORMAL,2.0,C1D1,TREATMENT,2024-02-20,1
VISION-NSCLC,PE,VISION-NSCLC-SITE001-0109,18,NEUROLOG,NEUROLOGICAL,NORMAL,NORMAL,2.0,C1D1,TREATMENT,2024-02-20,1
VISION-NSCLC,PE,VISION-NSCLC-SITE001-0109,19,RESPIRAT,RESPIRATORY,NORMAL,NORMAL,2.0,C1D1,TREATMENT,2024-02-20,1
VISION-NSCLC,PE,VISION-NSCLC-SITE001-0109,20,SKIN,SKIN,NORMAL,NORMAL,2.0,C1D1,TREATMENT,2024-02-20,1
VISION-NSCLC,PE,VISION-NSCLC-SITE001-0112,1,ABDOMEN,ABDOMEN,NORMAL,NORMAL,1.0,SCREENING,SCREENING,2024-04-05,-28
VISION-NSCLC,PE,VISION-NSCLC-SITE001-0112,2,CARDIOVA,CARDIOVASCULAR,NORMAL,NORMAL,1.0,SCREENING,SCREENING,2024-04-05,-28
VISION-NSCLC,PE,VISION-NSCLC-SITE001-0112,3,EARSNOSE,"EARS, NOSE, AND THROAT",NORMAL,NORMAL,1.0,SCREENING,SCREENING,2024-04-05,-28
VISION-NSCLC,PE,VISION-NSCLC-SITE001-0112,4,EYES,EYES,NORMAL,NORMAL,1.0,SCREENING,SCREENING,2024-04-05,-28
VISION-NSCLC,PE,VISION-NSCLC-SITE001-0112,5,GENERALA,GENERAL APPEARANCE,NORMAL,NORMAL,1.0,SCREENING,SCREENING,2024-04-05,-28
VISION-NSCLC,PE,VISION-NSCLC-SITE001-0112,6,HEADANDN,HEAD AND NECK,NORMAL,NORMAL,1.0,SCREENING,SCREENING,2024-04-05,-28
VISION-NSCLC,PE,VISION-NSCLC-SITE001-0112,7,MUSCULOS,MUSCULOSKELETAL,NORMAL,NORMAL,1.0,SCREENING,SCREENING,2024-04-05,-28
VISION-NSCLC,PE,VISION-NSCLC-SITE001-0112,8,NEUROLOG,NEUROLOGICAL,NORMAL,NORMAL,1.0,SCREENING,SCREENING,2024-04-05,-28
VISION-NSCLC,PE,VISION-NSCLC-SITE001-0112,9,RESPIRAT,RESPIRATORY,NORMAL,NORMAL,1.0,SCREENING,SCREENING,2024-04-05,-28
VISION-NSCLC,PE,VISION-NSCLC-SITE001-0112,10,SKIN,SKIN,NORMAL,NORMAL,1.0,SCREENING,SCREENING,2024-04-05,-28
VISION-NSCLC,PE,VISION-NSCLC-SITE001-0112,11,ABDOMEN,ABDOMEN,NORMAL,NORMAL,2.0,C1D1,TREATMENT,2024-05-03,1
VISION-NSCLC,PE,VISION-NSCLC-SITE001-0112,12,CARDIOVA,CARDIOVASCULAR,NORMAL,NORMAL,2.0,C1D1,TREATMENT,2024-05-03,1
VISION-NSCLC,PE,VISION-NSCLC-SITE001-0112,13,EARSNOSE,"EARS, NOSE, AND THROAT",NORMAL,NORMAL,2.0,C1D1,TREATMENT,2024-05-03,1
VISION-NSCLC,PE,VISION-NSCLC-SITE001-0112,14,EYES,EYES,NORMAL,NORMAL,2.0,C1D1,TREATMENT,2024-05-03,1
VISION-NSCLC,PE,VISION-NSCLC-SITE001-0112,15,GENERALA,GENERAL APPEARANCE,NORMAL,NORMAL,2.0,C1D1,TREATMENT,2024-05-03,1
VISION-NSCLC,PE,VISION-NSCLC-SITE001-0112,16,HEADANDN,HEAD AND NECK,NORMAL,NORMAL,2.0,C1D1,TREATMENT,2024-05-03,1
VISION-NSCLC,PE,VISION-NSCLC-SITE001-0112,17,MUSCULOS,MUSCULOSKELETAL,NORMAL,NORMAL,2.0,C1D1,TREATMENT,2024-05-03,1
VISION-NSCLC,PE,VISION-NSCLC-SITE001-0112,18,NEUROLOG,NEUROLOGICAL,NORMAL,NORMAL,2.0,C1D1,TREATMENT,2024-05-03,1
VISION-NSCLC,PE,VISION-NSCLC-SITE001-0112,19,RESPIRAT,RESPIRATORY,NORMAL,NORMAL,2.0,C1D1,TREATMENT,2024-05-03,1
VISION-NSCLC,PE,VISION-NSCLC-SITE001-0112,20,SKIN,SKIN,NORMAL,NORMAL,2.0,C1D1,TREATMENT,2024-05-03,1
VISION-NSCLC,PE,VISION-NSCLC-SITE001-0115,1,ABDOMEN,ABDOMEN,NORMAL,NORMAL,1.0,SCREENING,SCREENING,2024-03-14,-17
VISION-NSCLC,PE,VISION-NSCLC-SITE001-0115,2,CARDIOVA,CARDIOVASCULAR,NORMAL,NORMAL,1.0,SCREENING,SCREENING,2024-03-14,-17
VISION-NSCLC,PE,VISION-NSCLC-SITE001-0115,3,EARSNOSE,"EARS, NOSE, AND THROAT",NORMAL,NORMAL,1.0,SCREENING,SCREENING,2024-03-14,-17
VISION-NSCLC,PE,VISION-NSCLC-SITE001-0115,4,EYES,EYES,NORMAL,NORMAL,1.0,SCREENING,SCREENING,2024-03-14,-17
VISION-NSCLC,PE,VISION-NSCLC-SITE001-0115,5,GENERALA,GENERAL APPEARANCE,NORMAL,NORMAL,1.0,SCREENING,SCREENING,2024-03-14,-17
VISION-NSCLC,PE,VISION-NSCLC-SITE001-0115,6,HEADANDN,HEAD AND NECK,NORMAL,NORMAL,1.0,SCREENING,SCREENING,2024-03-14,-17
VISION-NSCLC,PE,VISION-NSCLC-SITE001-0115,7,MUSCULOS,MUSCULOSKELETAL,JOINT TENDERNESS,JOINT TENDERNESS,1.0,SCREENING,SCREENING,2024-03-14,-17
VISION-NSCLC,PE,VISION-NSCLC-SITE001-0115,8,NEUROLOG,NEUROLOGICAL,NORMAL,NORMAL,1.0,SCREENING,SCREENING,2024-03-14,-17
VISION-NSCLC,PE,VISION-NSCLC-SITE001-0115,9,RESPIRAT,RESPIRATORY,NORMAL,NORMAL,1.0,SCREENING,SCREENING,2024-03-14,-17
VISION-NSCLC,PE,VISION-NSCLC-SITE001-0115,10,SKIN,SKIN,RASH,RASH,1.0,SCREENING,SCREENING,2024-03-14,-17
VISION-NSCLC,PE,VISION-NSCLC-SITE001-0115,11,ABDOMEN,ABDOMEN,NORMAL,NORMAL,2.0,C1D1,TREATMENT,2024-03-31,1
VISION-NSCLC,PE,VISION-NSCLC-SITE001-0115,12,CARDIOVA,CARDIOVASCULAR,NORMAL,NORMAL,2.0,C1D1,TREATMENT,2024-03-31,1
VISION-NSCLC,PE,VISION-NSCLC-SITE001-0115,13,EARSNOSE,"EARS, NOSE, AND THROAT",NORMAL,NORMAL,2.0,C1D1,TREATMENT,2024-03-31,1
VISION-NSCLC,PE,VISION-NSCLC-SITE001-0115,14,EYES,EYES,NORMAL,NORMAL,2.0,C1D1,TREATMENT,2024-03-31,1
VISION-NSCLC,PE,VISION-NSCLC-SITE001-0115,15,GENERALA,GENERAL APPEARANCE,NORMAL,NORMAL,2.0,C1D1,TREATMENT,2024-03-31,1
VISION-NSCLC,PE,VISION-NSCLC-SITE001-0115,16,HEADANDN,HEAD AND NECK,NORMAL,NORMAL,2.0,C1D1,TREATMENT,2024-03-31,1
VISION-NSCLC,PE,VISION-NSCLC-SITE001-0115,17,MUSCULOS,MUSCULOSKELETAL,NORMAL,NORMAL,2.0,C1D1,TREATMENT,2024-03-31,1
VISION-NSCLC,PE,VISION-NSCLC-SITE001-0115,18,NEUROLOG,NEUROLOGICAL,NORMAL,NORMAL,2.0,C1D1,TREATMENT,2024-03-31,1
VISION-NSCLC,PE,VISION-NSCLC-SITE001-0115,19,RESPIRAT,RESPIRATORY,NORMAL,NORMAL,2.0,C1D1,TREATMENT,2024-03-31,1
VISION-NSCLC,PE,VISION-NSCLC-SITE001-0115,20,SKIN,SKIN,NORMAL,NORMAL,2.0,C1D1,TREATMENT,2024-03-31,1
VISION-NSCLC,PE,VISION-NSCLC-SITE001-0118,1,ABDOMEN,ABDOMEN,NORMAL,NORMAL,1.0,SCREENING,SCREENING,2024-01-27,-11
VISION-NSCLC,PE,VISION-NSCLC-SITE001-0118,2,CARDIOVA,CARDIOVASCULAR,NORMAL,NORMAL,1.0,SCREENING,SCREENING,2024-01-27,-11
VISION-NSCLC,PE,VISION-NSCLC-SITE001-0118,3,EARSNOSE,"EARS, NOSE, AND THROAT",NORMAL,NORMAL,1.0,SCREENING,SCREENING,2024-01-27,-11
VISION-NSCLC,PE,VISION-NSCLC-SITE001-0118,4,EYES,EYES,ICTERUS,ICTERUS,1.0,SCREENING,SCREENING,2024-01-27,-11
VISION-NSCLC,PE,VISION-NSCLC-SITE001-0118,5,GENERALA,GENERAL APPEARANCE,NORMAL,NORMAL,1.0,SCREENING,SCREENING,2024-01-27,-11
VISION-NSCLC,PE,VISION-NSCLC-SITE001-0118,6,HEADANDN,HEAD AND NECK,NORMAL,NORMAL,1.0,SCREENING,SCREENING,2024-01-27,-11
VISION-NSCLC,PE,VISION-NSCLC-SITE001-0118,7,MUSCULOS,MUSCULOSKELETAL,NORMAL,NORMAL,1.0,SCREENING,SCREENING,2024-01-27,-11
VISION-NSCLC,PE,VISION-NSCLC-SITE001-0118,8,NEUROLOG,NEUROLOGICAL,NORMAL,NORMAL,1.0,SCREENING,SCREENING,2024-01-27,-11
VISION-NSCLC,PE,VISION-NSCLC-SITE001-0118,9,RESPIRAT,RESPIRATORY,NORMAL,NORMAL,1.0,SCREENING,SCREENING,2024-01-27,-11
VISION-NSCLC,PE,VISION-NSCLC-SITE001-0118,10,SKIN,SKIN,NORMAL,NORMAL,1.0,SCREENING,SCREENING,2024-01-27,-11
VISION-NSCLC,PE,VISION-NSCLC-SITE001-0118,11,ABDOMEN,ABDOMEN,NORMAL,NORMAL,2.0,C1D1,TREATMENT,2024-02-07,1
VISION-NSCLC,PE,VISION-NSCLC-SITE001-0118,12,CARDIOVA,CARDIOVASCULAR,NORMAL,NORMAL,2.0,C1D1,TREATMENT,2024-02-07,1
VISION-NSCLC,PE,VISION-NSCLC-SITE001-0118,13,EARSNOSE,"EARS, NOSE, AND THROAT",NORMAL,NORMAL,2.0,C1D1,TREATMENT,2024-02-07,1
VISION-NSCLC,PE,VISION-NSCLC-SITE001-0118,14,EYES,EYES,NORMAL,NORMAL,2.0,C1D1,TREATMENT,2024-02-07,1
VISION-NSCLC,PE,VISION-NSCLC-SITE001-0118,15,GENERALA,GENERAL APPEARANCE,NORMAL,NORMAL,2.0,C1D1,TREATMENT,2024-02-07,1
VISION-NSCLC,PE,VISION-NSCLC-SITE001-0118,16,HEADANDN,HEAD AND NECK,NORMAL,NORMAL,2.0,C1D1,TREATMENT,2024-02-07,1
VISION-NSCLC,PE,VISION-NSCLC-SITE001-0118,17,MUSCULOS,MUSCULOSKELETAL,NORMAL,NORMAL,2.0,C1D1,TREATMENT,2024-02-07,1
VISION-NSCLC,PE,VISION-NSCLC-SITE001-0118,18,NEUROLOG,NEUROLOGICAL,NORMAL,NORMAL,2.0,C1D1,TREATMENT,2024-02-07,1
VISION-NSCLC,PE,VISION-NSCLC-SITE001-0118,19,RESPIRAT,RESPIRATORY,NORMAL,NORMAL,2.0,C1D1,TREATMENT,2024-02-07,1
VISION-NSCLC,PE,VISION-NSCLC-SITE001-0118,20,SKIN,SKIN,NORMAL,NORMAL,2.0,C1D1,TREATMENT,2024-02-07,1
VISION-NSCLC,PE,VISION-NSCLC-SITE001-0121,1,ABDOMEN,ABDOMEN,NORMAL,NORMAL,1.0,SCREENING,SCREENING,2024-02-10,-22
VISION-NSCLC,PE,VISION-NSCLC-SITE001-0121,2,CARDIOVA,CARDIOVASCULAR,NORMAL,NORMAL,1.0,SCREENING,SCREENING,2024-02-10,-22
VISION-NSCLC,PE,VISION-NSCLC-SITE001-0121,3,EARSNOSE,"EARS, NOSE, AND THROAT",NORMAL,NORMAL,1.0,SCREENING,SCREENING,2024-02-10,-22
VISION-NSCLC,PE,VISION-NSCLC-SITE001-0121,4,EYES,EYES,NORMAL,NORMAL,1.0,SCREENING,SCREENING,2024-02-10,-22
VISION-NSCLC,PE,VISION-NSCLC-SITE001-0121,5,GENERALA,GENERAL APPEARANCE,NORMAL,NORMAL,1.0,SCREENING,SCREENING,2024-02-10,-22
VISION-NSCLC,PE,VISION-NSCLC-SITE001-0121,6,HEADANDN,HEAD AND NECK,NORMAL,NORMAL,1.0,SCREENING,SCREENING,2024-02-10,-22
VISION-NSCLC,PE,VISION-NSCLC-SITE001-0121,7,MUSCULOS,MUSCULOSKELETAL,NORMAL,NORMAL,1.0,SCREENING,SCREENING,2024-02-10,-22
VISION-NSCLC,PE,VISION-NSCLC-SITE001-0121,8,NEUROLOG,NEUROLOGICAL,NORMAL,NORMAL,1.0,SCREENING,SCREENING,2024-02-10,-22
VISION-NSCLC,PE,VISION-NSCLC-SITE001-0121,9,RESPIRAT,RESPIRATORY,NORMAL,NORMAL,1.0,SCREENING,SCREENING,2024-02-10,-22
VISION-NSCLC,PE,VISION-NSCLC-SITE001-0121,10,SKIN,SKIN,NORMAL,NORMAL,1.0,SCREENING,SCREENING,2024-02-10,-22
VISION-NSCLC,PE,VISION-NSCLC-SITE001-0121,11,ABDOMEN,ABDOMEN,NORMAL,NORMAL,2.0,C1D1,TREATMENT,2024-03-03,1
VISION-NSCLC,PE,VISION-NSCLC-SITE001-0121,12,CARDIOVA,CARDIOVASCULAR,IRREGULAR RHYTHM,IRREGULAR RHYTHM,2.0,C1D1,TREATMENT,2024-03-03,1
VISION-NSCLC,PE,VISION-NSCLC-SITE001-0121,13,EARSNOSE,"EARS, NOSE, AND THROAT",NORMAL,NORMAL,2.0,C1D1,TREATMENT,2024-03-03,1
VISION-NSCLC,PE,VISION-NSCLC-SITE001-0121,14,EYES,EYES,NORMAL,NORMAL,2.0,C1D1,TREATMENT,2024-03-03,1
VISION-NSCLC,PE,VISION-NSCLC-SITE001-0121,15,GENERALA,GENERAL APPEARANCE,NORMAL,NORMAL,2.0,C1D1,TREATMENT,2024-03-03,1
VISION-NSCLC,PE,VISION-NSCLC-SITE001-0121,16,HEADANDN,HEAD AND NECK,NORMAL,NORMAL,2.0,C1D1,TREATMENT,2024-03-03,1
VISION-NSCLC,PE,VISION-NSCLC-SITE001-0121,17,MUSCULOS,MUSCULOSKELETAL,LIMITED RANGE OF MOTION,LIMITED RANGE OF MOTION,2.0,C1D1,TREATMENT,2024-03-03,1
VISION-NSCLC,PE,VISION-NSCLC-SITE001-0121,18,NEUROLOG,NEUROLOGICAL,NORMAL,NORMAL,2.0,C1D1,TREATMENT,2024-03-03,1
VISION-NSCLC,PE,VISION-NSCLC-SITE001-0121,19,RESPIRAT,RESPIRATORY,NORMAL,NORMAL,2.0,C1D1,TREATMENT,2024-03-03,1
VISION-NSCLC,PE,VISION-NSCLC-SITE001-0121,20,SKIN,SKIN,NORMAL,NORMAL,2.0,C1D1,TREATMENT,2024-03-03,1
VISION-NSCLC,PE,VISION-NSCLC-SITE001-0124,1,ABDOMEN,ABDOMEN,NORMAL,NORMAL,1.0,SCREENING,SCREENING,2024-02-20,-23
VISION-NSCLC,PE,VISION-NSCLC-SITE001-0124,2,CARDIOVA,CARDIOVASCULAR,NORMAL,NORMAL,1.0,SCREENING,SCREENING,2024-02-20,-23
VISION-NSCLC,PE,VISION-NSCLC-SITE001-0124,3,EARSNOSE,"EARS, NOSE, AND THROAT",NORMAL,NORMAL,1.0,SCREENING,SCREENING,2024-02-20,-23
VISION-NSCLC,PE,VISION-NSCLC-SITE001-0124,4,EYES,EYES,NORMAL,NORMAL,1.0,SCREENING,SCREENING,2024-02-20,-23
VISION-NSCLC,PE,VISION-NSCLC-SITE001-0124,5,GENERALA,GENERAL APPEARANCE,NORMAL,NORMAL,1.0,SCREENING,SCREENING,2024-02-20,-23
VISION-NSCLC,PE,VISION-NSCLC-SITE001-0124,6,HEADANDN,HEAD AND NECK,NORMAL,NORMAL,1.0,SCREENING,SCREENING,2024-02-20,-23
VISION-NSCLC,PE,VISION-NSCLC-SITE001-0124,7,MUSCULOS,MUSCULOSKELETAL,NORMAL,NORMAL,1.0,SCREENING,SCREENING,2024-02-20,-23
VISION-NSCLC,PE,VISION-NSCLC-SITE001-0124,8,NEUROLOG,NEUROLOGICAL,NORMAL,NORMAL,1.0,SCREENING,SCREENING,2024-02-20,-23
VISION-NSCLC,PE,VISION-NSCLC-SITE001-0124,9,RESPIRAT,RESPIRATORY,NORMAL,NORMAL,1.0,SCREENING,SCREENING,2024-02-20,-23
VISION-NSCLC,PE,VISION-NSCLC-SITE001-0124,10,SKIN,SKIN,NORMAL,NORMAL,1.0,SCREENING,SCREENING,2024-02-20,-23
VISION-NSCLC,PE,VISION-NSCLC-SITE001-0124,11,ABDOMEN,ABDOMEN,NORMAL,NORMAL,2.0,C1D1,TREATMENT,2024-03-14,1
VISION-NSCLC,PE,VISION-NSCLC-SITE001-0124,12,CARDIOVA,CARDIOVASCULAR,NORMAL,NORMAL,2.0,C1D1,TREATMENT,2024-03-14,1
VISION-NSCLC,PE,VISION-NSCLC-SITE001-0124,13,EARSNOSE,"EARS, NOSE, AND THROAT",NORMAL,NORMAL,2.0,C1D1,TREATMENT,2024-03-14,1
VISION-NSCLC,PE,VISION-NSCLC-SITE001-0124,14,EYES,EYES,NORMAL,NORMAL,2.0,C1D1,TREATMENT,2024-03-14,1
VISION-NSCLC,PE,VISION-NSCLC-SITE001-0124,15,GENERALA,GENERAL APPEARANCE,NORMAL,NORMAL,2.0,C1D1,TREATMENT,2024-03-14,1
VISION-NSCLC,PE,VISION-NSCLC-SITE001-0124,16,HEADANDN,HEAD AND NECK,NORMAL,NORMAL,2.0,C1D1,TREATMENT,2024-03-14,1
VISION-NSCLC,PE,VISION-NSCLC-SITE001-0124,17,MUSCULOS,MUSCULOSKELETAL,NORMAL,NORMAL,2.0,C1D1,TREATMENT,2024-03-14,1
VISION-NSCLC,PE,VISION-NSCLC-SITE001-0124,18,NEUROLOG,NEUROLOGICAL,NORMAL,NORMAL,2.0,C1D1,TREATMENT,2024-03-14,1
VISION-NSCLC,PE,VISION-NSCLC-SITE001-0124,19,RESPIRAT,RESPIRATORY,NORMAL,NORMAL,2.0,C1D1,TREATMENT,2024-03-14,1
VISION-NSCLC,PE,VISION-NSCLC-SITE001-0124,20,SKIN,SKIN,NORMAL,NORMAL,2.0,C1D1,TREATMENT,2024-03-14,1
VISION-NSCLC,PE,VISION-NSCLC-SITE001-0127,1,ABDOMEN,ABDOMEN,NORMAL,NORMAL,1.0,SCREENING,SCREENING,2024-02-06,-13
VISION-NSCLC,PE,VISION-NSCLC-SITE001-0127,2,CARDIOVA,CARDIOVASCULAR,NORMAL,NORMAL,1.0,SCREENING,SCREENING,2024-02-06,-13
VISION-NSCLC,PE,VISION-NSCLC-SITE001-0127,3,EARSNOSE,"EARS, NOSE, AND THROAT",NORMAL,NORMAL,1.0,SCREENING,SCREENING,2024-02-06,-13
VISION-NSCLC,PE,VISION-NSCLC-SITE001-0127,4,EYES,EYES,NORMAL,NORMAL,1.0,SCREENING,SCREENING,2024-02-06,-13
VISION-NSCLC,PE,VISION-NSCLC-SITE001-0127,5,GENERALA,GENERAL APPEARANCE,NORMAL,NORMAL,1.0,SCREENING,SCREENING,2024-02-06,-13
VISION-NSCLC,PE,VISION-NSCLC-SITE001-0127,6,HEADANDN,HEAD AND NECK,NORMAL,NORMAL,1.0,SCREENING,SCREENING,2024-02-06,-13
VISION-NSCLC,PE,VISION-NSCLC-SITE001-0127,7,MUSCULOS,MUSCULOSKELETAL,NORMAL,NORMAL,1.0,SCREENING,SCREENING,2024-02-06,-13
VISION-NSCLC,PE,VISION-NSCLC-SITE001-0127,8,NEUROLOG,NEUROLOGICAL,NORMAL,NORMAL,1.0,SCREENING,SCREENING,2024-02-06,-13
VISION-NSCLC,PE,VISION-NSCLC-SITE001-0127,9,RESPIRAT,RESPIRATORY,DECREASED BREATH SOUNDS,DECREASED BREATH SOUNDS,1.0,SCREENING,SCREENING,2024-02-06,-13
VISION-NSCLC,PE,VISION-NSCLC-SITE001-0127,10,SKIN,SKIN,NORMAL,NORMAL,1.0,SCREENING,SCREENING,2024-02-06,-13
VISION-NSCLC,PE,VISION-NSCLC-SITE001-0127,11,ABDOMEN,ABDOMEN,NORMAL,NORMAL,2.0,C1D1,TREATMENT,2024-02-19,1
VISION-NSCLC,PE,VISION-NSCLC-SITE001-0127,12,CARDIOVA,CARDIOVASCULAR,NORMAL,NORMAL,2.0,C1D1,TREATMENT,2024-02-19,1
VISION-NSCLC,PE,VISION-NSCLC-SITE001-0127,13,EARSNOSE,"EARS, NOSE, AND THROAT",NORMAL,NORMAL,2.0,C1D1,TREATMENT,2024-02-19,1
VISION-NSCLC,PE,VISION-NSCLC-SITE001-0127,14,EYES,EYES,NORMAL,NORMAL,2.0,C1D1,TREATMENT,2024-02-19,1
VISION-NSCLC,PE,VISION-NSCLC-SITE001-0127,15,GENERALA,GENERAL APPEARANCE,NORMAL,NORMAL,2.0,C1D1,TREATMENT,2024-02-19,1
VISION-NSCLC,PE,VISION-NSCLC-SITE001-0127,16,HEADANDN,HEAD AND NECK,THYROMEGALY,THYROMEGALY,2.0,C1D1,TREATMENT,2024-02-19,1
VISION-NSCLC,PE,VISION-NSCLC-SITE001-0127,17,MUSCULOS,MUSCULOSKELETAL,NORMAL,NORMAL,2.0,C1D1,TREATMENT,2024-02-19,1
VISION-NSCLC,PE,VISION-NSCLC-SITE001-0127,18,NEUROLOG,NEUROLOGICAL,NORMAL,NORMAL,2.0,C1D1,TREATMENT,2024-02-19,1
VISION-NSCLC,PE,VISION-NSCLC-SITE001-0127,19,RESPIRAT,RESPIRATORY,NORMAL,NORMAL,2.0,C1D1,TREATMENT,2024-02-19,1
VISION-NSCLC,PE,VISION-NSCLC-SITE001-0127,20,SKIN,SKIN,NORMAL,NORMAL,2.0,C1D1,TREATMENT,2024-02-19,1
VISION-NSCLC,PE,VISION-NSCLC-SITE001-0130,1,ABDOMEN,ABDOMEN,NORMAL,NORMAL,1.0,SCREENING,SCREENING,2024-02-02,-18
VISION-NSCLC,PE,VISION-NSCLC-SITE001-0130,2,CARDIOVA,CARDIOVASCULAR,NORMAL,NORMAL,1.0,SCREENING,SCREENING,2024-02-02,-18
VISION-NSCLC,PE,VISION-NSCLC-SITE001-0130,3,EARSNOSE,"EARS, NOSE, AND THROAT",NORMAL,NORMAL,1.0,SCREENING,SCREENING,2024-02-02,-18
VISION-NSCLC,PE,VISION-NSCLC-SITE001-0130,4,EYES,EYES,NORMAL,NORMAL,1.0,SCREENING,SCREENING,2024-02-02,-18
VISION-NSCLC,PE,VISION-NSCLC-SITE001-0130,5,GENERALA,GENERAL APPEARANCE,NORMAL,NORMAL,1.0,SCREENING,SCREENING,2024-02-02,-18
VISION-NSCLC,PE,VISION-NSCLC-SITE001-0130,6,HEADANDN,HEAD AND NECK,NORMAL,NORMAL,1.0,SCREENING,SCREENING,2024-02-02,-18
VISION-NSCLC,PE,VISION-NSCLC-SITE001-0130,7,MUSCULOS,MUSCULOSKELETAL,NORMAL,NORMAL,1.0,SCREENING,SCREENING,2024-02-02,-18
VISION-NSCLC,PE,VISION-NSCLC-SITE001-0130,8,NEUROLOG,NEUROLOGICAL,NORMAL,NORMAL,1.0,SCREENING,SCREENING,2024-02-02,-18
VISION-NSCLC,PE,VISION-NSCLC-SITE001-0130,9,RESPIRAT,RESPIRATORY,NORMAL,NORMAL,1.0,SCREENING,SCREENING,2024-02-02,-18
VISION-NSCLC,PE,VISION-NSCLC-SITE001-0130,10,SKIN,SKIN,NORMAL,NORMAL,1.0,SCREENING,SCREENING,2024-02-02,-18
VISION-NSCLC,PE,VISION-NSCLC-SITE001-0130,11,ABDOMEN,ABDOMEN,NORMAL,NORMAL,2.0,C1D1,TREATMENT,2024-02-20,1
VISION-NSCLC,PE,VISION-NSCLC-SITE001-0130,12,CARDIOVA,CARDIOVASCULAR,NORMAL,NORMAL,2.0,C1D1,TREATMENT,2024-02-20,1
VISION-NSCLC,PE,VISION-NSCLC-SITE001-0130,13,EARSNOSE,"EARS, NOSE, AND THROAT",NORMAL,NORMAL,2.0,C1D1,TREATMENT,2024-02-20,1
VISION-NSCLC,PE,VISION-NSCLC-SITE001-0130,14,EYES,EYES,NORMAL,NORMAL,2.0,C1D1,TREATMENT,2024-02-20,1
VISION-NSCLC,PE,VISION-NSCLC-SITE001-0130,15,GENERALA,GENERAL APPEARANCE,NORMAL,NORMAL,2.0,C1D1,TREATMENT,2024-02-20,1
VISION-NSCLC,PE,VISION-NSCLC-SITE001-0130,16,HEADANDN,HEAD AND NECK,NORMAL,NORMAL,2.0,C1D1,TREATMENT,2024-02-20,1
VISION-NSCLC,PE,VISION-NSCLC-SITE001-0130,17,MUSCULOS,MUSCULOSKELETAL,NORMAL,NORMAL,2.0,C1D1,TREATMENT,2024-02-20,1
VISION-NSCLC,PE,VISION-NSCLC-SITE001-0130,18,NEUROLOG,NEUROLOGICAL,NORMAL,NORMAL,2.0,C1D1,TREATMENT,2024-02-20,1
VISION-NSCLC,PE,VISION-NSCLC-SITE001-0130,19,RESPIRAT,RESPIRATORY,NORMAL,NORMAL,2.0,C1D1,TREATMENT,2024-02-20,1
VISION-NSCLC,PE,VISION-NSCLC-SITE001-0130,20,SKIN,SKIN,NORMAL,NORMAL,2.0,C1D1,TREATMENT,2024-02-20,1
VISION-NSCLC,PE,VISION-NSCLC-SITE001-0133,1,ABDOMEN,ABDOMEN,NORMAL,NORMAL,1.0,SCREENING,SCREENING,2024-02-25,-21
VISION-NSCLC,PE,VISION-NSCLC-SITE001-0133,2,CARDIOVA,CARDIOVASCULAR,NORMAL,NORMAL,1.0,SCREENING,SCREENING,2024-02-25,-21
VISION-NSCLC,PE,VISION-NSCLC-SITE001-0133,3,EARSNOSE,"EARS, NOSE, AND THROAT",NORMAL,NORMAL,1.0,SCREENING,SCREENING,2024-02-25,-21
VISION-NSCLC,PE,VISION-NSCLC-SITE001-0133,4,EYES,EYES,NORMAL,NORMAL,1.0,SCREENING,SCREENING,2024-02-25,-21
VISION-NSCLC,PE,VISION-NSCLC-SITE001-0133,5,GENERALA,GENERAL APPEARANCE,NORMAL,NORMAL,1.0,SCREENING,SCREENING,2024-02-25,-21
VISION-NSCLC,PE,VISION-NSCLC-SITE001-0133,6,HEADANDN,HEAD AND NECK,NORMAL,NORMAL,1.0,SCREENING,SCREENING,2024-02-25,-21
VISION-NSCLC,PE,VISION-NSCLC-SITE001-0133,7,MUSCULOS,MUSCULOSKELETAL,NORMAL,NORMAL,1.0,SCREENING,SCREENING,2024-02-25,-21
VISION-NSCLC,PE,VISION-NSCLC-SITE001-0133,8,NEUROLOG,NEUROLOGICAL,NORMAL,NORMAL,1.0,SCREENING,SCREENING,2024-02-25,-21
VISION-NSCLC,PE,VISION-NSCLC-SITE001-0133,9,RESPIRAT,RESPIRATORY,NORMAL,NORMAL,1.0,SCREENING,SCREENING,2024-02-25,-21
VISION-NSCLC,PE,VISION-NSCLC-SITE001-0133,10,SKIN,SKIN,NORMAL,NORMAL,1.0,SCREENING,SCREENING,2024-02-25,-21
VISION-NSCLC,PE,VISION-NSCLC-SITE001-0133,11,ABDOMEN,ABDOMEN,NORMAL,NORMAL,2.0,C1D1,TREATMENT,2024-03-17,1
VISION-NSCLC,PE,VISION-NSCLC-SITE001-0133,12,CARDIOVA,CARDIOVASCULAR,NORMAL,NORMAL,2.0,C1D1,TREATMENT,2024-03-17,1
VISION-NSCLC,PE,VISION-NSCLC-SITE001-0133,13,EARSNOSE,"EARS, NOSE, AND THROAT",NORMAL,NORMAL,2.0,C1D1,TREATMENT,2024-03-17,1
VISION-NSCLC,PE,VISION-NSCLC-SITE001-0133,14,EYES,EYES,NORMAL,NORMAL,2.0,C1D1,TREATMENT,2024-03-17,1
VISION-NSCLC,PE,VISION-NSCLC-SITE001-0133,15,GENERALA,GENERAL APPEARANCE,NORMAL,NORMAL,2.0,C1D1,TREATMENT,2024-03-17,1
VISION-NSCLC,PE,VISION-NSCLC-SITE001-0133,16,HEADANDN,HEAD AND NECK,NORMAL,NORMAL,2.0,C1D1,TREATMENT,2024-03-17,1
VISION-NSCLC,PE,VISION-NSCLC-SITE001-0133,17,MUSCULOS,MUSCULOSKELETAL,NORMAL,NORMAL,2.0,C1D1,TREATMENT,2024-03-17,1
VISION-NSCLC,PE,VISION-NSCLC-SITE001-0133,18,NEUROLOG,NEUROLOGICAL,NORMAL,NORMAL,2.0,C1D1,TREATMENT,2024-03-17,1
VISION-NSCLC,PE,VISION-NSCLC-SITE001-0133,19,RESPIRAT,RESPIRATORY,NORMAL,NORMAL,2.0,C1D1,TREATMENT,2024-03-17,1
VISION-NSCLC,PE,VISION-NSCLC-SITE001-0133,20,SKIN,SKIN,NORMAL,NORMAL,2.0,C1D1,TREATMENT,2024-03-17,1
VISION-NSCLC,PE,VISION-NSCLC-SITE001-0136,1,ABDOMEN,ABDOMEN,NORMAL,NORMAL,1.0,SCREENING,SCREENING,2024-04-04,-27
VISION-NSCLC,PE,VISION-NSCLC-SITE001-0136,2,CARDIOVA,CARDIOVASCULAR,NORMAL,NORMAL,1.0,SCREENING,SCREENING,2024-04-04,-27
VISION-NSCLC,PE,VISION-NSCLC-SITE001-0136,3,EARSNOSE,"EARS, NOSE, AND THROAT",NORMAL,NORMAL,1.0,SCREENING,SCREENING,2024-04-04,-27
VISION-NSCLC,PE,VISION-NSCLC-SITE001-0136,4,EYES,EYES,NORMAL,NORMAL,1.0,SCREENING,SCREENING,2024-04-04,-27
VISION-NSCLC,PE,VISION-NSCLC-SITE001-0136,5,GENERALA,GENERAL APPEARANCE,NORMAL,NORMAL,1.0,SCREENING,SCREENING,2024-04-04,-27
VISION-NSCLC,PE,VISION-NSCLC-SITE001-0136,6,HEADANDN,HEAD AND NECK,NORMAL,NORMAL,1.0,SCREENING,SCREENING,2024-04-04,-27
VISION-NSCLC,PE,VISION-NSCLC-SITE001-0136,7,MUSCULOS,MUSCULOSKELETAL,NORMAL,NORMAL,1.0,SCREENING,SCREENING,2024-04-04,-27
VISION-NSCLC,PE,VISION-NSCLC-SITE001-0136,8,NEUROLOG,NEUROLOGICAL,NORMAL,NORMAL,1.0,SCREENING,SCREENING,2024-04-04,-27
VISION-NSCLC,PE,VISION-NSCLC-SITE001-0136,9,RESPIRAT,RESPIRATORY,NORMAL,NORMAL,1.0,SCREENING,SCREENING,2024-04-04,-27
VISION-NSCLC,PE,VISION-NSCLC-SITE001-0136,10,SKIN,SKIN,NORMAL,NORMAL,1.0,SCREENING,SCREENING,2024-04-04,-27
VISION-NSCLC,PE,VISION-NSCLC-SITE001-0136,11,ABDOMEN,ABDOMEN,NORMAL,NORMAL,2.0,C1D1,TREATMENT,2024-05-01,1
VISION-NSCLC,PE,VISION-NSCLC-SITE001-0136,12,CARDIOVA,CARDIOVASCULAR,NORMAL,NORMAL,2.0,C1D1,TREATMENT,2024-05-01,1
VISION-NSCLC,PE,VISION-NSCLC-SITE001-0136,13,EARSNOSE,"EARS, NOSE, AND THROAT",NORMAL,NORMAL,2.0,C1D1,TREATMENT,2024-05-01,1
VISION-NSCLC,PE,VISION-NSCLC-SITE001-0136,14,EYES,EYES,NORMAL,NORMAL,2.0,C1D1,TREATMENT,2024-05-01,1
VISION-NSCLC,PE,VISION-NSCLC-SITE001-0136,15,GENERALA,GENERAL APPEARANCE,NORMAL,NORMAL,2.0,C1D1,TREATMENT,2024-05-01,1
VISION-NSCLC,PE,VISION-NSCLC-SITE001-0136,16,HEADANDN,HEAD AND NECK,NORMAL,NORMAL,2.0,C1D1,TREATMENT,2024-05-01,1
VISION-NSCLC,PE,VISION-NSCLC-SITE001-0136,17,MUSCULOS,MUSCULOSKELETAL,NORMAL,NORMAL,2.0,C1D1,TREATMENT,2024-05-01,1
VISION-NSCLC,PE,VISION-NSCLC-SITE001-0136,18,NEUROLOG,NEUROLOGICAL,NORMAL,NORMAL,2.0,C1D1,TREATMENT,2024-05-01,1
VISION-NSCLC,PE,VISION-NSCLC-SITE001-0136,19,RESPIRAT,RESPIRATORY,NORMAL,NORMAL,2.0,C1D1,TREATMENT,2024-05-01,1
VISION-NSCLC,PE,VISION-NSCLC-SITE001-0136,20,SKIN,SKIN,NORMAL,NORMAL,2.0,C1D1,TREATMENT,2024-05-01,1
VISION-NSCLC,PE,VISION-NSCLC-SITE001-0139,1,ABDOMEN,ABDOMEN,NORMAL,NORMAL,1.0,SCREENING,SCREENING,2024-01-21,-19
VISION-NSCLC,PE,VISION-NSCLC-SITE001-0139,2,CARDIOVA,CARDIOVASCULAR,PERIPHERAL EDEMA,PERIPHERAL EDEMA,1.0,SCREENING,SCREENING,2024-01-21,-19
VISION-NSCLC,PE,VISION-NSCLC-SITE001-0139,3,EARSNOSE,"EARS, NOSE, AND THROAT",NORMAL,NORMAL,1.0,SCREENING,SCREENING,2024-01-21,-19
VISION-NSCLC,PE,VISION-NSCLC-SITE001-0139,4,EYES,EYES,NORMAL,NORMAL,1.0,SCREENING,SCREENING,2024-01-21,-19
VISION-NSCLC,PE,VISION-NSCLC-SITE001-0139,5,GENERALA,GENERAL APPEARANCE,NORMAL,NORMAL,1.0,SCREENING,SCREENING,2024-01-21,-19
VISION-NSCLC,PE,VISION-NSCLC-SITE001-0139,6,HEADANDN,HEAD AND NECK,NORMAL,NORMAL,1.0,SCREENING,SCREENING,2024-01-21,-19
VISION-NSCLC,PE,VISION-NSCLC-SITE001-0139,7,MUSCULOS,MUSCULOSKELETAL,NORMAL,NORMAL,1.0,SCREENING,SCREENING,2024-01-21,-19
VISION-NSCLC,PE,VISION-NSCLC-SITE001-0139,8,NEUROLOG,NEUROLOGICAL,NORMAL,NORMAL,1.0,SCREENING,SCREENING,2024-01-21,-19
VISION-NSCLC,PE,VISION-NSCLC-SITE001-0139,9,RESPIRAT,RESPIRATORY,NORMAL,NORMAL,1.0,SCREENING,SCREENING,2024-01-21,-19
VISION-NSCLC,PE,VISION-NSCLC-SITE001-0139,10,SKIN,SKIN,NORMAL,NORMAL,1.0,SCREENING,SCREENING,2024-01-21,-19
VISION-NSCLC,PE,VISION-NSCLC-SITE001-0139,11,ABDOMEN,ABDOMEN,NORMAL,NORMAL,2.0,C1D1,TREATMENT,2024-02-09,1
VISION-NSCLC,PE,VISION-NSCLC-SITE001-0139,12,CARDIOVA,CARDIOVASCULAR,NORMAL,NORMAL,2.0,C1D1,TREATMENT,2024-02-09,1
VISION-NSCLC,PE,VISION-NSCLC-SITE001-0139,13,EARSNOSE,"EARS, NOSE, AND THROAT",NORMAL,NORMAL,2.0,C1D1,TREATMENT,2024-02-09,1
VISION-NSCLC,PE,VISION-NSCLC-SITE001-0139,14,EYES,EYES,NORMAL,NORMAL,2.0,C1D1,TREATMENT,2024-02-09,1
VISION-NSCLC,PE,VISION-NSCLC-SITE001-0139,15,GENERALA,GENERAL APPEARANCE,NORMAL,NORMAL,2.0,C1D1,TREATMENT,2024-02-09,1
VISION-NSCLC,PE,VISION-NSCLC-SITE001-0139,16,HEADANDN,HEAD AND NECK,NORMAL,NORMAL,2.0,C1D1,TREATMENT,2024-02-09,1
VISION-NSCLC,PE,VISION-NSCLC-SITE001-0139,17,MUSCULOS,MUSCULOSKELETAL,NORMAL,NORMAL,2.0,C1D1,TREATMENT,2024-02-09,1
VISION-NSCLC,PE,VISION-NSCLC-SITE001-0139,18,NEUROLOG,NEUROLOGICAL,NORMAL,NORMAL,2.0,C1D1,TREATMENT,2024-02-09,1
VISION-NSCLC,PE,VISION-NSCLC-SITE001-0139,19,RESPIRAT,RESPIRATORY,NORMAL,NORMAL,2.0,C1D1,TREATMENT,2024-02-09,1
VISION-NSCLC,PE,VISION-NSCLC-SITE001-0139,20,SKIN,SKIN,NORMAL,NORMAL,2.0,C1D1,TREATMENT,2024-02-09,1
VISION-NSCLC,PE,VISION-NSCLC-SITE001-0142,1,ABDOMEN,ABDOMEN,NORMAL,NORMAL,1.0,SCREENING,SCREENING,2024-02-09,-26
VISION-NSCLC,PE,VISION-NSCLC-SITE001-0142,2,CARDIOVA,CARDIOVASCULAR,NORMAL,NORMAL,1.0,SCREENING,SCREENING,2024-02-09,-26
VISION-NSCLC,PE,VISION-NSCLC-SITE001-0142,3,EARSNOSE,"EARS, NOSE, AND THROAT",NORMAL,NORMAL,1.0,SCREENING,SCREENING,2024-02-09,-26
VISION-NSCLC,PE,VISION-NSCLC-SITE001-0142,4,EYES,EYES,NORMAL,NORMAL,1.0,SCREENING,SCREENING,2024-02-09,-26
VISION-NSCLC,PE,VISION-NSCLC-SITE001-0142,5,GENERALA,GENERAL APPEARANCE,NORMAL,NORMAL,1.0,SCREENING,SCREENING,2024-02-09,-26
VISION-NSCLC,PE,VISION-NSCLC-SITE001-0142,6,HEADANDN,HEAD AND NECK,NORMAL,NORMAL,1.0,SCREENING,SCREENING,2024-02-09,-26
VISION-NSCLC,PE,VISION-NSCLC-SITE001-0142,7,MUSCULOS,MUSCULOSKELETAL,NORMAL,NORMAL,1.0,SCREENING,SCREENING,2024-02-09,-26
VISION-NSCLC,PE,VISION-NSCLC-SITE001-0142,8,NEUROLOG,NEUROLOGICAL,NORMAL,NORMAL,1.0,SCREENING,SCREENING,2024-02-09,-26
VISION-NSCLC,PE,VISION-NSCLC-SITE001-0142,9,RESPIRAT,RESPIRATORY,NORMAL,NORMAL,1.0,SCREENING,SCREENING,2024-02-09,-26
VISION-NSCLC,PE,VISION-NSCLC-SITE001-0142,10,SKIN,SKIN,NORMAL,NORMAL,1.0,SCREENING,SCREENING,2024-02-09,-26
VISION-NSCLC,PE,VISION-NSCLC-SITE001-0142,11,ABDOMEN,ABDOMEN,NORMAL,NORMAL,2.0,C1D1,TREATMENT,2024-03-06,1
VISION-NSCLC,PE,VISION-NSCLC-SITE001-0142,12,CARDIOVA,CARDIOVASCULAR,NORMAL,NORMAL,2.0,C1D1,TREATMENT,2024-03-06,1
VISION-NSCLC,PE,VISION-NSCLC-SITE001-0142,13,EARSNOSE,"EARS, NOSE, AND THROAT",NORMAL,NORMAL,2.0,C1D1,TREATMENT,2024-03-06,1
VISION-NSCLC,PE,VISION-NSCLC-SITE001-0142,14,EYES,EYES,NORMAL,NORMAL,2.0,C1D1,TREATMENT,2024-03-06,1
VISION-NSCLC,PE,VISION-NSCLC-SITE001-0142,15,GENERALA,GENERAL APPEARANCE,NORMAL,NORMAL,2.0,C1D1,TREATMENT,2024-03-06,1
VISION-NSCLC,PE,VISION-NSCLC-SITE001-0142,16,HEADANDN,HEAD AND NECK,NORMAL,NORMAL,2.0,C1D1,TREATMENT,2024-03-06,1
VISION-NSCLC,PE,VISION-NSCLC-SITE001-0142,17,MUSCULOS,MUSCULOSKELETAL,NORMAL,NORMAL,2.0,C1D1,TREATMENT,2024-03-06,1
VISION-NSCLC,PE,VISION-NSCLC-SITE001-0142,18,NEUROLOG,NEUROLOGICAL,NORMAL,NORMAL,2.0,C1D1,TREATMENT,2024-03-06,1
VISION-NSCLC,PE,VISION-NSCLC-SITE001-0142,19,RESPIRAT,RESPIRATORY,NORMAL,NORMAL,2.0,C1D1,TREATMENT,2024-03-06,1
VISION-NSCLC,PE,VISION-NSCLC-SITE001-0142,20,SKIN,SKIN,NORMAL,NORMAL,2.0,C1D1,TREATMENT,2024-03-06,1
VISION-NSCLC,PE,VISION-NSCLC-SITE001-0145,1,ABDOMEN,ABDOMEN,NORMAL,NORMAL,1.0,SCREENING,SCREENING,2024-03-01,-8
VISION-NSCLC,PE,VISION-NSCLC-SITE001-0145,2,CARDIOVA,CARDIOVASCULAR,NORMAL,NORMAL,1.0,SCREENING,SCREENING,2024-03-01,-8
VISION-NSCLC,PE,VISION-NSCLC-SITE001-0145,3,EARSNOSE,"EARS, NOSE, AND THROAT",NORMAL,NORMAL,1.0,SCREENING,SCREENING,2024-03-01,-8
VISION-NSCLC,PE,VISION-NSCLC-SITE001-0145,4,EYES,EYES,NORMAL,NORMAL,1.0,SCREENING,SCREENING,2024-03-01,-8
VISION-NSCLC,PE,VISION-NSCLC-SITE001-0145,5,GENERALA,GENERAL APPEARANCE,NORMAL,NORMAL,1.0,SCREENING,SCREENING,2024-03-01,-8
VISION-NSCLC,PE,VISION-NSCLC-SITE001-0145,6,HEADANDN,HEAD AND NECK,NORMAL,NORMAL,1.0,SCREENING,SCREENING,2024-03-01,-8
VISION-NSCLC,PE,VISION-NSCLC-SITE001-0145,7,MUSCULOS,MUSCULOSKELETAL,NORMAL,NORMAL,1.0,SCREENING,SCREENING,2024-03-01,-8
VISION-NSCLC,PE,VISION-NSCLC-SITE001-0145,8,NEUROLOG,NEUROLOGICAL,NORMAL,NORMAL,1.0,SCREENING,SCREENING,2024-03-01,-8
VISION-NSCLC,PE,VISION-NSCLC-SITE001-0145,9,RESPIRAT,RESPIRATORY,NORMAL,NORMAL,1.0,SCREENING,SCREENING,2024-03-01,-8
VISION-NSCLC,PE,VISION-NSCLC-SITE001-0145,10,SKIN,SKIN,NORMAL,NORMAL,1.0,SCREENING,SCREENING,2024-03-01,-8
VISION-NSCLC,PE,VISION-NSCLC-SITE001-0145,11,ABDOMEN,ABDOMEN,NORMAL,NORMAL,2.0,C1D1,TREATMENT,2024-03-09,1
VISION-NSCLC,PE,VISION-NSCLC-SITE001-0145,12,CARDIOVA,CARDIOVASCULAR,NORMAL,NORMAL,2.0,C1D1,TREATMENT,2024-03-09,1
VISION-NSCLC,PE,VISION-NSCLC-SITE001-0145,13,EARSNOSE,"EARS, NOSE, AND THROAT",NORMAL,NORMAL,2.0,C1D1,TREATMENT,2024-03-09,1
VISION-NSCLC,PE,VISION-NSCLC-SITE001-0145,14,EYES,EYES,NORMAL,NORMAL,2.0,C1D1,TREATMENT,2024-03-09,1
VISION-NSCLC,PE,VISION-NSCLC-SITE001-0145,15,GENERALA,GENERAL APPEARANCE,NORMAL,NORMAL,2.0,C1D1,TREATMENT,2024-03-09,1
VISION-NSCLC,PE,VISION-NSCLC-SITE001-0145,16,HEADANDN,HEAD AND NECK,NORMAL,NORMAL,2.0,C1D1,TREATMENT,2024-03-09,1
VISION-NSCLC,PE,VISION-NSCLC-SITE001-0145,17,MUSCULOS,MUSCULOSKELETAL,NORMAL,NORMAL,2.0,C1D1,TREATMENT,2024-03-09,1
VISION-NSCLC,PE,VISION-NSCLC-SITE001-0145,18,NEUROLOG,NEUROLOGICAL,NORMAL,NORMAL,2.0,C1D1,TREATMENT,2024-03-09,1
VISION-NSCLC,PE,VISION-NSCLC-SITE001-0145,19,RESPIRAT,RESPIRATORY,NORMAL,NORMAL,2.0,C1D1,TREATMENT,2024-03-09,1
VISION-NSCLC,PE,VISION-NSCLC-SITE001-0145,20,SKIN,SKIN,NORMAL,NORMAL,2.0,C1D1,TREATMENT,2024-03-09,1
VISION-NSCLC,PE,VISION-NSCLC-SITE001-0148,1,ABDOMEN,ABDOMEN,NORMAL,NORMAL,1.0,SCREENING,SCREENING,2024-03-13,-11
VISION-NSCLC,PE,VISION-NSCLC-SITE001-0148,2,CARDIOVA,CARDIOVASCULAR,NORMAL,NORMAL,1.0,SCREENING,SCREENING,2024-03-13,-11
VISION-NSCLC,PE,VISION-NSCLC-SITE001-0148,3,EARSNOSE,"EARS, NOSE, AND THROAT",NORMAL,NORMAL,1.0,SCREENING,SCREENING,2024-03-13,-11
VISION-NSCLC,PE,VISION-NSCLC-SITE001-0148,4,EYES,EYES,NORMAL,NORMAL,1.0,SCREENING,SCREENING,2024-03-13,-11
VISION-NSCLC,PE,VISION-NSCLC-SITE001-0148,5,GENERALA,GENERAL APPEARANCE,NORMAL,NORMAL,1.0,SCREENING,SCREENING,2024-03-13,-11
VISION-NSCLC,PE,VISION-NSCLC-SITE001-0148,6,HEADANDN,HEAD AND NECK,NORMAL,NORMAL,1.0,SCREENING,SCREENING,2024-03-13,-11
VISION-NSCLC,PE,VISION-NSCLC-SITE001-0148,7,MUSCULOS,MUSCULOSKELETAL,NORMAL,NORMAL,1.0,SCREENING,SCREENING,2024-03-13,-11
VISION-NSCLC,PE,VISION-NSCLC-SITE001-0148,8,NEUROLOG,NEUROLOGICAL,NORMAL,NORMAL,1.0,SCREENING,SCREENING,2024-03-13,-11
VISION-NSCLC,PE,VISION-NSCLC-SITE001-0148,9,RESPIRAT,RESPIRATORY,NORMAL,NORMAL,1.0,SCREENING,SCREENING,2024-03-13,-11
VISION-NSCLC,PE,VISION-NSCLC-SITE001-0148,10,SKIN,SKIN,NORMAL,NORMAL,1.0,SCREENING,SCREENING,2024-03-13,-11
VISION-NSCLC,PE,VISION-NSCLC-SITE001-0148,11,ABDOMEN,ABDOMEN,NORMAL,NORMAL,2.0,C1D1,TREATMENT,2024-03-24,1
VISION-NSCLC,PE,VISION-NSCLC-SITE001-0148,12,CARDIOVA,CARDIOVASCULAR,NORMAL,NORMAL,2.0,C1D1,TREATMENT,2024-03-24,1
VISION-NSCLC,PE,VISION-NSCLC-SITE001-0148,13,EARSNOSE,"EARS, NOSE, AND THROAT",NORMAL,NORMAL,2.0,C1D1,TREATMENT,2024-03-24,1
VISION-NSCLC,PE,VISION-NSCLC-SITE001-0148,14,EYES,EYES,NORMAL,NORMAL,2.0,C1D1,TREATMENT,2024-03-24,1
VISION-NSCLC,PE,VISION-NSCLC-SITE001-0148,15,GENERALA,GENERAL APPEARANCE,NORMAL,NORMAL,2.0,C1D1,TREATMENT,2024-03-24,1
VISION-NSCLC,PE,VISION-NSCLC-SITE001-0148,16,HEADANDN,HEAD AND NECK,NORMAL,NORMAL,2.0,C1D1,TREATMENT,2024-03-24,1
VISION-NSCLC,PE,VISION-NSCLC-SITE001-0148,17,MUSCULOS,MUSCULOSKELETAL,NORMAL,NORMAL,2.0,C1D1,TREATMENT,2024-03-24,1
VISION-NSCLC,PE,VISION-NSCLC-SITE001-0148,18,NEUROLOG,NEUROLOGICAL,NORMAL,NORMAL,2.0,C1D1,TREATMENT,2024-03-24,1
VISION-NSCLC,PE,VISION-NSCLC-SITE001-0148,19,RESPIRAT,RESPIRATORY,NORMAL,NORMAL,2.0,C1D1,TREATMENT,2024-03-24,1
VISION-NSCLC,PE,VISION-NSCLC-SITE001-0148,20,SKIN,SKIN,NORMAL,NORMAL,2.0,C1D1,TREATMENT,2024-03-24,1
VISION-NSCLC,PE,VISION-NSCLC-SITE002-0002,1,ABDOMEN,ABDOMEN,NORMAL,NORMAL,1.0,SCREENING,SCREENING,2024-04-12,-22
VISION-NSCLC,PE,VISION-NSCLC-SITE002-0002,2,CARDIOVA,CARDIOVASCULAR,NORMAL,NORMAL,1.0,SCREENING,SCREENING,2024-04-12,-22
VISION-NSCLC,PE,VISION-NSCLC-SITE002-0002,3,EARSNOSE,"EARS, NOSE, AND THROAT",NORMAL,NORMAL,1.0,SCREENING,SCREENING,2024-04-12,-22
VISION-NSCLC,PE,VISION-NSCLC-SITE002-0002,4,EYES,EYES,NORMAL,NORMAL,1.0,SCREENING,SCREENING,2024-04-12,-22
VISION-NSCLC,PE,VISION-NSCLC-SITE002-0002,5,GENERALA,GENERAL APPEARANCE,NORMAL,NORMAL,1.0,SCREENING,SCREENING,2024-04-12,-22
VISION-NSCLC,PE,VISION-NSCLC-SITE002-0002,6,HEADANDN,HEAD AND NECK,NORMAL,NORMAL,1.0,SCREENING,SCREENING,2024-04-12,-22
VISION-NSCLC,PE,VISION-NSCLC-SITE002-0002,7,MUSCULOS,MUSCULOSKELETAL,NORMAL,NORMAL,1.0,SCREENING,SCREENING,2024-04-12,-22
VISION-NSCLC,PE,VISION-NSCLC-SITE002-0002,8,NEUROLOG,NEUROLOGICAL,NORMAL,NORMAL,1.0,SCREENING,SCREENING,2024-04-12,-22
VISION-NSCLC,PE,VISION-NSCLC-SITE002-0002,9,RESPIRAT,RESPIRATORY,NORMAL,NORMAL,1.0,SCREENING,SCREENING,2024-04-12,-22
VISION-NSCLC,PE,VISION-NSCLC-SITE002-0002,10,SKIN,SKIN,NORMAL,NORMAL,1.0,SCREENING,SCREENING,2024-04-12,-22
VISION-NSCLC,PE,VISION-NSCLC-SITE002-0002,11,ABDOMEN,ABDOMEN,NORMAL,NORMAL,2.0,C1D1,TREATMENT,2024-05-04,1
VISION-NSCLC,PE,VISION-NSCLC-SITE002-0002,12,CARDIOVA,CARDIOVASCULAR,NORMAL,NORMAL,2.0,C1D1,TREATMENT,2024-05-04,1
VISION-NSCLC,PE,VISION-NSCLC-SITE002-0002,13,EARSNOSE,"EARS, NOSE, AND THROAT",NORMAL,NORMAL,2.0,C1D1,TREATMENT,2024-05-04,1
VISION-NSCLC,PE,VISION-NSCLC-SITE002-0002,14,EYES,EYES,NORMAL,NORMAL,2.0,C1D1,TREATMENT,2024-05-04,1
VISION-NSCLC,PE,VISION-NSCLC-SITE002-0002,15,GENERALA,GENERAL APPEARANCE,NORMAL,NORMAL,2.0,C1D1,TREATMENT,2024-05-04,1
VISION-NSCLC,PE,VISION-NSCLC-SITE002-0002,16,HEADANDN,HEAD AND NECK,NORMAL,NORMAL,2.0,C1D1,TREATMENT,2024-05-04,1
VISION-NSCLC,PE,VISION-NSCLC-SITE002-0002,17,MUSCULOS,MUSCULOSKELETAL,NORMAL,NORMAL,2.0,C1D1,TREATMENT,2024-05-04,1
VISION-NSCLC,PE,VISION-NSCLC-SITE002-0002,18,NEUROLOG,NEUROLOGICAL,NORMAL,NORMAL,2.0,C1D1,TREATMENT,2024-05-04,1
VISION-NSCLC,PE,VISION-NSCLC-SITE002-0002,19,RESPIRAT,RESPIRATORY,NORMAL,NORMAL,2.0,C1D1,TREATMENT,2024-05-04,1
VISION-NSCLC,PE,VISION-NSCLC-SITE002-0002,20,SKIN,SKIN,NORMAL,NORMAL,2.0,C1D1,TREATMENT,2024-05-04,1
VISION-NSCLC,PE,VISION-NSCLC-SITE002-0005,1,ABDOMEN,ABDOMEN,DISTENSION,DISTENSION,1.0,SCREENING,SCREENING,2024-04-03,-16
VISION-NSCLC,PE,VISION-NSCLC-SITE002-0005,2,CARDIOVA,CARDIOVASCULAR,NORMAL,NORMAL,1.0,SCREENING,SCREENING,2024-04-03,-16
VISION-NSCLC,PE,VISION-NSCLC-SITE002-0005,3,EARSNOSE,"EARS, NOSE, AND THROAT",NORMAL,NORMAL,1.0,SCREENING,SCREENING,2024-04-03,-16
VISION-NSCLC,PE,VISION-NSCLC-SITE002-0005,4,EYES,EYES,NORMAL,NORMAL,1.0,SCREENING,SCREENING,2024-04-03,-16
VISION-NSCLC,PE,VISION-NSCLC-SITE002-0005,5,GENERALA,GENERAL APPEARANCE,NORMAL,NORMAL,1.0,SCREENING,SCREENING,2024-04-03,-16
VISION-NSCLC,PE,VISION-NSCLC-SITE002-0005,6,HEADANDN,HEAD AND NECK,THYROMEGALY,THYROMEGALY,1.0,SCREENING,SCREENING,2024-04-03,-16
VISION-NSCLC,PE,VISION-NSCLC-SITE002-0005,7,MUSCULOS,MUSCULOSKELETAL,NORMAL,NORMAL,1.0,SCREENING,SCREENING,2024-04-03,-16
VISION-NSCLC,PE,VISION-NSCLC-SITE002-0005,8,NEUROLOG,NEUROLOGICAL,NORMAL,NORMAL,1.0,SCREENING,SCREENING,2024-04-03,-16
VISION-NSCLC,PE,VISION-NSCLC-SITE002-0005,9,RESPIRAT,RESPIRATORY,NORMAL,NORMAL,1.0,SCREENING,SCREENING,2024-04-03,-16
VISION-NSCLC,PE,VISION-NSCLC-SITE002-0005,10,SKIN,SKIN,NORMAL,NORMAL,1.0,SCREENING,SCREENING,2024-04-03,-16
VISION-NSCLC,PE,VISION-NSCLC-SITE002-0005,11,ABDOMEN,ABDOMEN,NORMAL,NORMAL,2.0,C1D1,TREATMENT,2024-04-19,1
VISION-NSCLC,PE,VISION-NSCLC-SITE002-0005,12,CARDIOVA,CARDIOVASCULAR,NORMAL,NORMAL,2.0,C1D1,TREATMENT,2024-04-19,1
VISION-NSCLC,PE,VISION-NSCLC-SITE002-0005,13,EARSNOSE,"EARS, NOSE, AND THROAT",NORMAL,NORMAL,2.0,C1D1,TREATMENT,2024-04-19,1
VISION-NSCLC,PE,VISION-NSCLC-SITE002-0005,14,EYES,EYES,NORMAL,NORMAL,2.0,C1D1,TREATMENT,2024-04-19,1
VISION-NSCLC,PE,VISION-NSCLC-SITE002-0005,15,GENERALA,GENERAL APPEARANCE,NORMAL,NORMAL,2.0,C1D1,TREATMENT,2024-04-19,1
VISION-NSCLC,PE,VISION-NSCLC-SITE002-0005,16,HEADANDN,HEAD AND NECK,NORMAL,NORMAL,2.0,C1D1,TREATMENT,2024-04-19,1
VISION-NSCLC,PE,VISION-NSCLC-SITE002-0005,17,MUSCULOS,MUSCULOSKELETAL,NORMAL,NORMAL,2.0,C1D1,TREATMENT,2024-04-19,1
VISION-NSCLC,PE,VISION-NSCLC-SITE002-0005,18,NEUROLOG,NEUROLOGICAL,NORMAL,NORMAL,2.0,C1D1,TREATMENT,2024-04-19,1
VISION-NSCLC,PE,VISION-NSCLC-SITE002-0005,19,RESPIRAT,RESPIRATORY,NORMAL,NORMAL,2.0,C1D1,TREATMENT,2024-04-19,1
VISION-NSCLC,PE,VISION-NSCLC-SITE002-0005,20,SKIN,SKIN,NORMAL,NORMAL,2.0,C1D1,TREATMENT,2024-04-19,1
VISION-NSCLC,PE,VISION-NSCLC-SITE002-0008,1,ABDOMEN,ABDOMEN,NORMAL,NORMAL,1.0,SCREENING,SCREENING,2024-01-22,-32
VISION-NSCLC,PE,VISION-NSCLC-SITE002-0008,2,CARDIOVA,CARDIOVASCULAR,NORMAL,NORMAL,1.0,SCREENING,SCREENING,2024-01-22,-32
VISION-NSCLC,PE,VISION-NSCLC-SITE002-0008,3,EARSNOSE,"EARS, NOSE, AND THROAT",NORMAL,NORMAL,1.0,SCREENING,SCREENING,2024-01-22,-32
VISION-NSCLC,PE,VISION-NSCLC-SITE002-0008,4,EYES,EYES,NORMAL,NORMAL,1.0,SCREENING,SCREENING,2024-01-22,-32
VISION-NSCLC,PE,VISION-NSCLC-SITE002-0008,5,GENERALA,GENERAL APPEARANCE,NORMAL,NORMAL,1.0,SCREENING,SCREENING,2024-01-22,-32
VISION-NSCLC,PE,VISION-NSCLC-SITE002-0008,6,HEADANDN,HEAD AND NECK,NORMAL,NORMAL,1.0,SCREENING,SCREENING,2024-01-22,-32
VISION-NSCLC,PE,VISION-NSCLC-SITE002-0008,7,MUSCULOS,MUSCULOSKELETAL,NORMAL,NORMAL,1.0,SCREENING,SCREENING,2024-01-22,-32
VISION-NSCLC,PE,VISION-NSCLC-SITE002-0008,8,NEUROLOG,NEUROLOGICAL,NORMAL,NORMAL,1.0,SCREENING,SCREENING,2024-01-22,-32
VISION-NSCLC,PE,VISION-NSCLC-SITE002-0008,9,RESPIRAT,RESPIRATORY,NORMAL,NORMAL,1.0,SCREENING,SCREENING,2024-01-22,-32
VISION-NSCLC,PE,VISION-NSCLC-SITE002-0008,10,SKIN,SKIN,BRUISING,BRUISING,1.0,SCREENING,SCREENING,2024-01-22,-32
VISION-NSCLC,PE,VISION-NSCLC-SITE002-0008,11,ABDOMEN,ABDOMEN,NORMAL,NORMAL,2.0,C1D1,TREATMENT,2024-02-23,1
VISION-NSCLC,PE,VISION-NSCLC-SITE002-0008,12,CARDIOVA,CARDIOVASCULAR,NORMAL,NORMAL,2.0,C1D1,TREATMENT,2024-02-23,1
VISION-NSCLC,PE,VISION-NSCLC-SITE002-0008,13,EARSNOSE,"EARS, NOSE, AND THROAT",NORMAL,NORMAL,2.0,C1D1,TREATMENT,2024-02-23,1
VISION-NSCLC,PE,VISION-NSCLC-SITE002-0008,14,EYES,EYES,NORMAL,NORMAL,2.0,C1D1,TREATMENT,2024-02-23,1
VISION-NSCLC,PE,VISION-NSCLC-SITE002-0008,15,GENERALA,GENERAL APPEARANCE,NORMAL,NORMAL,2.0,C1D1,TREATMENT,2024-02-23,1
VISION-NSCLC,PE,VISION-NSCLC-SITE002-0008,16,HEADANDN,HEAD AND NECK,NORMAL,NORMAL,2.0,C1D1,TREATMENT,2024-02-23,1
VISION-NSCLC,PE,VISION-NSCLC-SITE002-0008,17,MUSCULOS,MUSCULOSKELETAL,NORMAL,NORMAL,2.0,C1D1,TREATMENT,2024-02-23,1
VISION-NSCLC,PE,VISION-NSCLC-SITE002-0008,18,NEUROLOG,NEUROLOGICAL,NORMAL,NORMAL,2.0,C1D1,TREATMENT,2024-02-23,1
VISION-NSCLC,PE,VISION-NSCLC-SITE002-0008,19,RESPIRAT,RESPIRATORY,NORMAL,NORMAL,2.0,C1D1,TREATMENT,2024-02-23,1
VISION-NSCLC,PE,VISION-NSCLC-SITE002-0008,20,SKIN,SKIN,NORMAL,NORMAL,2.0,C1D1,TREATMENT,2024-02-23,1
VISION-NSCLC,PE,VISION-NSCLC-SITE002-0011,1,ABDOMEN,ABDOMEN,NORMAL,NORMAL,1.0,SCREENING,SCREENING,2024-02-24,-32
VISION-NSCLC,PE,VISION-NSCLC-SITE002-0011,2,CARDIOVA,CARDIOVASCULAR,NORMAL,NORMAL,1.0,SCREENING,SCREENING,2024-02-24,-32
VISION-NSCLC,PE,VISION-NSCLC-SITE002-0011,3,EARSNOSE,"EARS, NOSE, AND THROAT",NORMAL,NORMAL,1.0,SCREENING,SCREENING,2024-02-24,-32
VISION-NSCLC,PE,VISION-NSCLC-SITE002-0011,4,EYES,EYES,NORMAL,NORMAL,1.0,SCREENING,SCREENING,2024-02-24,-32
VISION-NSCLC,PE,VISION-NSCLC-SITE002-0011,5,GENERALA,GENERAL APPEARANCE,NORMAL,NORMAL,1.0,SCREENING,SCREENING,2024-02-24,-32
VISION-NSCLC,PE,VISION-NSCLC-SITE002-0011,6,HEADANDN,HEAD AND NECK,NORMAL,NORMAL,1.0,SCREENING,SCREENING,2024-02-24,-32
VISION-NSCLC,PE,VISION-NSCLC-SITE002-0011,7,MUSCULOS,MUSCULOSKELETAL,NORMAL,NORMAL,1.0,SCREENING,SCREENING,2024-02-24,-32
VISION-NSCLC,PE,VISION-NSCLC-SITE002-0011,8,NEUROLOG,NEUROLOGICAL,TREMOR,TREMOR,1.0,SCREENING,SCREENING,2024-02-24,-32
VISION-NSCLC,PE,VISION-NSCLC-SITE002-0011,9,RESPIRAT,RESPIRATORY,NORMAL,NORMAL,1.0,SCREENING,SCREENING,2024-02-24,-32
VISION-NSCLC,PE,VISION-NSCLC-SITE002-0011,10,SKIN,SKIN,BRUISING,BRUISING,1.0,SCREENING,SCREENING,2024-02-24,-32
VISION-NSCLC,PE,VISION-NSCLC-SITE002-0011,11,ABDOMEN,ABDOMEN,NORMAL,NORMAL,2.0,C1D1,TREATMENT,2024-03-27,1
VISION-NSCLC,PE,VISION-NSCLC-SITE002-0011,12,CARDIOVA,CARDIOVASCULAR,NORMAL,NORMAL,2.0,C1D1,TREATMENT,2024-03-27,1
VISION-NSCLC,PE,VISION-NSCLC-SITE002-0011,13,EARSNOSE,"EARS, NOSE, AND THROAT",NORMAL,NORMAL,2.0,C1D1,TREATMENT,2024-03-27,1
VISION-NSCLC,PE,VISION-NSCLC-SITE002-0011,14,EYES,EYES,NORMAL,NORMAL,2.0,C1D1,TREATMENT,2024-03-27,1
VISION-NSCLC,PE,VISION-NSCLC-SITE002-0011,15,GENERALA,GENERAL APPEARANCE,NORMAL,NORMAL,2.0,C1D1,TREATMENT,2024-03-27,1
VISION-NSCLC,PE,VISION-NSCLC-SITE002-0011,16,HEADANDN,HEAD AND NECK,NORMAL,NORMAL,2.0,C1D1,TREATMENT,2024-03-27,1
VISION-NSCLC,PE,VISION-NSCLC-SITE002-0011,17,MUSCULOS,MUSCULOSKELETAL,NORMAL,NORMAL,2.0,C1D1,TREATMENT,2024-03-27,1
VISION-NSCLC,PE,VISION-NSCLC-SITE002-0011,18,NEUROLOG,NEUROLOGICAL,NORMAL,NORMAL,2.0,C1D1,TREATMENT,2024-03-27,1
VISION-NSCLC,PE,VISION-NSCLC-SITE002-0011,19,RESPIRAT,RESPIRATORY,NORMAL,NORMAL,2.0,C1D1,TREATMENT,2024-03-27,1
VISION-NSCLC,PE,VISION-NSCLC-SITE002-0011,20,SKIN,SKIN,NORMAL,NORMAL,2.0,C1D1,TREATMENT,2024-03-27,1
VISION-NSCLC,PE,VISION-NSCLC-SITE002-0014,1,ABDOMEN,ABDOMEN,NORMAL,NORMAL,1.0,SCREENING,SCREENING,2024-03-18,-15
VISION-NSCLC,PE,VISION-NSCLC-SITE002-0014,2,CARDIOVA,CARDIOVASCULAR,NORMAL,NORMAL,1.0,SCREENING,SCREENING,2024-03-18,-15
VISION-NSCLC,PE,VISION-NSCLC-SITE002-0014,3,EARSNOSE,"EARS, NOSE, AND THROAT",NORMAL,NORMAL,1.0,SCREENING,SCREENING,2024-03-18,-15
VISION-NSCLC,PE,VISION-NSCLC-SITE002-0014,4,EYES,EYES,NORMAL,NORMAL,1.0,SCREENING,SCREENING,2024-03-18,-15
VISION-NSCLC,PE,VISION-NSCLC-SITE002-0014,5,GENERALA,GENERAL APPEARANCE,NORMAL,NORMAL,1.0,SCREENING,SCREENING,2024-03-18,-15
VISION-NSCLC,PE,VISION-NSCLC-SITE002-0014,6,HEADANDN,HEAD AND NECK,NORMAL,NORMAL,1.0,SCREENING,SCREENING,2024-03-18,-15
VISION-NSCLC,PE,VISION-NSCLC-SITE002-0014,7,MUSCULOS,MUSCULOSKELETAL,NORMAL,NORMAL,1.0,SCREENING,SCREENING,2024-03-18,-15
VISION-NSCLC,PE,VISION-NSCLC-SITE002-0014,8,NEUROLOG,NEUROLOGICAL,NORMAL,NORMAL,1.0,SCREENING,SCREENING,2024-03-18,-15
VISION-NSCLC,PE,VISION-NSCLC-SITE002-0014,9,RESPIRAT,RESPIRATORY,NORMAL,NORMAL,1.0,SCREENING,SCREENING,2024-03-18,-15
VISION-NSCLC,PE,VISION-NSCLC-SITE002-0014,10,SKIN,SKIN,NORMAL,NORMAL,1.0,SCREENING,SCREENING,2024-03-18,-15
VISION-NSCLC,PE,VISION-NSCLC-SITE002-0014,11,ABDOMEN,ABDOMEN,NORMAL,NORMAL,2.0,C1D1,TREATMENT,2024-04-02,1
VISION-NSCLC,PE,VISION-NSCLC-SITE002-0014,12,CARDIOVA,CARDIOVASCULAR,NORMAL,NORMAL,2.0,C1D1,TREATMENT,2024-04-02,1
VISION-NSCLC,PE,VISION-NSCLC-SITE002-0014,13,EARSNOSE,"EARS, NOSE, AND THROAT",NORMAL,NORMAL,2.0,C1D1,TREATMENT,2024-04-02,1
VISION-NSCLC,PE,VISION-NSCLC-SITE002-0014,14,EYES,EYES,NORMAL,NORMAL,2.0,C1D1,TREATMENT,2024-04-02,1
VISION-NSCLC,PE,VISION-NSCLC-SITE002-0014,15,GENERALA,GENERAL APPEARANCE,NORMAL,NORMAL,2.0,C1D1,TREATMENT,2024-04-02,1
VISION-NSCLC,PE,VISION-NSCLC-SITE002-0014,16,HEADANDN,HEAD AND NECK,NORMAL,NORMAL,2.0,C1D1,TREATMENT,2024-04-02,1
VISION-NSCLC,PE,VISION-NSCLC-SITE002-0014,17,MUSCULOS,MUSCULOSKELETAL,JOINT TENDERNESS,JOINT TENDERNESS,2.0,C1D1,TREATMENT,2024-04-02,1
VISION-NSCLC,PE,VISION-NSCLC-SITE002-0014,18,NEUROLOG,NEUROLOGICAL,NORMAL,NORMAL,2.0,C1D1,TREATMENT,2024-04-02,1
VISION-NSCLC,PE,VISION-NSCLC-SITE002-0014,19,RESPIRAT,RESPIRATORY,NORMAL,NORMAL,2.0,C1D1,TREATMENT,2024-04-02,1
VISION-NSCLC,PE,VISION-NSCLC-SITE002-0014,20,SKIN,SKIN,NORMAL,NORMAL,2.0,C1D1,TREATMENT,2024-04-02,1
VISION-NSCLC,PE,VISION-NSCLC-SITE002-0017,1,ABDOMEN,ABDOMEN,NORMAL,NORMAL,1.0,SCREENING,SCREENING,2024-02-11,-33
VISION-NSCLC,PE,VISION-NSCLC-SITE002-0017,2,CARDIOVA,CARDIOVASCULAR,NORMAL,NORMAL,1.0,SCREENING,SCREENING,2024-02-11,-33
VISION-NSCLC,PE,VISION-NSCLC-SITE002-0017,3,EARSNOSE,"EARS, NOSE, AND THROAT",NORMAL,NORMAL,1.0,SCREENING,SCREENING,2024-02-11,-33
VISION-NSCLC,PE,VISION-NSCLC-SITE002-0017,4,EYES,EYES,NORMAL,NORMAL,1.0,SCREENING,SCREENING,2024-02-11,-33
VISION-NSCLC,PE,VISION-NSCLC-SITE002-0017,5,GENERALA,GENERAL APPEARANCE,NORMAL,NORMAL,1.0,SCREENING,SCREENING,2024-02-11,-33
VISION-NSCLC,PE,VISION-NSCLC-SITE002-0017,6,HEADANDN,HEAD AND NECK,NORMAL,NORMAL,1.0,SCREENING,SCREENING,2024-02-11,-33
VISION-NSCLC,PE,VISION-NSCLC-SITE002-0017,7,MUSCULOS,MUSCULOSKELETAL,NORMAL,NORMAL,1.0,SCREENING,SCREENING,2024-02-11,-33
VISION-NSCLC,PE,VISION-NSCLC-SITE002-0017,8,NEUROLOG,NEUROLOGICAL,NORMAL,NORMAL,1.0,SCREENING,SCREENING,2024-02-11,-33
VISION-NSCLC,PE,VISION-NSCLC-SITE002-0017,9,RESPIRAT,RESPIRATORY,NORMAL,NORMAL,1.0,SCREENING,SCREENING,2024-02-11,-33
VISION-NSCLC,PE,VISION-NSCLC-SITE002-0017,10,SKIN,SKIN,NORMAL,NORMAL,1.0,SCREENING,SCREENING,2024-02-11,-33
VISION-NSCLC,PE,VISION-NSCLC-SITE002-0017,11,ABDOMEN,ABDOMEN,NORMAL,NORMAL,2.0,C1D1,TREATMENT,2024-03-15,1
VISION-NSCLC,PE,VISION-NSCLC-SITE002-0017,12,CARDIOVA,CARDIOVASCULAR,NORMAL,NORMAL,2.0,C1D1,TREATMENT,2024-03-15,1
VISION-NSCLC,PE,VISION-NSCLC-SITE002-0017,13,EARSNOSE,"EARS, NOSE, AND THROAT",NORMAL,NORMAL,2.0,C1D1,TREATMENT,2024-03-15,1
VISION-NSCLC,PE,VISION-NSCLC-SITE002-0017,14,EYES,EYES,CONJUNCTIVAL PALLOR,CONJUNCTIVAL PALLOR,2.0,C1D1,TREATMENT,2024-03-15,1
VISION-NSCLC,PE,VISION-NSCLC-SITE002-0017,15,GENERALA,GENERAL APPEARANCE,NORMAL,NORMAL,2.0,C1D1,TREATMENT,2024-03-15,1
VISION-NSCLC,PE,VISION-NSCLC-SITE002-0017,16,HEADANDN,HEAD AND NECK,NORMAL,NORMAL,2.0,C1D1,TREATMENT,2024-03-15,1
VISION-NSCLC,PE,VISION-NSCLC-SITE002-0017,17,MUSCULOS,MUSCULOSKELETAL,NORMAL,NORMAL,2.0,C1D1,TREATMENT,2024-03-15,1
VISION-NSCLC,PE,VISION-NSCLC-SITE002-0017,18,NEUROLOG,NEUROLOGICAL,NORMAL,NORMAL,2.0,C1D1,TREATMENT,2024-03-15,1
VISION-NSCLC,PE,VISION-NSCLC-SITE002-0017,19,RESPIRAT,RESPIRATORY,NORMAL,NORMAL,2.0,C1D1,TREATMENT,2024-03-15,1
VISION-NSCLC,PE,VISION-NSCLC-SITE002-0017,20,SKIN,SKIN,NORMAL,NORMAL,2.0,C1D1,TREATMENT,2024-03-15,1
VISION-NSCLC,PE,VISION-NSCLC-SITE002-0020,1,ABDOMEN,ABDOMEN,NORMAL,NORMAL,1.0,SCREENING,SCREENING,2024-02-20,-27
VISION-NSCLC,PE,VISION-NSCLC-SITE002-0020,2,CARDIOVA,CARDIOVASCULAR,NORMAL,NORMAL,1.0,SCREENING,SCREENING,2024-02-20,-27
VISION-NSCLC,PE,VISION-NSCLC-SITE002-0020,3,EARSNOSE,"EARS, NOSE, AND THROAT",NORMAL,NORMAL,1.0,SCREENING,SCREENING,2024-02-20,-27
VISION-NSCLC,PE,VISION-NSCLC-SITE002-0020,4,EYES,EYES,NORMAL,NORMAL,1.0,SCREENING,SCREENING,2024-02-20,-27
VISION-NSCLC,PE,VISION-NSCLC-SITE002-0020,5,GENERALA,GENERAL APPEARANCE,NORMAL,NORMAL,1.0,SCREENING,SCREENING,2024-02-20,-27
VISION-NSCLC,PE,VISION-NSCLC-SITE002-0020,6,HEADANDN,HEAD AND NECK,NORMAL,NORMAL,1.0,SCREENING,SCREENING,2024-02-20,-27
VISION-NSCLC,PE,VISION-NSCLC-SITE002-0020,7,MUSCULOS,MUSCULOSKELETAL,NORMAL,NORMAL,1.0,SCREENING,SCREENING,2024-02-20,-27
VISION-NSCLC,PE,VISION-NSCLC-SITE002-0020,8,NEUROLOG,NEUROLOGICAL,NORMAL,NORMAL,1.0,SCREENING,SCREENING,2024-02-20,-27
VISION-NSCLC,PE,VISION-NSCLC-SITE002-0020,9,RESPIRAT,RESPIRATORY,NORMAL,NORMAL,1.0,SCREENING,SCREENING,2024-02-20,-27
VISION-NSCLC,PE,VISION-NSCLC-SITE002-0020,10,SKIN,SKIN,NORMAL,NORMAL,1.0,SCREENING,SCREENING,2024-02-20,-27
VISION-NSCLC,PE,VISION-NSCLC-SITE002-0020,11,ABDOMEN,ABDOMEN,NORMAL,NORMAL,2.0,C1D1,TREATMENT,2024-03-18,1
VISION-NSCLC,PE,VISION-NSCLC-SITE002-0020,12,CARDIOVA,CARDIOVASCULAR,NORMAL,NORMAL,2.0,C1D1,TREATMENT,2024-03-18,1
VISION-NSCLC,PE,VISION-NSCLC-SITE002-0020,13,EARSNOSE,"EARS, NOSE, AND THROAT",NORMAL,NORMAL,2.0,C1D1,TREATMENT,2024-03-18,1
VISION-NSCLC,PE,VISION-NSCLC-SITE002-0020,14,EYES,EYES,NORMAL,NORMAL,2.0,C1D1,TREATMENT,2024-03-18,1
VISION-NSCLC,PE,VISION-NSCLC-SITE002-0020,15,GENERALA,GENERAL APPEARANCE,NORMAL,NORMAL,2.0,C1D1,TREATMENT,2024-03-18,1
VISION-NSCLC,PE,VISION-NSCLC-SITE002-0020,16,HEADANDN,HEAD AND NECK,NORMAL,NORMAL,2.0,C1D1,TREATMENT,2024-03-18,1
VISION-NSCLC,PE,VISION-NSCLC-SITE002-0020,17,MUSCULOS,MUSCULOSKELETAL,NORMAL,NORMAL,2.0,C1D1,TREATMENT,2024-03-18,1
VISION-NSCLC,PE,VISION-NSCLC-SITE002-0020,18,NEUROLOG,NEUROLOGICAL,NORMAL,NORMAL,2.0,C1D1,TREATMENT,2024-03-18,1
VISION-NSCLC,PE,VISION-NSCLC-SITE002-0020,19,RESPIRAT,RESPIRATORY,NORMAL,NORMAL,2.0,C1D1,TREATMENT,2024-03-18,1
VISION-NSCLC,PE,VISION-NSCLC-SITE002-0020,20,SKIN,SKIN,NORMAL,NORMAL,2.0,C1D1,TREATMENT,2024-03-18,1
VISION-NSCLC,PE,VISION-NSCLC-SITE002-0023,1,ABDOMEN,ABDOMEN,NORMAL,NORMAL,1.0,SCREENING,SCREENING,2024-02-03,-30
VISION-NSCLC,PE,VISION-NSCLC-SITE002-0023,2,CARDIOVA,CARDIOVASCULAR,NORMAL,NORMAL,1.0,SCREENING,SCREENING,2024-02-03,-30
VISION-NSCLC,PE,VISION-NSCLC-SITE002-0023,3,EARSNOSE,"EARS, NOSE, AND THROAT",NORMAL,NORMAL,1.0,SCREENING,SCREENING,2024-02-03,-30
VISION-NSCLC,PE,VISION-NSCLC-SITE002-0023,4,EYES,EYES,NORMAL,NORMAL,1.0,SCREENING,SCREENING,2024-02-03,-30
VISION-NSCLC,PE,VISION-NSCLC-SITE002-0023,5,GENERALA,GENERAL APPEARANCE,NORMAL,NORMAL,1.0,SCREENING,SCREENING,2024-02-03,-30
VISION-NSCLC,PE,VISION-NSCLC-SITE002-0023,6,HEADANDN,HEAD AND NECK,NORMAL,NORMAL,1.0,SCREENING,SCREENING,2024-02-03,-30
VISION-NSCLC,PE,VISION-NSCLC-SITE002-0023,7,MUSCULOS,MUSCULOSKELETAL,NORMAL,NORMAL,1.0,SCREENING,SCREENING,2024-02-03,-30
VISION-NSCLC,PE,VISION-NSCLC-SITE002-0023,8,NEUROLOG,NEUROLOGICAL,NORMAL,NORMAL,1.0,SCREENING,SCREENING,2024-02-03,-30
VISION-NSCLC,PE,VISION-NSCLC-SITE002-0023,9,RESPIRAT,RESPIRATORY,NORMAL,NORMAL,1.0,SCREENING,SCREENING,2024-02-03,-30
VISION-NSCLC,PE,VISION-NSCLC-SITE002-0023,10,SKIN,SKIN,NORMAL,NORMAL,1.0,SCREENING,SCREENING,2024-02-03,-30
VISION-NSCLC,PE,VISION-NSCLC-SITE002-0023,11,ABDOMEN,ABDOMEN,NORMAL,NORMAL,2.0,C1D1,TREATMENT,2024-03-04,1
VISION-NSCLC,PE,VISION-NSCLC-SITE002-0023,12,CARDIOVA,CARDIOVASCULAR,NORMAL,NORMAL,2.0,C1D1,TREATMENT,2024-03-04,1
VISION-NSCLC,PE,VISION-NSCLC-SITE002-0023,13,EARSNOSE,"EARS, NOSE, AND THROAT",NORMAL,NORMAL,2.0,C1D1,TREATMENT,2024-03-04,1
VISION-NSCLC,PE,VISION-NSCLC-SITE002-0023,14,EYES,EYES,NORMAL,NORMAL,2.0,C1D1,TREATMENT,2024-03-04,1
VISION-NSCLC,PE,VISION-NSCLC-SITE002-0023,15,GENERALA,GENERAL APPEARANCE,NORMAL,NORMAL,2.0,C1D1,TREATMENT,2024-03-04,1
VISION-NSCLC,PE,VISION-NSCLC-SITE002-0023,16,HEADANDN,HEAD AND NECK,NORMAL,NORMAL,2.0,C1D1,TREATMENT,2024-03-04,1
VISION-NSCLC,PE,VISION-NSCLC-SITE002-0023,17,MUSCULOS,MUSCULOSKELETAL,NORMAL,NORMAL,2.0,C1D1,TREATMENT,2024-03-04,1
VISION-NSCLC,PE,VISION-NSCLC-SITE002-0023,18,NEUROLOG,NEUROLOGICAL,NORMAL,NORMAL,2.0,C1D1,TREATMENT,2024-03-04,1
VISION-NSCLC,PE,VISION-NSCLC-SITE002-0023,19,RESPIRAT,RESPIRATORY,NORMAL,NORMAL,2.0,C1D1,TREATMENT,2024-03-04,1
VISION-NSCLC,PE,VISION-NSCLC-SITE002-0023,20,SKIN,SKIN,NORMAL,NORMAL,2.0,C1D1,TREATMENT,2024-03-04,1
VISION-NSCLC,PE,VISION-NSCLC-SITE002-0026,1,ABDOMEN,ABDOMEN,NORMAL,NORMAL,1.0,SCREENING,SCREENING,2024-04-09,-11
VISION-NSCLC,PE,VISION-NSCLC-SITE002-0026,2,CARDIOVA,CARDIOVASCULAR,NORMAL,NORMAL,1.0,SCREENING,SCREENING,2024-04-09,-11
VISION-NSCLC,PE,VISION-NSCLC-SITE002-0026,3,EARSNOSE,"EARS, NOSE, AND THROAT",NORMAL,NORMAL,1.0,SCREENING,SCREENING,2024-04-09,-11
VISION-NSCLC,PE,VISION-NSCLC-SITE002-0026,4,EYES,EYES,NORMAL,NORMAL,1.0,SCREENING,SCREENING,2024-04-09,-11
VISION-NSCLC,PE,VISION-NSCLC-SITE002-0026,5,GENERALA,GENERAL APPEARANCE,NORMAL,NORMAL,1.0,SCREENING,SCREENING,2024-04-09,-11
VISION-NSCLC,PE,VISION-NSCLC-SITE002-0026,6,HEADANDN,HEAD AND NECK,NORMAL,NORMAL,1.0,SCREENING,SCREENING,2024-04-09,-11
VISION-NSCLC,PE,VISION-NSCLC-SITE002-0026,7,MUSCULOS,MUSCULOSKELETAL,NORMAL,NORMAL,1.0,SCREENING,SCREENING,2024-04-09,-11
VISION-NSCLC,PE,VISION-NSCLC-SITE002-0026,8,NEUROLOG,NEUROLOGICAL,NORMAL,NORMAL,1.0,SCREENING,SCREENING,2024-04-09,-11
VISION-NSCLC,PE,VISION-NSCLC-SITE002-0026,9,RESPIRAT,RESPIRATORY,NORMAL,NORMAL,1.0,SCREENING,SCREENING,2024-04-09,-11
VISION-NSCLC,PE,VISION-NSCLC-SITE002-0026,10,SKIN,SKIN,NORMAL,NORMAL,1.0,SCREENING,SCREENING,2024-04-09,-11
VISION-NSCLC,PE,VISION-NSCLC-SITE002-0026,11,ABDOMEN,ABDOMEN,NORMAL,NORMAL,2.0,C1D1,TREATMENT,2024-04-20,1
VISION-NSCLC,PE,VISION-NSCLC-SITE002-0026,12,CARDIOVA,CARDIOVASCULAR,NORMAL,NORMAL,2.0,C1D1,TREATMENT,2024-04-20,1
VISION-NSCLC,PE,VISION-NSCLC-SITE002-0026,13,EARSNOSE,"EARS, NOSE, AND THROAT",NORMAL,NORMAL,2.0,C1D1,TREATMENT,2024-04-20,1
VISION-NSCLC,PE,VISION-NSCLC-SITE002-0026,14,EYES,EYES,NORMAL,NORMAL,2.0,C1D1,TREATMENT,2024-04-20,1
VISION-NSCLC,PE,VISION-NSCLC-SITE002-0026,15,GENERALA,GENERAL APPEARANCE,NORMAL,NORMAL,2.0,C1D1,TREATMENT,2024-04-20,1
VISION-NSCLC,PE,VISION-NSCLC-SITE002-0026,16,HEADANDN,HEAD AND NECK,NORMAL,NORMAL,2.0,C1D1,TREATMENT,2024-04-20,1
VISION-NSCLC,PE,VISION-NSCLC-SITE002-0026,17,MUSCULOS,MUSCULOSKELETAL,NORMAL,NORMAL,2.0,C1D1,TREATMENT,2024-04-20,1
VISION-NSCLC,PE,VISION-NSCLC-SITE002-0026,18,NEUROLOG,NEUROLOGICAL,NORMAL,NORMAL,2.0,C1D1,TREATMENT,2024-04-20,1
VISION-NSCLC,PE,VISION-NSCLC-SITE002-0026,19,RESPIRAT,RESPIRATORY,NORMAL,NORMAL,2.0,C1D1,TREATMENT,2024-04-20,1
VISION-NSCLC,PE,VISION-NSCLC-SITE002-0026,20,SKIN,SKIN,NORMAL,NORMAL,2.0,C1D1,TREATMENT,2024-04-20,1
VISION-NSCLC,PE,VISION-NSCLC-SITE002-0029,1,ABDOMEN,ABDOMEN,NORMAL,NORMAL,1.0,SCREENING,SCREENING,2024-02-18,-23
VISION-NSCLC,PE,VISION-NSCLC-SITE002-0029,2,CARDIOVA,CARDIOVASCULAR,NORMAL,NORMAL,1.0,SCREENING,SCREENING,2024-02-18,-23
VISION-NSCLC,PE,VISION-NSCLC-SITE002-0029,3,EARSNOSE,"EARS, NOSE, AND THROAT",NORMAL,NORMAL,1.0,SCREENING,SCREENING,2024-02-18,-23
VISION-NSCLC,PE,VISION-NSCLC-SITE002-0029,4,EYES,EYES,NORMAL,NORMAL,1.0,SCREENING,SCREENING,2024-02-18,-23
VISION-NSCLC,PE,VISION-NSCLC-SITE002-0029,5,GENERALA,GENERAL APPEARANCE,NORMAL,NORMAL,1.0,SCREENING,SCREENING,2024-02-18,-23
VISION-NSCLC,PE,VISION-NSCLC-SITE002-0029,6,HEADANDN,HEAD AND NECK,NORMAL,NORMAL,1.0,SCREENING,SCREENING,2024-02-18,-23
VISION-NSCLC,PE,VISION-NSCLC-SITE002-0029,7,MUSCULOS,MUSCULOSKELETAL,NORMAL,NORMAL,1.0,SCREENING,SCREENING,2024-02-18,-23
VISION-NSCLC,PE,VISION-NSCLC-SITE002-0029,8,NEUROLOG,NEUROLOGICAL,NORMAL,NORMAL,1.0,SCREENING,SCREENING,2024-02-18,-23
VISION-NSCLC,PE,VISION-NSCLC-SITE002-0029,9,RESPIRAT,RESPIRATORY,NORMAL,NORMAL,1.0,SCREENING,SCREENING,2024-02-18,-23
VISION-NSCLC,PE,VISION-NSCLC-SITE002-0029,10,SKIN,SKIN,NORMAL,NORMAL,1.0,SCREENING,SCREENING,2024-02-18,-23
VISION-NSCLC,PE,VISION-NSCLC-SITE002-0029,11,ABDOMEN,ABDOMEN,NORMAL,NORMAL,2.0,C1D1,TREATMENT,2024-03-12,1
VISION-NSCLC,PE,VISION-NSCLC-SITE002-0029,12,CARDIOVA,CARDIOVASCULAR,NORMAL,NORMAL,2.0,C1D1,TREATMENT,2024-03-12,1
VISION-NSCLC,PE,VISION-NSCLC-SITE002-0029,13,EARSNOSE,"EARS, NOSE, AND THROAT",NORMAL,NORMAL,2.0,C1D1,TREATMENT,2024-03-12,1
VISION-NSCLC,PE,VISION-NSCLC-SITE002-0029,14,EYES,EYES,NORMAL,NORMAL,2.0,C1D1,TREATMENT,2024-03-12,1
VISION-NSCLC,PE,VISION-NSCLC-SITE002-0029,15,GENERALA,GENERAL APPEARANCE,NORMAL,NORMAL,2.0,C1D1,TREATMENT,2024-03-12,1
VISION-NSCLC,PE,VISION-NSCLC-SITE002-0029,16,HEADANDN,HEAD AND NECK,NORMAL,NORMAL,2.0,C1D1,TREATMENT,2024-03-12,1
VISION-NSCLC,PE,VISION-NSCLC-SITE002-0029,17,MUSCULOS,MUSCULOSKELETAL,NORMAL,NORMAL,2.0,C1D1,TREATMENT,2024-03-12,1
VISION-NSCLC,PE,VISION-NSCLC-SITE002-0029,18,NEUROLOG,NEUROLOGICAL,NORMAL,NORMAL,2.0,C1D1,TREATMENT,2024-03-12,1
VISION-NSCLC,PE,VISION-NSCLC-SITE002-0029,19,RESPIRAT,RESPIRATORY,NORMAL,NORMAL,2.0,C1D1,TREATMENT,2024-03-12,1
VISION-NSCLC,PE,VISION-NSCLC-SITE002-0029,20,SKIN,SKIN,NORMAL,NORMAL,2.0,C1D1,TREATMENT,2024-03-12,1
VISION-NSCLC,PE,VISION-NSCLC-SITE002-0032,1,ABDOMEN,ABDOMEN,NORMAL,NORMAL,1.0,SCREENING,SCREENING,2024-03-04,-8
VISION-NSCLC,PE,VISION-NSCLC-SITE002-0032,2,CARDIOVA,CARDIOVASCULAR,NORMAL,NORMAL,1.0,SCREENING,SCREENING,2024-03-04,-8
VISION-NSCLC,PE,VISION-NSCLC-SITE002-0032,3,EARSNOSE,"EARS, NOSE, AND THROAT",NORMAL,NORMAL,1.0,SCREENING,SCREENING,2024-03-04,-8
VISION-NSCLC,PE,VISION-NSCLC-SITE002-0032,4,EYES,EYES,NORMAL,NORMAL,1.0,SCREENING,SCREENING,2024-03-04,-8
VISION-NSCLC,PE,VISION-NSCLC-SITE002-0032,5,GENERALA,GENERAL APPEARANCE,NORMAL,NORMAL,1.0,SCREENING,SCREENING,2024-03-04,-8
VISION-NSCLC,PE,VISION-NSCLC-SITE002-0032,6,HEADANDN,HEAD AND NECK,NORMAL,NORMAL,1.0,SCREENING,SCREENING,2024-03-04,-8
VISION-NSCLC,PE,VISION-NSCLC-SITE002-0032,7,MUSCULOS,MUSCULOSKELETAL,NORMAL,NORMAL,1.0,SCREENING,SCREENING,2024-03-04,-8
VISION-NSCLC,PE,VISION-NSCLC-SITE002-0032,8,NEUROLOG,NEUROLOGICAL,NORMAL,NORMAL,1.0,SCREENING,SCREENING,2024-03-04,-8
VISION-NSCLC,PE,VISION-NSCLC-SITE002-0032,9,RESPIRAT,RESPIRATORY,NORMAL,NORMAL,1.0,SCREENING,SCREENING,2024-03-04,-8
VISION-NSCLC,PE,VISION-NSCLC-SITE002-0032,10,SKIN,SKIN,NORMAL,NORMAL,1.0,SCREENING,SCREENING,2024-03-04,-8
VISION-NSCLC,PE,VISION-NSCLC-SITE002-0032,11,ABDOMEN,ABDOMEN,NORMAL,NORMAL,2.0,C1D1,TREATMENT,2024-03-12,1
VISION-NSCLC,PE,VISION-NSCLC-SITE002-0032,12,CARDIOVA,CARDIOVASCULAR,NORMAL,NORMAL,2.0,C1D1,TREATMENT,2024-03-12,1
VISION-NSCLC,PE,VISION-NSCLC-SITE002-0032,13,EARSNOSE,"EARS, NOSE, AND THROAT",NORMAL,NORMAL,2.0,C1D1,TREATMENT,2024-03-12,1
VISION-NSCLC,PE,VISION-NSCLC-SITE002-0032,14,EYES,EYES,NORMAL,NORMAL,2.0,C1D1,TREATMENT,2024-03-12,1
VISION-NSCLC,PE,VISION-NSCLC-SITE002-0032,15,GENERALA,GENERAL APPEARANCE,NORMAL,NORMAL,2.0,C1D1,TREATMENT,2024-03-12,1
VISION-NSCLC,PE,VISION-NSCLC-SITE002-0032,16,HEADANDN,HEAD AND NECK,NORMAL,NORMAL,2.0,C1D1,TREATMENT,2024-03-12,1
VISION-NSCLC,PE,VISION-NSCLC-SITE002-0032,17,MUSCULOS,MUSCULOSKELETAL,LIMITED RANGE OF MOTION,LIMITED RANGE OF MOTION,2.0,C1D1,TREATMENT,2024-03-12,1
VISION-NSCLC,PE,VISION-NSCLC-SITE002-0032,18,NEUROLOG,NEUROLOGICAL,NORMAL,NORMAL,2.0,C1D1,TREATMENT,2024-03-12,1
VISION-NSCLC,PE,VISION-NSCLC-SITE002-0032,19,RESPIRAT,RESPIRATORY,NORMAL,NORMAL,2.0,C1D1,TREATMENT,2024-03-12,1
VISION-NSCLC,PE,VISION-NSCLC-SITE002-0032,20,SKIN,SKIN,NORMAL,NORMAL,2.0,C1D1,TREATMENT,2024-03-12,1
VISION-NSCLC,PE,VISION-NSCLC-SITE002-0035,1,ABDOMEN,ABDOMEN,NORMAL,NORMAL,1.0,SCREENING,SCREENING,2024-04-12,-14
VISION-NSCLC,PE,VISION-NSCLC-SITE002-0035,2,CARDIOVA,CARDIOVASCULAR,NORMAL,NORMAL,1.0,SCREENING,SCREENING,2024-04-12,-14
VISION-NSCLC,PE,VISION-NSCLC-SITE002-0035,3,EARSNOSE,"EARS, NOSE, AND THROAT",NORMAL,NORMAL,1.0,SCREENING,SCREENING,2024-04-12,-14
VISION-NSCLC,PE,VISION-NSCLC-SITE002-0035,4,EYES,EYES,NORMAL,NORMAL,1.0,SCREENING,SCREENING,2024-04-12,-14
VISION-NSCLC,PE,VISION-NSCLC-SITE002-0035,5,GENERALA,GENERAL APPEARANCE,NORMAL,NORMAL,1.0,SCREENING,SCREENING,2024-04-12,-14
VISION-NSCLC,PE,VISION-NSCLC-SITE002-0035,6,HEADANDN,HEAD AND NECK,NORMAL,NORMAL,1.0,SCREENING,SCREENING,2024-04-12,-14
VISION-NSCLC,PE,VISION-NSCLC-SITE002-0035,7,MUSCULOS,MUSCULOSKELETAL,NORMAL,NORMAL,1.0,SCREENING,SCREENING,2024-04-12,-14
VISION-NSCLC,PE,VISION-NSCLC-SITE002-0035,8,NEUROLOG,NEUROLOGICAL,NORMAL,NORMAL,1.0,SCREENING,SCREENING,2024-04-12,-14
VISION-NSCLC,PE,VISION-NSCLC-SITE002-0035,9,RESPIRAT,RESPIRATORY,NORMAL,NORMAL,1.0,SCREENING,SCREENING,2024-04-12,-14
VISION-NSCLC,PE,VISION-NSCLC-SITE002-0035,10,SKIN,SKIN,NORMAL,NORMAL,1.0,SCREENING,SCREENING,2024-04-12,-14
VISION-NSCLC,PE,VISION-NSCLC-SITE002-0035,11,ABDOMEN,ABDOMEN,NORMAL,NORMAL,2.0,C1D1,TREATMENT,2024-04-26,1
VISION-NSCLC,PE,VISION-NSCLC-SITE002-0035,12,CARDIOVA,CARDIOVASCULAR,NORMAL,NORMAL,2.0,C1D1,TREATMENT,2024-04-26,1
VISION-NSCLC,PE,VISION-NSCLC-SITE002-0035,13,EARSNOSE,"EARS, NOSE, AND THROAT",NORMAL,NORMAL,2.0,C1D1,TREATMENT,2024-04-26,1
VISION-NSCLC,PE,VISION-NSCLC-SITE002-0035,14,EYES,EYES,NORMAL,NORMAL,2.0,C1D1,TREATMENT,2024-04-26,1
VISION-NSCLC,PE,VISION-NSCLC-SITE002-0035,15,GENERALA,GENERAL APPEARANCE,NORMAL,NORMAL,2.0,C1D1,TREATMENT,2024-04-26,1
VISION-NSCLC,PE,VISION-NSCLC-SITE002-0035,16,HEADANDN,HEAD AND NECK,NORMAL,NORMAL,2.0,C1D1,TREATMENT,2024-04-26,1
VISION-NSCLC,PE,VISION-NSCLC-SITE002-0035,17,MUSCULOS,MUSCULOSKELETAL,NORMAL,NORMAL,2.0,C1D1,TREATMENT,2024-04-26,1
VISION-NSCLC,PE,VISION-NSCLC-SITE002-0035,18,NEUROLOG,NEUROLOGICAL,NORMAL,NORMAL,2.0,C1D1,TREATMENT,2024-04-26,1
VISION-NSCLC,PE,VISION-NSCLC-SITE002-0035,19,RESPIRAT,RESPIRATORY,NORMAL,NORMAL,2.0,C1D1,TREATMENT,2024-04-26,1
VISION-NSCLC,PE,VISION-NSCLC-SITE002-0035,20,SKIN,SKIN,NORMAL,NORMAL,2.0,C1D1,TREATMENT,2024-04-26,1
VISION-NSCLC,PE,VISION-NSCLC-SITE002-0038,1,ABDOMEN,ABDOMEN,NORMAL,NORMAL,1.0,SCREENING,SCREENING,2024-02-20,-31
VISION-NSCLC,PE,VISION-NSCLC-SITE002-0038,2,CARDIOVA,CARDIOVASCULAR,NORMAL,NORMAL,1.0,SCREENING,SCREENING,2024-02-20,-31
VISION-NSCLC,PE,VISION-NSCLC-SITE002-0038,3,EARSNOSE,"EARS, NOSE, AND THROAT",NORMAL,NORMAL,1.0,SCREENING,SCREENING,2024-02-20,-31
VISION-NSCLC,PE,VISION-NSCLC-SITE002-0038,4,EYES,EYES,NORMAL,NORMAL,1.0,SCREENING,SCREENING,2024-02-20,-31
VISION-NSCLC,PE,VISION-NSCLC-SITE002-0038,5,GENERALA,GENERAL APPEARANCE,NORMAL,NORMAL,1.0,SCREENING,SCREENING,2024-02-20,-31
VISION-NSCLC,PE,VISION-NSCLC-SITE002-0038,6,HEADANDN,HEAD AND NECK,NORMAL,NORMAL,1.0,SCREENING,SCREENING,2024-02-20,-31
VISION-NSCLC,PE,VISION-NSCLC-SITE002-0038,7,MUSCULOS,MUSCULOSKELETAL,NORMAL,NORMAL,1.0,SCREENING,SCREENING,2024-02-20,-31
VISION-NSCLC,PE,VISION-NSCLC-SITE002-0038,8,NEUROLOG,NEUROLOGICAL,NORMAL,NORMAL,1.0,SCREENING,SCREENING,2024-02-20,-31
VISION-NSCLC,PE,VISION-NSCLC-SITE002-0038,9,RESPIRAT,RESPIRATORY,NORMAL,NORMAL,1.0,SCREENING,SCREENING,2024-02-20,-31
VISION-NSCLC,PE,VISION-NSCLC-SITE002-0038,10,SKIN,SKIN,NORMAL,NORMAL,1.0,SCREENING,SCREENING,2024-02-20,-31
VISION-NSCLC,PE,VISION-NSCLC-SITE002-0038,11,ABDOMEN,ABDOMEN,NORMAL,NORMAL,2.0,C1D1,TREATMENT,2024-03-22,1
VISION-NSCLC,PE,VISION-NSCLC-SITE002-0038,12,CARDIOVA,CARDIOVASCULAR,NORMAL,NORMAL,2.0,C1D1,TREATMENT,2024-03-22,1
VISION-NSCLC,PE,VISION-NSCLC-SITE002-0038,13,EARSNOSE,"EARS, NOSE, AND THROAT",NORMAL,NORMAL,2.0,C1D1,TREATMENT,2024-03-22,1
VISION-NSCLC,PE,VISION-NSCLC-SITE002-0038,14,EYES,EYES,NORMAL,NORMAL,2.0,C1D1,TREATMENT,2024-03-22,1
VISION-NSCLC,PE,VISION-NSCLC-SITE002-0038,15,GENERALA,GENERAL APPEARANCE,NORMAL,NORMAL,2.0,C1D1,TREATMENT,2024-03-22,1
VISION-NSCLC,PE,VISION-NSCLC-SITE002-0038,16,HEADANDN,HEAD AND NECK,NORMAL,NORMAL,2.0,C1D1,TREATMENT,2024-03-22,1
VISION-NSCLC,PE,VISION-NSCLC-SITE002-0038,17,MUSCULOS,MUSCULOSKELETAL,NORMAL,NORMAL,2.0,C1D1,TREATMENT,2024-03-22,1
VISION-NSCLC,PE,VISION-NSCLC-SITE002-0038,18,NEUROLOG,NEUROLOGICAL,NORMAL,NORMAL,2.0,C1D1,TREATMENT,2024-03-22,1
VISION-NSCLC,PE,VISION-NSCLC-SITE002-0038,19,RESPIRAT,RESPIRATORY,NORMAL,NORMAL,2.0,C1D1,TREATMENT,2024-03-22,1
VISION-NSCLC,PE,VISION-NSCLC-SITE002-0038,20,SKIN,SKIN,NORMAL,NORMAL,2.0,C1D1,TREATMENT,2024-03-22,1
VISION-NSCLC,PE,VISION-NSCLC-SITE002-0041,1,ABDOMEN,ABDOMEN,NORMAL,NORMAL,1.0,SCREENING,SCREENING,2024-01-27,-14
VISION-NSCLC,PE,VISION-NSCLC-SITE002-0041,2,CARDIOVA,CARDIOVASCULAR,NORMAL,NORMAL,1.0,SCREENING,SCREENING,2024-01-27,-14
VISION-NSCLC,PE,VISION-NSCLC-SITE002-0041,3,EARSNOSE,"EARS, NOSE, AND THROAT",NORMAL,NORMAL,1.0,SCREENING,SCREENING,2024-01-27,-14
VISION-NSCLC,PE,VISION-NSCLC-SITE002-0041,4,EYES,EYES,NORMAL,NORMAL,1.0,SCREENING,SCREENING,2024-01-27,-14
VISION-NSCLC,PE,VISION-NSCLC-SITE002-0041,5,GENERALA,GENERAL APPEARANCE,NORMAL,NORMAL,1.0,SCREENING,SCREENING,2024-01-27,-14
VISION-NSCLC,PE,VISION-NSCLC-SITE002-0041,6,HEADANDN,HEAD AND NECK,NORMAL,NORMAL,1.0,SCREENING,SCREENING,2024-01-27,-14
VISION-NSCLC,PE,VISION-NSCLC-SITE002-0041,7,MUSCULOS,MUSCULOSKELETAL,NORMAL,NORMAL,1.0,SCREENING,SCREENING,2024-01-27,-14
VISION-NSCLC,PE,VISION-NSCLC-SITE002-0041,8,NEUROLOG,NEUROLOGICAL,NORMAL,NORMAL,1.0,SCREENING,SCREENING,2024-01-27,-14
VISION-NSCLC,PE,VISION-NSCLC-SITE002-0041,9,RESPIRAT,RESPIRATORY,NORMAL,NORMAL,1.0,SCREENING,SCREENING,2024-01-27,-14
VISION-NSCLC,PE,VISION-NSCLC-SITE002-0041,10,SKIN,SKIN,NORMAL,NORMAL,1.0,SCREENING,SCREENING,2024-01-27,-14
VISION-NSCLC,PE,VISION-NSCLC-SITE002-0041,11,ABDOMEN,ABDOMEN,NORMAL,NORMAL,2.0,C1D1,TREATMENT,2024-02-10,1
VISION-NSCLC,PE,VISION-NSCLC-SITE002-0041,12,CARDIOVA,CARDIOVASCULAR,NORMAL,NORMAL,2.0,C1D1,TREATMENT,2024-02-10,1
VISION-NSCLC,PE,VISION-NSCLC-SITE002-0041,13,EARSNOSE,"EARS, NOSE, AND THROAT",NORMAL,NORMAL,2.0,C1D1,TREATMENT,2024-02-10,1
VISION-NSCLC,PE,VISION-NSCLC-SITE002-0041,14,EYES,EYES,NORMAL,NORMAL,2.0,C1D1,TREATMENT,2024-02-10,1
VISION-NSCLC,PE,VISION-NSCLC-SITE002-0041,15,GENERALA,GENERAL APPEARANCE,NORMAL,NORMAL,2.0,C1D1,TREATMENT,2024-02-10,1
VISION-NSCLC,PE,VISION-NSCLC-SITE002-0041,16,HEADANDN,HEAD AND NECK,NORMAL,NORMAL,2.0,C1D1,TREATMENT,2024-02-10,1
VISION-NSCLC,PE,VISION-NSCLC-SITE002-0041,17,MUSCULOS,MUSCULOSKELETAL,NORMAL,NORMAL,2.0,C1D1,TREATMENT,2024-02-10,1
VISION-NSCLC,PE,VISION-NSCLC-SITE002-0041,18,NEUROLOG,NEUROLOGICAL,NORMAL,NORMAL,2.0,C1D1,TREATMENT,2024-02-10,1
VISION-NSCLC,PE,VISION-NSCLC-SITE002-0041,19,RESPIRAT,RESPIRATORY,NORMAL,NORMAL,2.0,C1D1,TREATMENT,2024-02-10,1
VISION-NSCLC,PE,VISION-NSCLC-SITE002-0041,20,SKIN,SKIN,NORMAL,NORMAL,2.0,C1D1,TREATMENT,2024-02-10,1
VISION-NSCLC,PE,VISION-NSCLC-SITE002-0044,1,ABDOMEN,ABDOMEN,NORMAL,NORMAL,1.0,SCREENING,SCREENING,2024-03-05,-18
VISION-NSCLC,PE,VISION-NSCLC-SITE002-0044,2,CARDIOVA,CARDIOVASCULAR,NORMAL,NORMAL,1.0,SCREENING,SCREENING,2024-03-05,-18
VISION-NSCLC,PE,VISION-NSCLC-SITE002-0044,3,EARSNOSE,"EARS, NOSE, AND THROAT",NORMAL,NORMAL,1.0,SCREENING,SCREENING,2024-03-05,-18
VISION-NSCLC,PE,VISION-NSCLC-SITE002-0044,4,EYES,EYES,NORMAL,NORMAL,1.0,SCREENING,SCREENING,2024-03-05,-18
VISION-NSCLC,PE,VISION-NSCLC-SITE002-0044,5,GENERALA,GENERAL APPEARANCE,NORMAL,NORMAL,1.0,SCREENING,SCREENING,2024-03-05,-18
VISION-NSCLC,PE,VISION-NSCLC-SITE002-0044,6,HEADANDN,HEAD AND NECK,NORMAL,NORMAL,1.0,SCREENING,SCREENING,2024-03-05,-18
VISION-NSCLC,PE,VISION-NSCLC-SITE002-0044,7,MUSCULOS,MUSCULOSKELETAL,NORMAL,NORMAL,1.0,SCREENING,SCREENING,2024-03-05,-18
VISION-NSCLC,PE,VISION-NSCLC-SITE002-0044,8,NEUROLOG,NEUROLOGICAL,NORMAL,NORMAL,1.0,SCREENING,SCREENING,2024-03-05,-18
VISION-NSCLC,PE,VISION-NSCLC-SITE002-0044,9,RESPIRAT,RESPIRATORY,NORMAL,NORMAL,1.0,SCREENING,SCREENING,2024-03-05,-18
VISION-NSCLC,PE,VISION-NSCLC-SITE002-0044,10,SKIN,SKIN,NORMAL,NORMAL,1.0,SCREENING,SCREENING,2024-03-05,-18
VISION-NSCLC,PE,VISION-NSCLC-SITE002-0044,11,ABDOMEN,ABDOMEN,NORMAL,NORMAL,2.0,C1D1,TREATMENT,2024-03-23,1
VISION-NSCLC,PE,VISION-NSCLC-SITE002-0044,12,CARDIOVA,CARDIOVASCULAR,NORMAL,NORMAL,2.0,C1D1,TREATMENT,2024-03-23,1
VISION-NSCLC,PE,VISION-NSCLC-SITE002-0044,13,EARSNOSE,"EARS, NOSE, AND THROAT",NORMAL,NORMAL,2.0,C1D1,TREATMENT,2024-03-23,1
VISION-NSCLC,PE,VISION-NSCLC-SITE002-0044,14,EYES,EYES,NORMAL,NORMAL,2.0,C1D1,TREATMENT,2024-03-23,1
VISION-NSCLC,PE,VISION-NSCLC-SITE002-0044,15,GENERALA,GENERAL APPEARANCE,NORMAL,NORMAL,2.0,C1D1,TREATMENT,2024-03-23,1
VISION-NSCLC,PE,VISION-NSCLC-SITE002-0044,16,HEADANDN,HEAD AND NECK,NORMAL,NORMAL,2.0,C1D1,TREATMENT,2024-03-23,1
VISION-NSCLC,PE,VISION-NSCLC-SITE002-0044,17,MUSCULOS,MUSCULOSKELETAL,NORMAL,NORMAL,2.0,C1D1,TREATMENT,2024-03-23,1
VISION-NSCLC,PE,VISION-NSCLC-SITE002-0044,18,NEUROLOG,NEUROLOGICAL,NORMAL,NORMAL,2.0,C1D1,TREATMENT,2024-03-23,1
VISION-NSCLC,PE,VISION-NSCLC-SITE002-0044,19,RESPIRAT,RESPIRATORY,NORMAL,NORMAL,2.0,C1D1,TREATMENT,2024-03-23,1
VISION-NSCLC,PE,VISION-NSCLC-SITE002-0044,20,SKIN,SKIN,NORMAL,NORMAL,2.0,C1D1,TREATMENT,2024-03-23,1
VISION-NSCLC,PE,VISION-NSCLC-SITE002-0047,1,ABDOMEN,ABDOMEN,NORMAL,NORMAL,1.0,SCREENING,SCREENING,2024-03-24,-28
VISION-NSCLC,PE,VISION-NSCLC-SITE002-0047,2,CARDIOVA,CARDIOVASCULAR,NORMAL,NORMAL,1.0,SCREENING,SCREENING,2024-03-24,-28
VISION-NSCLC,PE,VISION-NSCLC-SITE002-0047,3,EARSNOSE,"EARS, NOSE, AND THROAT",NORMAL,NORMAL,1.0,SCREENING,SCREENING,2024-03-24,-28
VISION-NSCLC,PE,VISION-NSCLC-SITE002-0047,4,EYES,EYES,NORMAL,NORMAL,1.0,SCREENING,SCREENING,2024-03-24,-28
VISION-NSCLC,PE,VISION-NSCLC-SITE002-0047,5,GENERALA,GENERAL APPEARANCE,NORMAL,NORMAL,1.0,SCREENING,SCREENING,2024-03-24,-28
VISION-NSCLC,PE,VISION-NSCLC-SITE002-0047,6,HEADANDN,HEAD AND NECK,NORMAL,NORMAL,1.0,SCREENING,SCREENING,2024-03-24,-28
VISION-NSCLC,PE,VISION-NSCLC-SITE002-0047,7,MUSCULOS,MUSCULOSKELETAL,NORMAL,NORMAL,1.0,SCREENING,SCREENING,2024-03-24,-28
VISION-NSCLC,PE,VISION-NSCLC-SITE002-0047,8,NEUROLOG,NEUROLOGICAL,NORMAL,NORMAL,1.0,SCREENING,SCREENING,2024-03-24,-28
VISION-NSCLC,PE,VISION-NSCLC-SITE002-0047,9,RESPIRAT,RESPIRATORY,NORMAL,NORMAL,1.0,SCREENING,SCREENING,2024-03-24,-28
VISION-NSCLC,PE,VISION-NSCLC-SITE002-0047,10,SKIN,SKIN,NORMAL,NORMAL,1.0,SCREENING,SCREENING,2024-03-24,-28
VISION-NSCLC,PE,VISION-NSCLC-SITE002-0047,11,ABDOMEN,ABDOMEN,NORMAL,NORMAL,2.0,C1D1,TREATMENT,2024-04-21,1
VISION-NSCLC,PE,VISION-NSCLC-SITE002-0047,12,CARDIOVA,CARDIOVASCULAR,IRREGULAR RHYTHM,IRREGULAR RHYTHM,2.0,C1D1,TREATMENT,2024-04-21,1
VISION-NSCLC,PE,VISION-NSCLC-SITE002-0047,13,EARSNOSE,"EARS, NOSE, AND THROAT",NORMAL,NORMAL,2.0,C1D1,TREATMENT,2024-04-21,1
VISION-NSCLC,PE,VISION-NSCLC-SITE002-0047,14,EYES,EYES,NORMAL,NORMAL,2.0,C1D1,TREATMENT,2024-04-21,1
VISION-NSCLC,PE,VISION-NSCLC-SITE002-0047,15,GENERALA,GENERAL APPEARANCE,NORMAL,NORMAL,2.0,C1D1,TREATMENT,2024-04-21,1
VISION-NSCLC,PE,VISION-NSCLC-SITE002-0047,16,HEADANDN,HEAD AND NECK,NORMAL,NORMAL,2.0,C1D1,TREATMENT,2024-04-21,1
VISION-NSCLC,PE,VISION-NSCLC-SITE002-0047,17,MUSCULOS,MUSCULOSKELETAL,NORMAL,NORMAL,2.0,C1D1,TREATMENT,2024-04-21,1
VISION-NSCLC,PE,VISION-NSCLC-SITE002-0047,18,NEUROLOG,NEUROLOGICAL,NORMAL,NORMAL,2.0,C1D1,TREATMENT,2024-04-21,1
VISION-NSCLC,PE,VISION-NSCLC-SITE002-0047,19,RESPIRAT,RESPIRATORY,NORMAL,NORMAL,2.0,C1D1,TREATMENT,2024-04-21,1
VISION-NSCLC,PE,VISION-NSCLC-SITE002-0047,20,SKIN,SKIN,NORMAL,NORMAL,2.0,C1D1,TREATMENT,2024-04-21,1
VISION-NSCLC,PE,VISION-NSCLC-SITE002-0050,1,ABDOMEN,ABDOMEN,NORMAL,NORMAL,1.0,SCREENING,SCREENING,2024-02-07,-23
VISION-NSCLC,PE,VISION-NSCLC-SITE002-0050,2,CARDIOVA,CARDIOVASCULAR,NORMAL,NORMAL,1.0,SCREENING,SCREENING,2024-02-07,-23
VISION-NSCLC,PE,VISION-NSCLC-SITE002-0050,3,EARSNOSE,"EARS, NOSE, AND THROAT",NORMAL,NORMAL,1.0,SCREENING,SCREENING,2024-02-07,-23
VISION-NSCLC,PE,VISION-NSCLC-SITE002-0050,4,EYES,EYES,NORMAL,NORMAL,1.0,SCREENING,SCREENING,2024-02-07,-23
VISION-NSCLC,PE,VISION-NSCLC-SITE002-0050,5,GENERALA,GENERAL APPEARANCE,NORMAL,NORMAL,1.0,SCREENING,SCREENING,2024-02-07,-23
VISION-NSCLC,PE,VISION-NSCLC-SITE002-0050,6,HEADANDN,HEAD AND NECK,NORMAL,NORMAL,1.0,SCREENING,SCREENING,2024-02-07,-23
VISION-NSCLC,PE,VISION-NSCLC-SITE002-0050,7,MUSCULOS,MUSCULOSKELETAL,NORMAL,NORMAL,1.0,SCREENING,SCREENING,2024-02-07,-23
VISION-NSCLC,PE,VISION-NSCLC-SITE002-0050,8,NEUROLOG,NEUROLOGICAL,NORMAL,NORMAL,1.0,SCREENING,SCREENING,2024-02-07,-23
VISION-NSCLC,PE,VISION-NSCLC-SITE002-0050,9,RESPIRAT,RESPIRATORY,NORMAL,NORMAL,1.0,SCREENING,SCREENING,2024-02-07,-23
VISION-NSCLC,PE,VISION-NSCLC-SITE002-0050,10,SKIN,SKIN,NORMAL,NORMAL,1.0,SCREENING,SCREENING,2024-02-07,-23
VISION-NSCLC,PE,VISION-NSCLC-SITE002-0050,11,ABDOMEN,ABDOMEN,NORMAL,NORMAL,2.0,C1D1,TREATMENT,2024-03-01,1
VISION-NSCLC,PE,VISION-NSCLC-SITE002-0050,12,CARDIOVA,CARDIOVASCULAR,NORMAL,NORMAL,2.0,C1D1,TREATMENT,2024-03-01,1
VISION-NSCLC,PE,VISION-NSCLC-SITE002-0050,13,EARSNOSE,"EARS, NOSE, AND THROAT",NORMAL,NORMAL,2.0,C1D1,TREATMENT,2024-03-01,1
VISION-NSCLC,PE,VISION-NSCLC-SITE002-0050,14,EYES,EYES,NORMAL,NORMAL,2.0,C1D1,TREATMENT,2024-03-01,1
VISION-NSCLC,PE,VISION-NSCLC-SITE002-0050,15,GENERALA,GENERAL APPEARANCE,NORMAL,NORMAL,2.0,C1D1,TREATMENT,2024-03-01,1
VISION-NSCLC,PE,VISION-NSCLC-SITE002-0050,16,HEADANDN,HEAD AND NECK,NORMAL,NORMAL,2.0,C1D1,TREATMENT,2024-03-01,1
VISION-NSCLC,PE,VISION-NSCLC-SITE002-0050,17,MUSCULOS,MUSCULOSKELETAL,NORMAL,NORMAL,2.0,C1D1,TREATMENT,2024-03-01,1
VISION-NSCLC,PE,VISION-NSCLC-SITE002-0050,18,NEUROLOG,NEUROLOGICAL,NORMAL,NORMAL,2.0,C1D1,TREATMENT,2024-03-01,1
VISION-NSCLC,PE,VISION-NSCLC-SITE002-0050,19,RESPIRAT,RESPIRATORY,NORMAL,NORMAL,2.0,C1D1,TREATMENT,2024-03-01,1
VISION-NSCLC,PE,VISION-NSCLC-SITE002-0050,20,SKIN,SKIN,NORMAL,NORMAL,2.0,C1D1,TREATMENT,2024-03-01,1
VISION-NSCLC,PE,VISION-NSCLC-SITE002-0056,1,ABDOMEN,ABDOMEN,NORMAL,NORMAL,1.0,SCREENING,SCREENING,2024-02-23,-12
VISION-NSCLC,PE,VISION-NSCLC-SITE002-0056,2,CARDIOVA,CARDIOVASCULAR,NORMAL,NORMAL,1.0,SCREENING,SCREENING,2024-02-23,-12
VISION-NSCLC,PE,VISION-NSCLC-SITE002-0056,3,EARSNOSE,"EARS, NOSE, AND THROAT",NORMAL,NORMAL,1.0,SCREENING,SCREENING,2024-02-23,-12
VISION-NSCLC,PE,VISION-NSCLC-SITE002-0056,4,EYES,EYES,NORMAL,NORMAL,1.0,SCREENING,SCREENING,2024-02-23,-12
VISION-NSCLC,PE,VISION-NSCLC-SITE002-0056,5,GENERALA,GENERAL APPEARANCE,NORMAL,NORMAL,1.0,SCREENING,SCREENING,2024-02-23,-12
VISION-NSCLC,PE,VISION-NSCLC-SITE002-0056,6,HEADANDN,HEAD AND NECK,NORMAL,NORMAL,1.0,SCREENING,SCREENING,2024-02-23,-12
VISION-NSCLC,PE,VISION-NSCLC-SITE002-0056,7,MUSCULOS,MUSCULOSKELETAL,NORMAL,NORMAL,1.0,SCREENING,SCREENING,2024-02-23,-12
VISION-NSCLC,PE,VISION-NSCLC-SITE002-0056,8,NEUROLOG,NEUROLOGICAL,NORMAL,NORMAL,1.0,SCREENING,SCREENING,2024-02-23,-12
VISION-NSCLC,PE,VISION-NSCLC-SITE002-0056,9,RESPIRAT,RESPIRATORY,NORMAL,NORMAL,1.0,SCREENING,SCREENING,2024-02-23,-12
VISION-NSCLC,PE,VISION-NSCLC-SITE002-0056,10,SKIN,SKIN,DRY SKIN,DRY SKIN,1.0,SCREENING,SCREENING,2024-02-23,-12
VISION-NSCLC,PE,VISION-NSCLC-SITE002-0056,11,ABDOMEN,ABDOMEN,NORMAL,NORMAL,2.0,C1D1,TREATMENT,2024-03-06,1
VISION-NSCLC,PE,VISION-NSCLC-SITE002-0056,12,CARDIOVA,CARDIOVASCULAR,NORMAL,NORMAL,2.0,C1D1,TREATMENT,2024-03-06,1
VISION-NSCLC,PE,VISION-NSCLC-SITE002-0056,13,EARSNOSE,"EARS, NOSE, AND THROAT",NASAL CONGESTION,NASAL CONGESTION,2.0,C1D1,TREATMENT,2024-03-06,1
VISION-NSCLC,PE,VISION-NSCLC-SITE002-0056,14,EYES,EYES,NORMAL,NORMAL,2.0,C1D1,TREATMENT,2024-03-06,1
VISION-NSCLC,PE,VISION-NSCLC-SITE002-0056,15,GENERALA,GENERAL APPEARANCE,NORMAL,NORMAL,2.0,C1D1,TREATMENT,2024-03-06,1
VISION-NSCLC,PE,VISION-NSCLC-SITE002-0056,16,HEADANDN,HEAD AND NECK,NORMAL,NORMAL,2.0,C1D1,TREATMENT,2024-03-06,1
VISION-NSCLC,PE,VISION-NSCLC-SITE002-0056,17,MUSCULOS,MUSCULOSKELETAL,NORMAL,NORMAL,2.0,C1D1,TREATMENT,2024-03-06,1
VISION-NSCLC,PE,VISION-NSCLC-SITE002-0056,18,NEUROLOG,NEUROLOGICAL,NORMAL,NORMAL,2.0,C1D1,TREATMENT,2024-03-06,1
VISION-NSCLC,PE,VISION-NSCLC-SITE002-0056,19,RESPIRAT,RESPIRATORY,NORMAL,NORMAL,2.0,C1D1,TREATMENT,2024-03-06,1
VISION-NSCLC,PE,VISION-NSCLC-SITE002-0056,20,SKIN,SKIN,NORMAL,NORMAL,2.0,C1D1,TREATMENT,2024-03-06,1
VISION-NSCLC,PE,VISION-NSCLC-SITE002-0059,1,ABDOMEN,ABDOMEN,NORMAL,NORMAL,1.0,SCREENING,SCREENING,2024-03-14,-30
VISION-NSCLC,PE,VISION-NSCLC-SITE002-0059,2,CARDIOVA,CARDIOVASCULAR,NORMAL,NORMAL,1.0,SCREENING,SCREENING,2024-03-14,-30
VISION-NSCLC,PE,VISION-NSCLC-SITE002-0059,3,EARSNOSE,"EARS, NOSE, AND THROAT",NORMAL,NORMAL,1.0,SCREENING,SCREENING,2024-03-14,-30
VISION-NSCLC,PE,VISION-NSCLC-SITE002-0059,4,EYES,EYES,NORMAL,NORMAL,1.0,SCREENING,SCREENING,2024-03-14,-30
VISION-NSCLC,PE,VISION-NSCLC-SITE002-0059,5,GENERALA,GENERAL APPEARANCE,NORMAL,NORMAL,1.0,SCREENING,SCREENING,2024-03-14,-30
VISION-NSCLC,PE,VISION-NSCLC-SITE002-0059,6,HEADANDN,HEAD AND NECK,NORMAL,NORMAL,1.0,SCREENING,SCREENING,2024-03-14,-30
VISION-NSCLC,PE,VISION-NSCLC-SITE002-0059,7,MUSCULOS,MUSCULOSKELETAL,NORMAL,NORMAL,1.0,SCREENING,SCREENING,2024-03-14,-30
VISION-NSCLC,PE,VISION-NSCLC-SITE002-0059,8,NEUROLOG,NEUROLOGICAL,NORMAL,NORMAL,1.0,SCREENING,SCREENING,2024-03-14,-30
VISION-NSCLC,PE,VISION-NSCLC-SITE002-0059,9,RESPIRAT,RESPIRATORY,NORMAL,NORMAL,1.0,SCREENING,SCREENING,2024-03-14,-30
VISION-NSCLC,PE,VISION-NSCLC-SITE002-0059,10,SKIN,SKIN,NORMAL,NORMAL,1.0,SCREENING,SCREENING,2024-03-14,-30
VISION-NSCLC,PE,VISION-NSCLC-SITE002-0059,11,ABDOMEN,ABDOMEN,NORMAL,NORMAL,2.0,C1D1,TREATMENT,2024-04-13,1
VISION-NSCLC,PE,VISION-NSCLC-SITE002-0059,12,CARDIOVA,CARDIOVASCULAR,NORMAL,NORMAL,2.0,C1D1,TREATMENT,2024-04-13,1
VISION-NSCLC,PE,VISION-NSCLC-SITE002-0059,13,EARSNOSE,"EARS, NOSE, AND THROAT",NORMAL,NORMAL,2.0,C1D1,TREATMENT,2024-04-13,1
VISION-NSCLC,PE,VISION-NSCLC-SITE002-0059,14,EYES,EYES,NORMAL,NORMAL,2.0,C1D1,TREATMENT,2024-04-13,1
VISION-NSCLC,PE,VISION-NSCLC-SITE002-0059,15,GENERALA,GENERAL APPEARANCE,NORMAL,NORMAL,2.0,C1D1,TREATMENT,2024-04-13,1
VISION-NSCLC,PE,VISION-NSCLC-SITE002-0059,16,HEADANDN,HEAD AND NECK,NORMAL,NORMAL,2.0,C1D1,TREATMENT,2024-04-13,1
VISION-NSCLC,PE,VISION-NSCLC-SITE002-0059,17,MUSCULOS,MUSCULOSKELETAL,NORMAL,NORMAL,2.0,C1D1,TREATMENT,2024-04-13,1
VISION-NSCLC,PE,VISION-NSCLC-SITE002-0059,18,NEUROLOG,NEUROLOGICAL,NORMAL,NORMAL,2.0,C1D1,TREATMENT,2024-04-13,1
VISION-NSCLC,PE,VISION-NSCLC-SITE002-0059,19,RESPIRAT,RESPIRATORY,NORMAL,NORMAL,2.0,C1D1,TREATMENT,2024-04-13,1
VISION-NSCLC,PE,VISION-NSCLC-SITE002-0059,20,SKIN,SKIN,NORMAL,NORMAL,2.0,C1D1,TREATMENT,2024-04-13,1
VISION-NSCLC,PE,VISION-NSCLC-SITE002-0062,1,ABDOMEN,ABDOMEN,NORMAL,NORMAL,1.0,SCREENING,SCREENING,2024-03-11,-25
VISION-NSCLC,PE,VISION-NSCLC-SITE002-0062,2,CARDIOVA,CARDIOVASCULAR,NORMAL,NORMAL,1.0,SCREENING,SCREENING,2024-03-11,-25
VISION-NSCLC,PE,VISION-NSCLC-SITE002-0062,3,EARSNOSE,"EARS, NOSE, AND THROAT",NORMAL,NORMAL,1.0,SCREENING,SCREENING,2024-03-11,-25
VISION-NSCLC,PE,VISION-NSCLC-SITE002-0062,4,EYES,EYES,NORMAL,NORMAL,1.0,SCREENING,SCREENING,2024-03-11,-25
VISION-NSCLC,PE,VISION-NSCLC-SITE002-0062,5,GENERALA,GENERAL APPEARANCE,NORMAL,NORMAL,1.0,SCREENING,SCREENING,2024-03-11,-25
VISION-NSCLC,PE,VISION-NSCLC-SITE002-0062,6,HEADANDN,HEAD AND NECK,NORMAL,NORMAL,1.0,SCREENING,SCREENING,2024-03-11,-25
VISION-NSCLC,PE,VISION-NSCLC-SITE002-0062,7,MUSCULOS,MUSCULOSKELETAL,NORMAL,NORMAL,1.0,SCREENING,SCREENING,2024-03-11,-25
VISION-NSCLC,PE,VISION-NSCLC-SITE002-0062,8,NEUROLOG,NEUROLOGICAL,NORMAL,NORMAL,1.0,SCREENING,SCREENING,2024-03-11,-25
VISION-NSCLC,PE,VISION-NSCLC-SITE002-0062,9,RESPIRAT,RESPIRATORY,NORMAL,NORMAL,1.0,SCREENING,SCREENING,2024-03-11,-25
VISION-NSCLC,PE,VISION-NSCLC-SITE002-0062,10,SKIN,SKIN,NORMAL,NORMAL,1.0,SCREENING,SCREENING,2024-03-11,-25
VISION-NSCLC,PE,VISION-NSCLC-SITE002-0062,11,ABDOMEN,ABDOMEN,NORMAL,NORMAL,2.0,C1D1,TREATMENT,2024-04-05,1
VISION-NSCLC,PE,VISION-NSCLC-SITE002-0062,12,CARDIOVA,CARDIOVASCULAR,NORMAL,NORMAL,2.0,C1D1,TREATMENT,2024-04-05,1
VISION-NSCLC,PE,VISION-NSCLC-SITE002-0062,13,EARSNOSE,"EARS, NOSE, AND THROAT",NORMAL,NORMAL,2.0,C1D1,TREATMENT,2024-04-05,1
VISION-NSCLC,PE,VISION-NSCLC-SITE002-0062,14,EYES,EYES,NORMAL,NORMAL,2.0,C1D1,TREATMENT,2024-04-05,1
VISION-NSCLC,PE,VISION-NSCLC-SITE002-0062,15,GENERALA,GENERAL APPEARANCE,NORMAL,NORMAL,2.0,C1D1,TREATMENT,2024-04-05,1
VISION-NSCLC,PE,VISION-NSCLC-SITE002-0062,16,HEADANDN,HEAD AND NECK,NORMAL,NORMAL,2.0,C1D1,TREATMENT,2024-04-05,1
VISION-NSCLC,PE,VISION-NSCLC-SITE002-0062,17,MUSCULOS,MUSCULOSKELETAL,NORMAL,NORMAL,2.0,C1D1,TREATMENT,2024-04-05,1
VISION-NSCLC,PE,VISION-NSCLC-SITE002-0062,18,NEUROLOG,NEUROLOGICAL,NORMAL,NORMAL,2.0,C1D1,TREATMENT,2024-04-05,1
VISION-NSCLC,PE,VISION-NSCLC-SITE002-0062,19,RESPIRAT,RESPIRATORY,NORMAL,NORMAL,2.0,C1D1,TREATMENT,2024-04-05,1
VISION-NSCLC,PE,VISION-NSCLC-SITE002-0062,20,SKIN,SKIN,NORMAL,NORMAL,2.0,C1D1,TREATMENT,2024-04-05,1
VISION-NSCLC,PE,VISION-NSCLC-SITE002-0068,1,ABDOMEN,ABDOMEN,NORMAL,NORMAL,1.0,SCREENING,SCREENING,2024-01-15,-25
VISION-NSCLC,PE,VISION-NSCLC-SITE002-0068,2,CARDIOVA,CARDIOVASCULAR,NORMAL,NORMAL,1.0,SCREENING,SCREENING,2024-01-15,-25
VISION-NSCLC,PE,VISION-NSCLC-SITE002-0068,3,EARSNOSE,"EARS, NOSE, AND THROAT",NORMAL,NORMAL,1.0,SCREENING,SCREENING,2024-01-15,-25
VISION-NSCLC,PE,VISION-NSCLC-SITE002-0068,4,EYES,EYES,NORMAL,NORMAL,1.0,SCREENING,SCREENING,2024-01-15,-25
VISION-NSCLC,PE,VISION-NSCLC-SITE002-0068,5,GENERALA,GENERAL APPEARANCE,NORMAL,NORMAL,1.0,SCREENING,SCREENING,2024-01-15,-25
VISION-NSCLC,PE,VISION-NSCLC-SITE002-0068,6,HEADANDN,HEAD AND NECK,NORMAL,NORMAL,1.0,SCREENING,SCREENING,2024-01-15,-25
VISION-NSCLC,PE,VISION-NSCLC-SITE002-0068,7,MUSCULOS,MUSCULOSKELETAL,NORMAL,NORMAL,1.0,SCREENING,SCREENING,2024-01-15,-25
VISION-NSCLC,PE,VISION-NSCLC-SITE002-0068,8,NEUROLOG,NEUROLOGICAL,NORMAL,NORMAL,1.0,SCREENING,SCREENING,2024-01-15,-25
VISION-NSCLC,PE,VISION-NSCLC-SITE002-0068,9,RESPIRAT,RESPIRATORY,NORMAL,NORMAL,1.0,SCREENING,SCREENING,2024-01-15,-25
VISION-NSCLC,PE,VISION-NSCLC-SITE002-0068,10,SKIN,SKIN,NORMAL,NORMAL,1.0,SCREENING,SCREENING,2024-01-15,-25
VISION-NSCLC,PE,VISION-NSCLC-SITE002-0068,11,ABDOMEN,ABDOMEN,NORMAL,NORMAL,2.0,C1D1,TREATMENT,2024-02-09,1
VISION-NSCLC,PE,VISION-NSCLC-SITE002-0068,12,CARDIOVA,CARDIOVASCULAR,NORMAL,NORMAL,2.0,C1D1,TREATMENT,2024-02-09,1
VISION-NSCLC,PE,VISION-NSCLC-SITE002-0068,13,EARSNOSE,"EARS, NOSE, AND THROAT",NORMAL,NORMAL,2.0,C1D1,TREATMENT,2024-02-09,1
VISION-NSCLC,PE,VISION-NSCLC-SITE002-0068,14,EYES,EYES,NORMAL,NORMAL,2.0,C1D1,TREATMENT,2024-02-09,1
VISION-NSCLC,PE,VISION-NSCLC-SITE002-0068,15,GENERALA,GENERAL APPEARANCE,NORMAL,NORMAL,2.0,C1D1,TREATMENT,2024-02-09,1
VISION-NSCLC,PE,VISION-NSCLC-SITE002-0068,16,HEADANDN,HEAD AND NECK,NORMAL,NORMAL,2.0,C1D1,TREATMENT,2024-02-09,1
VISION-NSCLC,PE,VISION-NSCLC-SITE002-0068,17,MUSCULOS,MUSCULOSKELETAL,NORMAL,NORMAL,2.0,C1D1,TREATMENT,2024-02-09,1
VISION-NSCLC,PE,VISION-NSCLC-SITE002-0068,18,NEUROLOG,NEUROLOGICAL,NORMAL,NORMAL,2.0,C1D1,TREATMENT,2024-02-09,1
VISION-NSCLC,PE,VISION-NSCLC-SITE002-0068,19,RESPIRAT,RESPIRATORY,NORMAL,NORMAL,2.0,C1D1,TREATMENT,2024-02-09,1
VISION-NSCLC,PE,VISION-NSCLC-SITE002-0068,20,SKIN,SKIN,NORMAL,NORMAL,2.0,C1D1,TREATMENT,2024-02-09,1
VISION-NSCLC,PE,VISION-NSCLC-SITE002-0071,1,ABDOMEN,ABDOMEN,NORMAL,NORMAL,1.0,SCREENING,SCREENING,2024-03-24,-28
VISION-NSCLC,PE,VISION-NSCLC-SITE002-0071,2,CARDIOVA,CARDIOVASCULAR,NORMAL,NORMAL,1.0,SCREENING,SCREENING,2024-03-24,-28
VISION-NSCLC,PE,VISION-NSCLC-SITE002-0071,3,EARSNOSE,"EARS, NOSE, AND THROAT",NORMAL,NORMAL,1.0,SCREENING,SCREENING,2024-03-24,-28
VISION-NSCLC,PE,VISION-NSCLC-SITE002-0071,4,EYES,EYES,NORMAL,NORMAL,1.0,SCREENING,SCREENING,2024-03-24,-28
VISION-NSCLC,PE,VISION-NSCLC-SITE002-0071,5,GENERALA,GENERAL APPEARANCE,NORMAL,NORMAL,1.0,SCREENING,SCREENING,2024-03-24,-28
VISION-NSCLC,PE,VISION-NSCLC-SITE002-0071,6,HEADANDN,HEAD AND NECK,NORMAL,NORMAL,1.0,SCREENING,SCREENING,2024-03-24,-28
VISION-NSCLC,PE,VISION-NSCLC-SITE002-0071,7,MUSCULOS,MUSCULOSKELETAL,NORMAL,NORMAL,1.0,SCREENING,SCREENING,2024-03-24,-28
VISION-NSCLC,PE,VISION-NSCLC-SITE002-0071,8,NEUROLOG,NEUROLOGICAL,NORMAL,NORMAL,1.0,SCREENING,SCREENING,2024-03-24,-28
VISION-NSCLC,PE,VISION-NSCLC-SITE002-0071,9,RESPIRAT,RESPIRATORY,NORMAL,NORMAL,1.0,SCREENING,SCREENING,2024-03-24,-28
VISION-NSCLC,PE,VISION-NSCLC-SITE002-0071,10,SKIN,SKIN,NORMAL,NORMAL,1.0,SCREENING,SCREENING,2024-03-24,-28
VISION-NSCLC,PE,VISION-NSCLC-SITE002-0071,11,ABDOMEN,ABDOMEN,NORMAL,NORMAL,2.0,C1D1,TREATMENT,2024-04-21,1
VISION-NSCLC,PE,VISION-NSCLC-SITE002-0071,12,CARDIOVA,CARDIOVASCULAR,NORMAL,NORMAL,2.0,C1D1,TREATMENT,2024-04-21,1
VISION-NSCLC,PE,VISION-NSCLC-SITE002-0071,13,EARSNOSE,"EARS, NOSE, AND THROAT",NORMAL,NORMAL,2.0,C1D1,TREATMENT,2024-04-21,1
VISION-NSCLC,PE,VISION-NSCLC-SITE002-0071,14,EYES,EYES,NORMAL,NORMAL,2.0,C1D1,TREATMENT,2024-04-21,1
VISION-NSCLC,PE,VISION-NSCLC-SITE002-0071,15,GENERALA,GENERAL APPEARANCE,NORMAL,NORMAL,2.0,C1D1,TREATMENT,2024-04-21,1
VISION-NSCLC,PE,VISION-NSCLC-SITE002-0071,16,HEADANDN,HEAD AND NECK,NORMAL,NORMAL,2.0,C1D1,TREATMENT,2024-04-21,1
VISION-NSCLC,PE,VISION-NSCLC-SITE002-0071,17,MUSCULOS,MUSCULOSKELETAL,JOINT SWELLING,JOINT SWELLING,2.0,C1D1,TREATMENT,2024-04-21,1
VISION-NSCLC,PE,VISION-NSCLC-SITE002-0071,18,NEUROLOG,NEUROLOGICAL,NORMAL,NORMAL,2.0,C1D1,TREATMENT,2024-04-21,1
VISION-NSCLC,PE,VISION-NSCLC-SITE002-0071,19,RESPIRAT,RESPIRATORY,NORMAL,NORMAL,2.0,C1D1,TREATMENT,2024-04-21,1
VISION-NSCLC,PE,VISION-NSCLC-SITE002-0071,20,SKIN,SKIN,NORMAL,NORMAL,2.0,C1D1,TREATMENT,2024-04-21,1
VISION-NSCLC,PE,VISION-NSCLC-SITE002-0074,1,ABDOMEN,ABDOMEN,NORMAL,NORMAL,1.0,SCREENING,SCREENING,2024-03-18,-14
VISION-NSCLC,PE,VISION-NSCLC-SITE002-0074,2,CARDIOVA,CARDIOVASCULAR,NORMAL,NORMAL,1.0,SCREENING,SCREENING,2024-03-18,-14
VISION-NSCLC,PE,VISION-NSCLC-SITE002-0074,3,EARSNOSE,"EARS, NOSE, AND THROAT",NORMAL,NORMAL,1.0,SCREENING,SCREENING,2024-03-18,-14
VISION-NSCLC,PE,VISION-NSCLC-SITE002-0074,4,EYES,EYES,NORMAL,NORMAL,1.0,SCREENING,SCREENING,2024-03-18,-14
VISION-NSCLC,PE,VISION-NSCLC-SITE002-0074,5,GENERALA,GENERAL APPEARANCE,NORMAL,NORMAL,1.0,SCREENING,SCREENING,2024-03-18,-14
VISION-NSCLC,PE,VISION-NSCLC-SITE002-0074,6,HEADANDN,HEAD AND NECK,NORMAL,NORMAL,1.0,SCREENING,SCREENING,2024-03-18,-14
VISION-NSCLC,PE,VISION-NSCLC-SITE002-0074,7,MUSCULOS,MUSCULOSKELETAL,NORMAL,NORMAL,1.0,SCREENING,SCREENING,2024-03-18,-14
VISION-NSCLC,PE,VISION-NSCLC-SITE002-0074,8,NEUROLOG,NEUROLOGICAL,NORMAL,NORMAL,1.0,SCREENING,SCREENING,2024-03-18,-14
VISION-NSCLC,PE,VISION-NSCLC-SITE002-0074,9,RESPIRAT,RESPIRATORY,NORMAL,NORMAL,1.0,SCREENING,SCREENING,2024-03-18,-14
VISION-NSCLC,PE,VISION-NSCLC-SITE002-0074,10,SKIN,SKIN,NORMAL,NORMAL,1.0,SCREENING,SCREENING,2024-03-18,-14
VISION-NSCLC,PE,VISION-NSCLC-SITE002-0074,11,ABDOMEN,ABDOMEN,NORMAL,NORMAL,2.0,C1D1,TREATMENT,2024-04-01,1
VISION-NSCLC,PE,VISION-NSCLC-SITE002-0074,12,CARDIOVA,CARDIOVASCULAR,NORMAL,NORMAL,2.0,C1D1,TREATMENT,2024-04-01,1
VISION-NSCLC,PE,VISION-NSCLC-SITE002-0074,13,EARSNOSE,"EARS, NOSE, AND THROAT",NORMAL,NORMAL,2.0,C1D1,TREATMENT,2024-04-01,1
VISION-NSCLC,PE,VISION-NSCLC-SITE002-0074,14,EYES,EYES,NORMAL,NORMAL,2.0,C1D1,TREATMENT,2024-04-01,1
VISION-NSCLC,PE,VISION-NSCLC-SITE002-0074,15,GENERALA,GENERAL APPEARANCE,NORMAL,NORMAL,2.0,C1D1,TREATMENT,2024-04-01,1
VISION-NSCLC,PE,VISION-NSCLC-SITE002-0074,16,HEADANDN,HEAD AND NECK,NORMAL,NORMAL,2.0,C1D1,TREATMENT,2024-04-01,1
VISION-NSCLC,PE,VISION-NSCLC-SITE002-0074,17,MUSCULOS,MUSCULOSKELETAL,NORMAL,NORMAL,2.0,C1D1,TREATMENT,2024-04-01,1
VISION-NSCLC,PE,VISION-NSCLC-SITE002-0074,18,NEUROLOG,NEUROLOGICAL,NORMAL,NORMAL,2.0,C1D1,TREATMENT,2024-04-01,1
VISION-NSCLC,PE,VISION-NSCLC-SITE002-0074,19,RESPIRAT,RESPIRATORY,NORMAL,NORMAL,2.0,C1D1,TREATMENT,2024-04-01,1
VISION-NSCLC,PE,VISION-NSCLC-SITE002-0074,20,SKIN,SKIN,RASH,RASH,2.0,C1D1,TREATMENT,2024-04-01,1
VISION-NSCLC,PE,VISION-NSCLC-SITE002-0077,1,ABDOMEN,ABDOMEN,NORMAL,NORMAL,1.0,SCREENING,SCREENING,2024-04-01,-29
VISION-NSCLC,PE,VISION-NSCLC-SITE002-0077,2,CARDIOVA,CARDIOVASCULAR,NORMAL,NORMAL,1.0,SCREENING,SCREENING,2024-04-01,-29
VISION-NSCLC,PE,VISION-NSCLC-SITE002-0077,3,EARSNOSE,"EARS, NOSE, AND THROAT",NORMAL,NORMAL,1.0,SCREENING,SCREENING,2024-04-01,-29
VISION-NSCLC,PE,VISION-NSCLC-SITE002-0077,4,EYES,EYES,NORMAL,NORMAL,1.0,SCREENING,SCREENING,2024-04-01,-29
VISION-NSCLC,PE,VISION-NSCLC-SITE002-0077,5,GENERALA,GENERAL APPEARANCE,NORMAL,NORMAL,1.0,SCREENING,SCREENING,2024-04-01,-29
VISION-NSCLC,PE,VISION-NSCLC-SITE002-0077,6,HEADANDN,HEAD AND NECK,NORMAL,NORMAL,1.0,SCREENING,SCREENING,2024-04-01,-29
VISION-NSCLC,PE,VISION-NSCLC-SITE002-0077,7,MUSCULOS,MUSCULOSKELETAL,NORMAL,NORMAL,1.0,SCREENING,SCREENING,2024-04-01,-29
VISION-NSCLC,PE,VISION-NSCLC-SITE002-0077,8,NEUROLOG,NEUROLOGICAL,NORMAL,NORMAL,1.0,SCREENING,SCREENING,2024-04-01,-29
VISION-NSCLC,PE,VISION-NSCLC-SITE002-0077,9,RESPIRAT,RESPIRATORY,NORMAL,NORMAL,1.0,SCREENING,SCREENING,2024-04-01,-29
VISION-NSCLC,PE,VISION-NSCLC-SITE002-0077,10,SKIN,SKIN,NORMAL,NORMAL,1.0,SCREENING,SCREENING,2024-04-01,-29
VISION-NSCLC,PE,VISION-NSCLC-SITE002-0077,11,ABDOMEN,ABDOMEN,NORMAL,NORMAL,2.0,C1D1,TREATMENT,2024-04-30,1
VISION-NSCLC,PE,VISION-NSCLC-SITE002-0077,12,CARDIOVA,CARDIOVASCULAR,NORMAL,NORMAL,2.0,C1D1,TREATMENT,2024-04-30,1
VISION-NSCLC,PE,VISION-NSCLC-SITE002-0077,13,EARSNOSE,"EARS, NOSE, AND THROAT",NORMAL,NORMAL,2.0,C1D1,TREATMENT,2024-04-30,1
VISION-NSCLC,PE,VISION-NSCLC-SITE002-0077,14,EYES,EYES,NORMAL,NORMAL,2.0,C1D1,TREATMENT,2024-04-30,1
VISION-NSCLC,PE,VISION-NSCLC-SITE002-0077,15,GENERALA,GENERAL APPEARANCE,NORMAL,NORMAL,2.0,C1D1,TREATMENT,2024-04-30,1
VISION-NSCLC,PE,VISION-NSCLC-SITE002-0077,16,HEADANDN,HEAD AND NECK,NORMAL,NORMAL,2.0,C1D1,TREATMENT,2024-04-30,1
VISION-NSCLC,PE,VISION-NSCLC-SITE002-0077,17,MUSCULOS,MUSCULOSKELETAL,NORMAL,NORMAL,2.0,C1D1,TREATMENT,2024-04-30,1
VISION-NSCLC,PE,VISION-NSCLC-SITE002-0077,18,NEUROLOG,NEUROLOGICAL,NORMAL,NORMAL,2.0,C1D1,TREATMENT,2024-04-30,1
VISION-NSCLC,PE,VISION-NSCLC-SITE002-0077,19,RESPIRAT,RESPIRATORY,NORMAL,NORMAL,2.0,C1D1,TREATMENT,2024-04-30,1
VISION-NSCLC,PE,VISION-NSCLC-SITE002-0077,20,SKIN,SKIN,NORMAL,NORMAL,2.0,C1D1,TREATMENT,2024-04-30,1
VISION-NSCLC,PE,VISION-NSCLC-SITE002-0080,1,ABDOMEN,ABDOMEN,NORMAL,NORMAL,1.0,SCREENING,SCREENING,2024-01-29,-23
VISION-NSCLC,PE,VISION-NSCLC-SITE002-0080,2,CARDIOVA,CARDIOVASCULAR,NORMAL,NORMAL,1.0,SCREENING,SCREENING,2024-01-29,-23
VISION-NSCLC,PE,VISION-NSCLC-SITE002-0080,3,EARSNOSE,"EARS, NOSE, AND THROAT",NORMAL,NORMAL,1.0,SCREENING,SCREENING,2024-01-29,-23
VISION-NSCLC,PE,VISION-NSCLC-SITE002-0080,4,EYES,EYES,NORMAL,NORMAL,1.0,SCREENING,SCREENING,2024-01-29,-23
VISION-NSCLC,PE,VISION-NSCLC-SITE002-0080,5,GENERALA,GENERAL APPEARANCE,NORMAL,NORMAL,1.0,SCREENING,SCREENING,2024-01-29,-23
VISION-NSCLC,PE,VISION-NSCLC-SITE002-0080,6,HEADANDN,HEAD AND NECK,NORMAL,NORMAL,1.0,SCREENING,SCREENING,2024-01-29,-23
VISION-NSCLC,PE,VISION-NSCLC-SITE002-0080,7,MUSCULOS,MUSCULOSKELETAL,NORMAL,NORMAL,1.0,SCREENING,SCREENING,2024-01-29,-23
VISION-NSCLC,PE,VISION-NSCLC-SITE002-0080,8,NEUROLOG,NEUROLOGICAL,NORMAL,NORMAL,1.0,SCREENING,SCREENING,2024-01-29,-23
VISION-NSCLC,PE,VISION-NSCLC-SITE002-0080,9,RESPIRAT,RESPIRATORY,NORMAL,NORMAL,1.0,SCREENING,SCREENING,2024-01-29,-23
VISION-NSCLC,PE,VISION-NSCLC-SITE002-0080,10,SKIN,SKIN,NORMAL,NORMAL,1.0,SCREENING,SCREENING,2024-01-29,-23
VISION-NSCLC,PE,VISION-NSCLC-SITE002-0080,11,ABDOMEN,ABDOMEN,NORMAL,NORMAL,2.0,C1D1,TREATMENT,2024-02-21,1
VISION-NSCLC,PE,VISION-NSCLC-SITE002-0080,12,CARDIOVA,CARDIOVASCULAR,NORMAL,NORMAL,2.0,C1D1,TREATMENT,2024-02-21,1
VISION-NSCLC,PE,VISION-NSCLC-SITE002-0080,13,EARSNOSE,"EARS, NOSE, AND THROAT",NORMAL,NORMAL,2.0,C1D1,TREATMENT,2024-02-21,1
VISION-NSCLC,PE,VISION-NSCLC-SITE002-0080,14,EYES,EYES,NORMAL,NORMAL,2.0,C1D1,TREATMENT,2024-02-21,1
VISION-NSCLC,PE,VISION-NSCLC-SITE002-0080,15,GENERALA,GENERAL APPEARANCE,NORMAL,NORMAL,2.0,C1D1,TREATMENT,2024-02-21,1
VISION-NSCLC,PE,VISION-NSCLC-SITE002-0080,16,HEADANDN,HEAD AND NECK,NORMAL,NORMAL,2.0,C1D1,TREATMENT,2024-02-21,1
VISION-NSCLC,PE,VISION-NSCLC-SITE002-0080,17,MUSCULOS,MUSCULOSKELETAL,NORMAL,NORMAL,2.0,C1D1,TREATMENT,2024-02-21,1
VISION-NSCLC,PE,VISION-NSCLC-SITE002-0080,18,NEUROLOG,NEUROLOGICAL,HYPERREFLEXIA,HYPERREFLEXIA,2.0,C1D1,TREATMENT,2024-02-21,1
VISION-NSCLC,PE,VISION-NSCLC-SITE002-0080,19,RESPIRAT,RESPIRATORY,NORMAL,NORMAL,2.0,C1D1,TREATMENT,2024-02-21,1
VISION-NSCLC,PE,VISION-NSCLC-SITE002-0080,20,SKIN,SKIN,NORMAL,NORMAL,2.0,C1D1,TREATMENT,2024-02-21,1
VISION-NSCLC,PE,VISION-NSCLC-SITE002-0083,1,ABDOMEN,ABDOMEN,NORMAL,NORMAL,1.0,SCREENING,SCREENING,2024-01-21,-7
VISION-NSCLC,PE,VISION-NSCLC-SITE002-0083,2,CARDIOVA,CARDIOVASCULAR,NORMAL,NORMAL,1.0,SCREENING,SCREENING,2024-01-21,-7
VISION-NSCLC,PE,VISION-NSCLC-SITE002-0083,3,EARSNOSE,"EARS, NOSE, AND THROAT",NORMAL,NORMAL,1.0,SCREENING,SCREENING,2024-01-21,-7
VISION-NSCLC,PE,VISION-NSCLC-SITE002-0083,4,EYES,EYES,NORMAL,NORMAL,1.0,SCREENING,SCREENING,2024-01-21,-7
VISION-NSCLC,PE,VISION-NSCLC-SITE002-0083,5,GENERALA,GENERAL APPEARANCE,NORMAL,NORMAL,1.0,SCREENING,SCREENING,2024-01-21,-7
VISION-NSCLC,PE,VISION-NSCLC-SITE002-0083,6,HEADANDN,HEAD AND NECK,NORMAL,NORMAL,1.0,SCREENING,SCREENING,2024-01-21,-7
VISION-NSCLC,PE,VISION-NSCLC-SITE002-0083,7,MUSCULOS,MUSCULOSKELETAL,NORMAL,NORMAL,1.0,SCREENING,SCREENING,2024-01-21,-7
VISION-NSCLC,PE,VISION-NSCLC-SITE002-0083,8,NEUROLOG,NEUROLOGICAL,NORMAL,NORMAL,1.0,SCREENING,SCREENING,2024-01-21,-7
VISION-NSCLC,PE,VISION-NSCLC-SITE002-0083,9,RESPIRAT,RESPIRATORY,NORMAL,NORMAL,1.0,SCREENING,SCREENING,2024-01-21,-7
VISION-NSCLC,PE,VISION-NSCLC-SITE002-0083,10,SKIN,SKIN,NORMAL,NORMAL,1.0,SCREENING,SCREENING,2024-01-21,-7
VISION-NSCLC,PE,VISION-NSCLC-SITE002-0083,11,ABDOMEN,ABDOMEN,NORMAL,NORMAL,2.0,C1D1,TREATMENT,2024-01-28,1
VISION-NSCLC,PE,VISION-NSCLC-SITE002-0083,12,CARDIOVA,CARDIOVASCULAR,NORMAL,NORMAL,2.0,C1D1,TREATMENT,2024-01-28,1
VISION-NSCLC,PE,VISION-NSCLC-SITE002-0083,13,EARSNOSE,"EARS, NOSE, AND THROAT",NORMAL,NORMAL,2.0,C1D1,TREATMENT,2024-01-28,1
VISION-NSCLC,PE,VISION-NSCLC-SITE002-0083,14,EYES,EYES,NORMAL,NORMAL,2.0,C1D1,TREATMENT,2024-01-28,1
VISION-NSCLC,PE,VISION-NSCLC-SITE002-0083,15,GENERALA,GENERAL APPEARANCE,NORMAL,NORMAL,2.0,C1D1,TREATMENT,2024-01-28,1
VISION-NSCLC,PE,VISION-NSCLC-SITE002-0083,16,HEADANDN,HEAD AND NECK,NORMAL,NORMAL,2.0,C1D1,TREATMENT,2024-01-28,1
VISION-NSCLC,PE,VISION-NSCLC-SITE002-0083,17,MUSCULOS,MUSCULOSKELETAL,NORMAL,NORMAL,2.0,C1D1,TREATMENT,2024-01-28,1
VISION-NSCLC,PE,VISION-NSCLC-SITE002-0083,18,NEUROLOG,NEUROLOGICAL,NORMAL,NORMAL,2.0,C1D1,TREATMENT,2024-01-28,1
VISION-NSCLC,PE,VISION-NSCLC-SITE002-0083,19,RESPIRAT,RESPIRATORY,NORMAL,NORMAL,2.0,C1D1,TREATMENT,2024-01-28,1
VISION-NSCLC,PE,VISION-NSCLC-SITE002-0083,20,SKIN,SKIN,NORMAL,NORMAL,2.0,C1D1,TREATMENT,2024-01-28,1
VISION-NSCLC,PE,VISION-NSCLC-SITE002-0086,1,ABDOMEN,ABDOMEN,NORMAL,NORMAL,1.0,SCREENING,SCREENING,2024-01-24,-30
VISION-NSCLC,PE,VISION-NSCLC-SITE002-0086,2,CARDIOVA,CARDIOVASCULAR,NORMAL,NORMAL,1.0,SCREENING,SCREENING,2024-01-24,-30
VISION-NSCLC,PE,VISION-NSCLC-SITE002-0086,3,EARSNOSE,"EARS, NOSE, AND THROAT",NORMAL,NORMAL,1.0,SCREENING,SCREENING,2024-01-24,-30
VISION-NSCLC,PE,VISION-NSCLC-SITE002-0086,4,EYES,EYES,NORMAL,NORMAL,1.0,SCREENING,SCREENING,2024-01-24,-30
VISION-NSCLC,PE,VISION-NSCLC-SITE002-0086,5,GENERALA,GENERAL APPEARANCE,NORMAL,NORMAL,1.0,SCREENING,SCREENING,2024-01-24,-30
VISION-NSCLC,PE,VISION-NSCLC-SITE002-0086,6,HEADANDN,HEAD AND NECK,NORMAL,NORMAL,1.0,SCREENING,SCREENING,2024-01-24,-30
VISION-NSCLC,PE,VISION-NSCLC-SITE002-0086,7,MUSCULOS,MUSCULOSKELETAL,JOINT SWELLING,JOINT SWELLING,1.0,SCREENING,SCREENING,2024-01-24,-30
VISION-NSCLC,PE,VISION-NSCLC-SITE002-0086,8,NEUROLOG,NEUROLOGICAL,NORMAL,NORMAL,1.0,SCREENING,SCREENING,2024-01-24,-30
VISION-NSCLC,PE,VISION-NSCLC-SITE002-0086,9,RESPIRAT,RESPIRATORY,NORMAL,NORMAL,1.0,SCREENING,SCREENING,2024-01-24,-30
VISION-NSCLC,PE,VISION-NSCLC-SITE002-0086,10,SKIN,SKIN,NORMAL,NORMAL,1.0,SCREENING,SCREENING,2024-01-24,-30
VISION-NSCLC,PE,VISION-NSCLC-SITE002-0086,11,ABDOMEN,ABDOMEN,NORMAL,NORMAL,2.0,C1D1,TREATMENT,2024-02-23,1
VISION-NSCLC,PE,VISION-NSCLC-SITE002-0086,12,CARDIOVA,CARDIOVASCULAR,NORMAL,NORMAL,2.0,C1D1,TREATMENT,2024-02-23,1
VISION-NSCLC,PE,VISION-NSCLC-SITE002-0086,13,EARSNOSE,"EARS, NOSE, AND THROAT",NORMAL,NORMAL,2.0,C1D1,TREATMENT,2024-02-23,1
VISION-NSCLC,PE,VISION-NSCLC-SITE002-0086,14,EYES,EYES,NORMAL,NORMAL,2.0,C1D1,TREATMENT,2024-02-23,1
VISION-NSCLC,PE,VISION-NSCLC-SITE002-0086,15,GENERALA,GENERAL APPEARANCE,NORMAL,NORMAL,2.0,C1D1,TREATMENT,2024-02-23,1
VISION-NSCLC,PE,VISION-NSCLC-SITE002-0086,16,HEADANDN,HEAD AND NECK,NORMAL,NORMAL,2.0,C1D1,TREATMENT,2024-02-23,1
VISION-NSCLC,PE,VISION-NSCLC-SITE002-0086,17,MUSCULOS,MUSCULOSKELETAL,NORMAL,NORMAL,2.0,C1D1,TREATMENT,2024-02-23,1
VISION-NSCLC,PE,VISION-NSCLC-SITE002-0086,18,NEUROLOG,NEUROLOGICAL,NORMAL,NORMAL,2.0,C1D1,TREATMENT,2024-02-23,1
VISION-NSCLC,PE,VISION-NSCLC-SITE002-0086,19,RESPIRAT,RESPIRATORY,NORMAL,NORMAL,2.0,C1D1,TREATMENT,2024-02-23,1
VISION-NSCLC,PE,VISION-NSCLC-SITE002-0086,20,SKIN,SKIN,NORMAL,NORMAL,2.0,C1D1,TREATMENT,2024-02-23,1
VISION-NSCLC,PE,VISION-NSCLC-SITE002-0089,1,ABDOMEN,ABDOMEN,NORMAL,NORMAL,1.0,SCREENING,SCREENING,2024-03-02,-15
VISION-NSCLC,PE,VISION-NSCLC-SITE002-0089,2,CARDIOVA,CARDIOVASCULAR,NORMAL,NORMAL,1.0,SCREENING,SCREENING,2024-03-02,-15
VISION-NSCLC,PE,VISION-NSCLC-SITE002-0089,3,EARSNOSE,"EARS, NOSE, AND THROAT",NORMAL,NORMAL,1.0,SCREENING,SCREENING,2024-03-02,-15
VISION-NSCLC,PE,VISION-NSCLC-SITE002-0089,4,EYES,EYES,NORMAL,NORMAL,1.0,SCREENING,SCREENING,2024-03-02,-15
VISION-NSCLC,PE,VISION-NSCLC-SITE002-0089,5,GENERALA,GENERAL APPEARANCE,NORMAL,NORMAL,1.0,SCREENING,SCREENING,2024-03-02,-15
VISION-NSCLC,PE,VISION-NSCLC-SITE002-0089,6,HEADANDN,HEAD AND NECK,NORMAL,NORMAL,1.0,SCREENING,SCREENING,2024-03-02,-15
VISION-NSCLC,PE,VISION-NSCLC-SITE002-0089,7,MUSCULOS,MUSCULOSKELETAL,NORMAL,NORMAL,1.0,SCREENING,SCREENING,2024-03-02,-15
VISION-NSCLC,PE,VISION-NSCLC-SITE002-0089,8,NEUROLOG,NEUROLOGICAL,NORMAL,NORMAL,1.0,SCREENING,SCREENING,2024-03-02,-15
VISION-NSCLC,PE,VISION-NSCLC-SITE002-0089,9,RESPIRAT,RESPIRATORY,NORMAL,NORMAL,1.0,SCREENING,SCREENING,2024-03-02,-15
VISION-NSCLC,PE,VISION-NSCLC-SITE002-0089,10,SKIN,SKIN,NORMAL,NORMAL,1.0,SCREENING,SCREENING,2024-03-02,-15
VISION-NSCLC,PE,VISION-NSCLC-SITE002-0089,11,ABDOMEN,ABDOMEN,NORMAL,NORMAL,2.0,C1D1,TREATMENT,2024-03-17,1
VISION-NSCLC,PE,VISION-NSCLC-SITE002-0089,12,CARDIOVA,CARDIOVASCULAR,NORMAL,NORMAL,2.0,C1D1,TREATMENT,2024-03-17,1
VISION-NSCLC,PE,VISION-NSCLC-SITE002-0089,13,EARSNOSE,"EARS, NOSE, AND THROAT",NORMAL,NORMAL,2.0,C1D1,TREATMENT,2024-03-17,1
VISION-NSCLC,PE,VISION-NSCLC-SITE002-0089,14,EYES,EYES,NORMAL,NORMAL,2.0,C1D1,TREATMENT,2024-03-17,1
VISION-NSCLC,PE,VISION-NSCLC-SITE002-0089,15,GENERALA,GENERAL APPEARANCE,NORMAL,NORMAL,2.0,C1D1,TREATMENT,2024-03-17,1
VISION-NSCLC,PE,VISION-NSCLC-SITE002-0089,16,HEADANDN,HEAD AND NECK,NORMAL,NORMAL,2.0,C1D1,TREATMENT,2024-03-17,1
VISION-NSCLC,PE,VISION-NSCLC-SITE002-0089,17,MUSCULOS,MUSCULOSKELETAL,NORMAL,NORMAL,2.0,C1D1,TREATMENT,2024-03-17,1
VISION-NSCLC,PE,VISION-NSCLC-SITE002-0089,18,NEUROLOG,NEUROLOGICAL,NORMAL,NORMAL,2.0,C1D1,TREATMENT,2024-03-17,1
VISION-NSCLC,PE,VISION-NSCLC-SITE002-0089,19,RESPIRAT,RESPIRATORY,NORMAL,NORMAL,2.0,C1D1,TREATMENT,2024-03-17,1
VISION-NSCLC,PE,VISION-NSCLC-SITE002-0089,20,SKIN,SKIN,NORMAL,NORMAL,2.0,C1D1,TREATMENT,2024-03-17,1
VISION-NSCLC,PE,VISION-NSCLC-SITE002-0092,1,ABDOMEN,ABDOMEN,NORMAL,NORMAL,1.0,SCREENING,SCREENING,2024-03-04,-32
VISION-NSCLC,PE,VISION-NSCLC-SITE002-0092,2,CARDIOVA,CARDIOVASCULAR,NORMAL,NORMAL,1.0,SCREENING,SCREENING,2024-03-04,-32
VISION-NSCLC,PE,VISION-NSCLC-SITE002-0092,3,EARSNOSE,"EARS, NOSE, AND THROAT",NORMAL,NORMAL,1.0,SCREENING,SCREENING,2024-03-04,-32
VISION-NSCLC,PE,VISION-NSCLC-SITE002-0092,4,EYES,EYES,NORMAL,NORMAL,1.0,SCREENING,SCREENING,2024-03-04,-32
VISION-NSCLC,PE,VISION-NSCLC-SITE002-0092,5,GENERALA,GENERAL APPEARANCE,NORMAL,NORMAL,1.0,SCREENING,SCREENING,2024-03-04,-32
VISION-NSCLC,PE,VISION-NSCLC-SITE002-0092,6,HEADANDN,HEAD AND NECK,NORMAL,NORMAL,1.0,SCREENING,SCREENING,2024-03-04,-32
VISION-NSCLC,PE,VISION-NSCLC-SITE002-0092,7,MUSCULOS,MUSCULOSKELETAL,NORMAL,NORMAL,1.0,SCREENING,SCREENING,2024-03-04,-32
VISION-NSCLC,PE,VISION-NSCLC-SITE002-0092,8,NEUROLOG,NEUROLOGICAL,NORMAL,NORMAL,1.0,SCREENING,SCREENING,2024-03-04,-32
VISION-NSCLC,PE,VISION-NSCLC-SITE002-0092,9,RESPIRAT,RESPIRATORY,NORMAL,NORMAL,1.0,SCREENING,SCREENING,2024-03-04,-32
VISION-NSCLC,PE,VISION-NSCLC-SITE002-0092,10,SKIN,SKIN,NORMAL,NORMAL,1.0,SCREENING,SCREENING,2024-03-04,-32
VISION-NSCLC,PE,VISION-NSCLC-SITE002-0092,11,ABDOMEN,ABDOMEN,NORMAL,NORMAL,2.0,C1D1,TREATMENT,2024-04-05,1
VISION-NSCLC,PE,VISION-NSCLC-SITE002-0092,12,CARDIOVA,CARDIOVASCULAR,NORMAL,NORMAL,2.0,C1D1,TREATMENT,2024-04-05,1
VISION-NSCLC,PE,VISION-NSCLC-SITE002-0092,13,EARSNOSE,"EARS, NOSE, AND THROAT",NORMAL,NORMAL,2.0,C1D1,TREATMENT,2024-04-05,1
VISION-NSCLC,PE,VISION-NSCLC-SITE002-0092,14,EYES,EYES,NORMAL,NORMAL,2.0,C1D1,TREATMENT,2024-04-05,1
VISION-NSCLC,PE,VISION-NSCLC-SITE002-0092,15,GENERALA,GENERAL APPEARANCE,NORMAL,NORMAL,2.0,C1D1,TREATMENT,2024-04-05,1
VISION-NSCLC,PE,VISION-NSCLC-SITE002-0092,16,HEADANDN,HEAD AND NECK,NORMAL,NORMAL,2.0,C1D1,TREATMENT,2024-04-05,1
VISION-NSCLC,PE,VISION-NSCLC-SITE002-0092,17,MUSCULOS,MUSCULOSKELETAL,NORMAL,NORMAL,2.0,C1D1,TREATMENT,2024-04-05,1
VISION-NSCLC,PE,VISION-NSCLC-SITE002-0092,18,NEUROLOG,NEUROLOGICAL,NORMAL,NORMAL,2.0,C1D1,TREATMENT,2024-04-05,1
VISION-NSCLC,PE,VISION-NSCLC-SITE002-0092,19,RESPIRAT,RESPIRATORY,NORMAL,NORMAL,2.0,C1D1,TREATMENT,2024-04-05,1
VISION-NSCLC,PE,VISION-NSCLC-SITE002-0092,20,SKIN,SKIN,NORMAL,NORMAL,2.0,C1D1,TREATMENT,2024-04-05,1
VISION-NSCLC,PE,VISION-NSCLC-SITE002-0095,1,ABDOMEN,ABDOMEN,NORMAL,NORMAL,1.0,SCREENING,SCREENING,2024-03-17,-16
VISION-NSCLC,PE,VISION-NSCLC-SITE002-0095,2,CARDIOVA,CARDIOVASCULAR,NORMAL,NORMAL,1.0,SCREENING,SCREENING,2024-03-17,-16
VISION-NSCLC,PE,VISION-NSCLC-SITE002-0095,3,EARSNOSE,"EARS, NOSE, AND THROAT",NORMAL,NORMAL,1.0,SCREENING,SCREENING,2024-03-17,-16
VISION-NSCLC,PE,VISION-NSCLC-SITE002-0095,4,EYES,EYES,NORMAL,NORMAL,1.0,SCREENING,SCREENING,2024-03-17,-16
VISION-NSCLC,PE,VISION-NSCLC-SITE002-0095,5,GENERALA,GENERAL APPEARANCE,NORMAL,NORMAL,1.0,SCREENING,SCREENING,2024-03-17,-16
VISION-NSCLC,PE,VISION-NSCLC-SITE002-0095,6,HEADANDN,HEAD AND NECK,NORMAL,NORMAL,1.0,SCREENING,SCREENING,2024-03-17,-16
VISION-NSCLC,PE,VISION-NSCLC-SITE002-0095,7,MUSCULOS,MUSCULOSKELETAL,NORMAL,NORMAL,1.0,SCREENING,SCREENING,2024-03-17,-16
VISION-NSCLC,PE,VISION-NSCLC-SITE002-0095,8,NEUROLOG,NEUROLOGICAL,NORMAL,NORMAL,1.0,SCREENING,SCREENING,2024-03-17,-16
VISION-NSCLC,PE,VISION-NSCLC-SITE002-0095,9,RESPIRAT,RESPIRATORY,NORMAL,NORMAL,1.0,SCREENING,SCREENING,2024-03-17,-16
VISION-NSCLC,PE,VISION-NSCLC-SITE002-0095,10,SKIN,SKIN,NORMAL,NORMAL,1.0,SCREENING,SCREENING,2024-03-17,-16
VISION-NSCLC,PE,VISION-NSCLC-SITE002-0095,11,ABDOMEN,ABDOMEN,NORMAL,NORMAL,2.0,C1D1,TREATMENT,2024-04-02,1
VISION-NSCLC,PE,VISION-NSCLC-SITE002-0095,12,CARDIOVA,CARDIOVASCULAR,NORMAL,NORMAL,2.0,C1D1,TREATMENT,2024-04-02,1
VISION-NSCLC,PE,VISION-NSCLC-SITE002-0095,13,EARSNOSE,"EARS, NOSE, AND THROAT",NORMAL,NORMAL,2.0,C1D1,TREATMENT,2024-04-02,1
VISION-NSCLC,PE,VISION-NSCLC-SITE002-0095,14,EYES,EYES,NORMAL,NORMAL,2.0,C1D1,TREATMENT,2024-04-02,1
VISION-NSCLC,PE,VISION-NSCLC-SITE002-0095,15,GENERALA,GENERAL APPEARANCE,NORMAL,NORMAL,2.0,C1D1,TREATMENT,2024-04-02,1
VISION-NSCLC,PE,VISION-NSCLC-SITE002-0095,16,HEADANDN,HEAD AND NECK,NORMAL,NORMAL,2.0,C1D1,TREATMENT,2024-04-02,1
VISION-NSCLC,PE,VISION-NSCLC-SITE002-0095,17,MUSCULOS,MUSCULOSKELETAL,NORMAL,NORMAL,2.0,C1D1,TREATMENT,2024-04-02,1
VISION-NSCLC,PE,VISION-NSCLC-SITE002-0095,18,NEUROLOG,NEUROLOGICAL,NORMAL,NORMAL,2.0,C1D1,TREATMENT,2024-04-02,1
VISION-NSCLC,PE,VISION-NSCLC-SITE002-0095,19,RESPIRAT,RESPIRATORY,NORMAL,NORMAL,2.0,C1D1,TREATMENT,2024-04-02,1
VISION-NSCLC,PE,VISION-NSCLC-SITE002-0095,20,SKIN,SKIN,NORMAL,NORMAL,2.0,C1D1,TREATMENT,2024-04-02,1
VISION-NSCLC,PE,VISION-NSCLC-SITE002-0101,1,ABDOMEN,ABDOMEN,NORMAL,NORMAL,1.0,SCREENING,SCREENING,2024-02-22,-12
VISION-NSCLC,PE,VISION-NSCLC-SITE002-0101,2,CARDIOVA,CARDIOVASCULAR,NORMAL,NORMAL,1.0,SCREENING,SCREENING,2024-02-22,-12
VISION-NSCLC,PE,VISION-NSCLC-SITE002-0101,3,EARSNOSE,"EARS, NOSE, AND THROAT",NORMAL,NORMAL,1.0,SCREENING,SCREENING,2024-02-22,-12
VISION-NSCLC,PE,VISION-NSCLC-SITE002-0101,4,EYES,EYES,NORMAL,NORMAL,1.0,SCREENING,SCREENING,2024-02-22,-12
VISION-NSCLC,PE,VISION-NSCLC-SITE002-0101,5,GENERALA,GENERAL APPEARANCE,NORMAL,NORMAL,1.0,SCREENING,SCREENING,2024-02-22,-12
VISION-NSCLC,PE,VISION-NSCLC-SITE002-0101,6,HEADANDN,HEAD AND NECK,NORMAL,NORMAL,1.0,SCREENING,SCREENING,2024-02-22,-12
VISION-NSCLC,PE,VISION-NSCLC-SITE002-0101,7,MUSCULOS,MUSCULOSKELETAL,NORMAL,NORMAL,1.0,SCREENING,SCREENING,2024-02-22,-12
VISION-NSCLC,PE,VISION-NSCLC-SITE002-0101,8,NEUROLOG,NEUROLOGICAL,NORMAL,NORMAL,1.0,SCREENING,SCREENING,2024-02-22,-12
VISION-NSCLC,PE,VISION-NSCLC-SITE002-0101,9,RESPIRAT,RESPIRATORY,NORMAL,NORMAL,1.0,SCREENING,SCREENING,2024-02-22,-12
VISION-NSCLC,PE,VISION-NSCLC-SITE002-0101,10,SKIN,SKIN,NORMAL,NORMAL,1.0,SCREENING,SCREENING,2024-02-22,-12
VISION-NSCLC,PE,VISION-NSCLC-SITE002-0101,11,ABDOMEN,ABDOMEN,TENDERNESS,TENDERNESS,2.0,C1D1,TREATMENT,2024-03-05,1
VISION-NSCLC,PE,VISION-NSCLC-SITE002-0101,12,CARDIOVA,CARDIOVASCULAR,NORMAL,NORMAL,2.0,C1D1,TREATMENT,2024-03-05,1
VISION-NSCLC,PE,VISION-NSCLC-SITE002-0101,13,EARSNOSE,"EARS, NOSE, AND THROAT",NORMAL,NORMAL,2.0,C1D1,TREATMENT,2024-03-05,1
VISION-NSCLC,PE,VISION-NSCLC-SITE002-0101,14,EYES,EYES,NORMAL,NORMAL,2.0,C1D1,TREATMENT,2024-03-05,1
VISION-NSCLC,PE,VISION-NSCLC-SITE002-0101,15,GENERALA,GENERAL APPEARANCE,NORMAL,NORMAL,2.0,C1D1,TREATMENT,2024-03-05,1
VISION-NSCLC,PE,VISION-NSCLC-SITE002-0101,16,HEADANDN,HEAD AND NECK,NORMAL,NORMAL,2.0,C1D1,TREATMENT,2024-03-05,1
VISION-NSCLC,PE,VISION-NSCLC-SITE002-0101,17,MUSCULOS,MUSCULOSKELETAL,NORMAL,NORMAL,2.0,C1D1,TREATMENT,2024-03-05,1
VISION-NSCLC,PE,VISION-NSCLC-SITE002-0101,18,NEUROLOG,NEUROLOGICAL,NORMAL,NORMAL,2.0,C1D1,TREATMENT,2024-03-05,1
VISION-NSCLC,PE,VISION-NSCLC-SITE002-0101,19,RESPIRAT,RESPIRATORY,DECREASED BREATH SOUNDS,DECREASED BREATH SOUNDS,2.0,C1D1,TREATMENT,2024-03-05,1
VISION-NSCLC,PE,VISION-NSCLC-SITE002-0101,20,SKIN,SKIN,NORMAL,NORMAL,2.0,C1D1,TREATMENT,2024-03-05,1
VISION-NSCLC,PE,VISION-NSCLC-SITE002-0104,1,ABDOMEN,ABDOMEN,NORMAL,NORMAL,1.0,SCREENING,SCREENING,2024-01-15,-16
VISION-NSCLC,PE,VISION-NSCLC-SITE002-0104,2,CARDIOVA,CARDIOVASCULAR,NORMAL,NORMAL,1.0,SCREENING,SCREENING,2024-01-15,-16
VISION-NSCLC,PE,VISION-NSCLC-SITE002-0104,3,EARSNOSE,"EARS, NOSE, AND THROAT",NORMAL,NORMAL,1.0,SCREENING,SCREENING,2024-01-15,-16
VISION-NSCLC,PE,VISION-NSCLC-SITE002-0104,4,EYES,EYES,NORMAL,NORMAL,1.0,SCREENING,SCREENING,2024-01-15,-16
VISION-NSCLC,PE,VISION-NSCLC-SITE002-0104,5,GENERALA,GENERAL APPEARANCE,NORMAL,NORMAL,1.0,SCREENING,SCREENING,2024-01-15,-16
VISION-NSCLC,PE,VISION-NSCLC-SITE002-0104,6,HEADANDN,HEAD AND NECK,NORMAL,NORMAL,1.0,SCREENING,SCREENING,2024-01-15,-16
VISION-NSCLC,PE,VISION-NSCLC-SITE002-0104,7,MUSCULOS,MUSCULOSKELETAL,NORMAL,NORMAL,1.0,SCREENING,SCREENING,2024-01-15,-16
VISION-NSCLC,PE,VISION-NSCLC-SITE002-0104,8,NEUROLOG,NEUROLOGICAL,NORMAL,NORMAL,1.0,SCREENING,SCREENING,2024-01-15,-16
VISION-NSCLC,PE,VISION-NSCLC-SITE002-0104,9,RESPIRAT,RESPIRATORY,NORMAL,NORMAL,1.0,SCREENING,SCREENING,2024-01-15,-16
VISION-NSCLC,PE,VISION-NSCLC-SITE002-0104,10,SKIN,SKIN,NORMAL,NORMAL,1.0,SCREENING,SCREENING,2024-01-15,-16
VISION-NSCLC,PE,VISION-NSCLC-SITE002-0104,11,ABDOMEN,ABDOMEN,NORMAL,NORMAL,2.0,C1D1,TREATMENT,2024-01-31,1
VISION-NSCLC,PE,VISION-NSCLC-SITE002-0104,12,CARDIOVA,CARDIOVASCULAR,NORMAL,NORMAL,2.0,C1D1,TREATMENT,2024-01-31,1
VISION-NSCLC,PE,VISION-NSCLC-SITE002-0104,13,EARSNOSE,"EARS, NOSE, AND THROAT",NORMAL,NORMAL,2.0,C1D1,TREATMENT,2024-01-31,1
VISION-NSCLC,PE,VISION-NSCLC-SITE002-0104,14,EYES,EYES,NORMAL,NORMAL,2.0,C1D1,TREATMENT,2024-01-31,1
VISION-NSCLC,PE,VISION-NSCLC-SITE002-0104,15,GENERALA,GENERAL APPEARANCE,NORMAL,NORMAL,2.0,C1D1,TREATMENT,2024-01-31,1
VISION-NSCLC,PE,VISION-NSCLC-SITE002-0104,16,HEADANDN,HEAD AND NECK,NORMAL,NORMAL,2.0,C1D1,TREATMENT,2024-01-31,1
VISION-NSCLC,PE,VISION-NSCLC-SITE002-0104,17,MUSCULOS,MUSCULOSKELETAL,NORMAL,NORMAL,2.0,C1D1,TREATMENT,2024-01-31,1
VISION-NSCLC,PE,VISION-NSCLC-SITE002-0104,18,NEUROLOG,NEUROLOGICAL,NORMAL,NORMAL,2.0,C1D1,TREATMENT,2024-01-31,1
VISION-NSCLC,PE,VISION-NSCLC-SITE002-0104,19,RESPIRAT,RESPIRATORY,NORMAL,NORMAL,2.0,C1D1,TREATMENT,2024-01-31,1
VISION-NSCLC,PE,VISION-NSCLC-SITE002-0104,20,SKIN,SKIN,NORMAL,NORMAL,2.0,C1D1,TREATMENT,2024-01-31,1
VISION-NSCLC,PE,VISION-NSCLC-SITE002-0107,1,ABDOMEN,ABDOMEN,NORMAL,NORMAL,1.0,SCREENING,SCREENING,2024-02-17,-29
VISION-NSCLC,PE,VISION-NSCLC-SITE002-0107,2,CARDIOVA,CARDIOVASCULAR,NORMAL,NORMAL,1.0,SCREENING,SCREENING,2024-02-17,-29
VISION-NSCLC,PE,VISION-NSCLC-SITE002-0107,3,EARSNOSE,"EARS, NOSE, AND THROAT",NORMAL,NORMAL,1.0,SCREENING,SCREENING,2024-02-17,-29
VISION-NSCLC,PE,VISION-NSCLC-SITE002-0107,4,EYES,EYES,NORMAL,NORMAL,1.0,SCREENING,SCREENING,2024-02-17,-29
VISION-NSCLC,PE,VISION-NSCLC-SITE002-0107,5,GENERALA,GENERAL APPEARANCE,NORMAL,NORMAL,1.0,SCREENING,SCREENING,2024-02-17,-29
VISION-NSCLC,PE,VISION-NSCLC-SITE002-0107,6,HEADANDN,HEAD AND NECK,NORMAL,NORMAL,1.0,SCREENING,SCREENING,2024-02-17,-29
VISION-NSCLC,PE,VISION-NSCLC-SITE002-0107,7,MUSCULOS,MUSCULOSKELETAL,NORMAL,NORMAL,1.0,SCREENING,SCREENING,2024-02-17,-29
VISION-NSCLC,PE,VISION-NSCLC-SITE002-0107,8,NEUROLOG,NEUROLOGICAL,NORMAL,NORMAL,1.0,SCREENING,SCREENING,2024-02-17,-29
VISION-NSCLC,PE,VISION-NSCLC-SITE002-0107,9,RESPIRAT,RESPIRATORY,NORMAL,NORMAL,1.0,SCREENING,SCREENING,2024-02-17,-29
VISION-NSCLC,PE,VISION-NSCLC-SITE002-0107,10,SKIN,SKIN,NORMAL,NORMAL,1.0,SCREENING,SCREENING,2024-02-17,-29
VISION-NSCLC,PE,VISION-NSCLC-SITE002-0107,11,ABDOMEN,ABDOMEN,NORMAL,NORMAL,2.0,C1D1,TREATMENT,2024-03-17,1
VISION-NSCLC,PE,VISION-NSCLC-SITE002-0107,12,CARDIOVA,CARDIOVASCULAR,NORMAL,NORMAL,2.0,C1D1,TREATMENT,2024-03-17,1
VISION-NSCLC,PE,VISION-NSCLC-SITE002-0107,13,EARSNOSE,"EARS, NOSE, AND THROAT",NORMAL,NORMAL,2.0,C1D1,TREATMENT,2024-03-17,1
VISION-NSCLC,PE,VISION-NSCLC-SITE002-0107,14,EYES,EYES,NORMAL,NORMAL,2.0,C1D1,TREATMENT,2024-03-17,1
VISION-NSCLC,PE,VISION-NSCLC-SITE002-0107,15,GENERALA,GENERAL APPEARANCE,NORMAL,NORMAL,2.0,C1D1,TREATMENT,2024-03-17,1
VISION-NSCLC,PE,VISION-NSCLC-SITE002-0107,16,HEADANDN,HEAD AND NECK,NORMAL,NORMAL,2.0,C1D1,TREATMENT,2024-03-17,1
VISION-NSCLC,PE,VISION-NSCLC-SITE002-0107,17,MUSCULOS,MUSCULOSKELETAL,NORMAL,NORMAL,2.0,C1D1,TREATMENT,2024-03-17,1
VISION-NSCLC,PE,VISION-NSCLC-SITE002-0107,18,NEUROLOG,NEUROLOGICAL,NORMAL,NORMAL,2.0,C1D1,TREATMENT,2024-03-17,1
VISION-NSCLC,PE,VISION-NSCLC-SITE002-0107,19,RESPIRAT,RESPIRATORY,NORMAL,NORMAL,2.0,C1D1,TREATMENT,2024-03-17,1
VISION-NSCLC,PE,VISION-NSCLC-SITE002-0107,20,SKIN,SKIN,NORMAL,NORMAL,2.0,C1D1,TREATMENT,2024-03-17,1
VISION-NSCLC,PE,VISION-NSCLC-SITE002-0110,1,ABDOMEN,ABDOMEN,NORMAL,NORMAL,1.0,SCREENING,SCREENING,2024-03-30,-15
VISION-NSCLC,PE,VISION-NSCLC-SITE002-0110,2,CARDIOVA,CARDIOVASCULAR,NORMAL,NORMAL,1.0,SCREENING,SCREENING,2024-03-30,-15
VISION-NSCLC,PE,VISION-NSCLC-SITE002-0110,3,EARSNOSE,"EARS, NOSE, AND THROAT",NORMAL,NORMAL,1.0,SCREENING,SCREENING,2024-03-30,-15
VISION-NSCLC,PE,VISION-NSCLC-SITE002-0110,4,EYES,EYES,NORMAL,NORMAL,1.0,SCREENING,SCREENING,2024-03-30,-15
VISION-NSCLC,PE,VISION-NSCLC-SITE002-0110,5,GENERALA,GENERAL APPEARANCE,NORMAL,NORMAL,1.0,SCREENING,SCREENING,2024-03-30,-15
VISION-NSCLC,PE,VISION-NSCLC-SITE002-0110,6,HEADANDN,HEAD AND NECK,NORMAL,NORMAL,1.0,SCREENING,SCREENING,2024-03-30,-15
VISION-NSCLC,PE,VISION-NSCLC-SITE002-0110,7,MUSCULOS,MUSCULOSKELETAL,NORMAL,NORMAL,1.0,SCREENING,SCREENING,2024-03-30,-15
VISION-NSCLC,PE,VISION-NSCLC-SITE002-0110,8,NEUROLOG,NEUROLOGICAL,NORMAL,NORMAL,1.0,SCREENING,SCREENING,2024-03-30,-15
VISION-NSCLC,PE,VISION-NSCLC-SITE002-0110,9,RESPIRAT,RESPIRATORY,NORMAL,NORMAL,1.0,SCREENING,SCREENING,2024-03-30,-15
VISION-NSCLC,PE,VISION-NSCLC-SITE002-0110,10,SKIN,SKIN,NORMAL,NORMAL,1.0,SCREENING,SCREENING,2024-03-30,-15
VISION-NSCLC,PE,VISION-NSCLC-SITE002-0110,11,ABDOMEN,ABDOMEN,NORMAL,NORMAL,2.0,C1D1,TREATMENT,2024-04-14,1
VISION-NSCLC,PE,VISION-NSCLC-SITE002-0110,12,CARDIOVA,CARDIOVASCULAR,NORMAL,NORMAL,2.0,C1D1,TREATMENT,2024-04-14,1
VISION-NSCLC,PE,VISION-NSCLC-SITE002-0110,13,EARSNOSE,"EARS, NOSE, AND THROAT",NORMAL,NORMAL,2.0,C1D1,TREATMENT,2024-04-14,1
VISION-NSCLC,PE,VISION-NSCLC-SITE002-0110,14,EYES,EYES,NORMAL,NORMAL,2.0,C1D1,TREATMENT,2024-04-14,1
VISION-NSCLC,PE,VISION-NSCLC-SITE002-0110,15,GENERALA,GENERAL APPEARANCE,NORMAL,NORMAL,2.0,C1D1,TREATMENT,2024-04-14,1
VISION-NSCLC,PE,VISION-NSCLC-SITE002-0110,16,HEADANDN,HEAD AND NECK,NORMAL,NORMAL,2.0,C1D1,TREATMENT,2024-04-14,1
VISION-NSCLC,PE,VISION-NSCLC-SITE002-0110,17,MUSCULOS,MUSCULOSKELETAL,NORMAL,NORMAL,2.0,C1D1,TREATMENT,2024-04-14,1
VISION-NSCLC,PE,VISION-NSCLC-SITE002-0110,18,NEUROLOG,NEUROLOGICAL,NORMAL,NORMAL,2.0,C1D1,TREATMENT,2024-04-14,1
VISION-NSCLC,PE,VISION-NSCLC-SITE002-0110,19,RESPIRAT,RESPIRATORY,NORMAL,NORMAL,2.0,C1D1,TREATMENT,2024-04-14,1
VISION-NSCLC,PE,VISION-NSCLC-SITE002-0110,20,SKIN,SKIN,DRY SKIN,DRY SKIN,2.0,C1D1,TREATMENT,2024-04-14,1
VISION-NSCLC,PE,VISION-NSCLC-SITE002-0113,1,ABDOMEN,ABDOMEN,NORMAL,NORMAL,1.0,SCREENING,SCREENING,2024-01-26,-26
VISION-NSCLC,PE,VISION-NSCLC-SITE002-0113,2,CARDIOVA,CARDIOVASCULAR,NORMAL,NORMAL,1.0,SCREENING,SCREENING,2024-01-26,-26
VISION-NSCLC,PE,VISION-NSCLC-SITE002-0113,3,EARSNOSE,"EARS, NOSE, AND THROAT",NORMAL,NORMAL,1.0,SCREENING,SCREENING,2024-01-26,-26
VISION-NSCLC,PE,VISION-NSCLC-SITE002-0113,4,EYES,EYES,NORMAL,NORMAL,1.0,SCREENING,SCREENING,2024-01-26,-26
VISION-NSCLC,PE,VISION-NSCLC-SITE002-0113,5,GENERALA,GENERAL APPEARANCE,NORMAL,NORMAL,1.0,SCREENING,SCREENING,2024-01-26,-26
VISION-NSCLC,PE,VISION-NSCLC-SITE002-0113,6,HEADANDN,HEAD AND NECK,NORMAL,NORMAL,1.0,SCREENING,SCREENING,2024-01-26,-26
VISION-NSCLC,PE,VISION-NSCLC-SITE002-0113,7,MUSCULOS,MUSCULOSKELETAL,NORMAL,NORMAL,1.0,SCREENING,SCREENING,2024-01-26,-26
VISION-NSCLC,PE,VISION-NSCLC-SITE002-0113,8,NEUROLOG,NEUROLOGICAL,NORMAL,NORMAL,1.0,SCREENING,SCREENING,2024-01-26,-26
VISION-NSCLC,PE,VISION-NSCLC-SITE002-0113,9,RESPIRAT,RESPIRATORY,NORMAL,NORMAL,1.0,SCREENING,SCREENING,2024-01-26,-26
VISION-NSCLC,PE,VISION-NSCLC-SITE002-0113,10,SKIN,SKIN,NORMAL,NORMAL,1.0,SCREENING,SCREENING,2024-01-26,-26
VISION-NSCLC,PE,VISION-NSCLC-SITE002-0113,11,ABDOMEN,ABDOMEN,NORMAL,NORMAL,2.0,C1D1,TREATMENT,2024-02-21,1
VISION-NSCLC,PE,VISION-NSCLC-SITE002-0113,12,CARDIOVA,CARDIOVASCULAR,NORMAL,NORMAL,2.0,C1D1,TREATMENT,2024-02-21,1
VISION-NSCLC,PE,VISION-NSCLC-SITE002-0113,13,EARSNOSE,"EARS, NOSE, AND THROAT",NORMAL,NORMAL,2.0,C1D1,TREATMENT,2024-02-21,1
VISION-NSCLC,PE,VISION-NSCLC-SITE002-0113,14,EYES,EYES,NORMAL,NORMAL,2.0,C1D1,TREATMENT,2024-02-21,1
VISION-NSCLC,PE,VISION-NSCLC-SITE002-0113,15,GENERALA,GENERAL APPEARANCE,NORMAL,NORMAL,2.0,C1D1,TREATMENT,2024-02-21,1
VISION-NSCLC,PE,VISION-NSCLC-SITE002-0113,16,HEADANDN,HEAD AND NECK,NORMAL,NORMAL,2.0,C1D1,TREATMENT,2024-02-21,1
VISION-NSCLC,PE,VISION-NSCLC-SITE002-0113,17,MUSCULOS,MUSCULOSKELETAL,NORMAL,NORMAL,2.0,C1D1,TREATMENT,2024-02-21,1
VISION-NSCLC,PE,VISION-NSCLC-SITE002-0113,18,NEUROLOG,NEUROLOGICAL,NORMAL,NORMAL,2.0,C1D1,TREATMENT,2024-02-21,1
VISION-NSCLC,PE,VISION-NSCLC-SITE002-0113,19,RESPIRAT,RESPIRATORY,NORMAL,NORMAL,2.0,C1D1,TREATMENT,2024-02-21,1
VISION-NSCLC,PE,VISION-NSCLC-SITE002-0113,20,SKIN,SKIN,DRY SKIN,DRY SKIN,2.0,C1D1,TREATMENT,2024-02-21,1
VISION-NSCLC,PE,VISION-NSCLC-SITE002-0116,1,ABDOMEN,ABDOMEN,NORMAL,NORMAL,1.0,SCREENING,SCREENING,2024-01-18,-32
VISION-NSCLC,PE,VISION-NSCLC-SITE002-0116,2,CARDIOVA,CARDIOVASCULAR,NORMAL,NORMAL,1.0,SCREENING,SCREENING,2024-01-18,-32
VISION-NSCLC,PE,VISION-NSCLC-SITE002-0116,3,EARSNOSE,"EARS, NOSE, AND THROAT",NORMAL,NORMAL,1.0,SCREENING,SCREENING,2024-01-18,-32
VISION-NSCLC,PE,VISION-NSCLC-SITE002-0116,4,EYES,EYES,NORMAL,NORMAL,1.0,SCREENING,SCREENING,2024-01-18,-32
VISION-NSCLC,PE,VISION-NSCLC-SITE002-0116,5,GENERALA,GENERAL APPEARANCE,NORMAL,NORMAL,1.0,SCREENING,SCREENING,2024-01-18,-32
VISION-NSCLC,PE,VISION-NSCLC-SITE002-0116,6,HEADANDN,HEAD AND NECK,NORMAL,NORMAL,1.0,SCREENING,SCREENING,2024-01-18,-32
VISION-NSCLC,PE,VISION-NSCLC-SITE002-0116,7,MUSCULOS,MUSCULOSKELETAL,NORMAL,NORMAL,1.0,SCREENING,SCREENING,2024-01-18,-32
VISION-NSCLC,PE,VISION-NSCLC-SITE002-0116,8,NEUROLOG,NEUROLOGICAL,NORMAL,NORMAL,1.0,SCREENING,SCREENING,2024-01-18,-32
VISION-NSCLC,PE,VISION-NSCLC-SITE002-0116,9,RESPIRAT,RESPIRATORY,NORMAL,NORMAL,1.0,SCREENING,SCREENING,2024-01-18,-32
VISION-NSCLC,PE,VISION-NSCLC-SITE002-0116,10,SKIN,SKIN,NORMAL,NORMAL,1.0,SCREENING,SCREENING,2024-01-18,-32
VISION-NSCLC,PE,VISION-NSCLC-SITE002-0116,11,ABDOMEN,ABDOMEN,NORMAL,NORMAL,2.0,C1D1,TREATMENT,2024-02-19,1
VISION-NSCLC,PE,VISION-NSCLC-SITE002-0116,12,CARDIOVA,CARDIOVASCULAR,NORMAL,NORMAL,2.0,C1D1,TREATMENT,2024-02-19,1
VISION-NSCLC,PE,VISION-NSCLC-SITE002-0116,13,EARSNOSE,"EARS, NOSE, AND THROAT",NORMAL,NORMAL,2.0,C1D1,TREATMENT,2024-02-19,1
VISION-NSCLC,PE,VISION-NSCLC-SITE002-0116,14,EYES,EYES,NORMAL,NORMAL,2.0,C1D1,TREATMENT,2024-02-19,1
VISION-NSCLC,PE,VISION-NSCLC-SITE002-0116,15,GENERALA,GENERAL APPEARANCE,NORMAL,NORMAL,2.0,C1D1,TREATMENT,2024-02-19,1
VISION-NSCLC,PE,VISION-NSCLC-SITE002-0116,16,HEADANDN,HEAD AND NECK,NORMAL,NORMAL,2.0,C1D1,TREATMENT,2024-02-19,1
VISION-NSCLC,PE,VISION-NSCLC-SITE002-0116,17,MUSCULOS,MUSCULOSKELETAL,JOINT TENDERNESS,JOINT TENDERNESS,2.0,C1D1,TREATMENT,2024-02-19,1
VISION-NSCLC,PE,VISION-NSCLC-SITE002-0116,18,NEUROLOG,NEUROLOGICAL,NORMAL,NORMAL,2.0,C1D1,TREATMENT,2024-02-19,1
VISION-NSCLC,PE,VISION-NSCLC-SITE002-0116,19,RESPIRAT,RESPIRATORY,NORMAL,NORMAL,2.0,C1D1,TREATMENT,2024-02-19,1
VISION-NSCLC,PE,VISION-NSCLC-SITE002-0116,20,SKIN,SKIN,NORMAL,NORMAL,2.0,C1D1,TREATMENT,2024-02-19,1
VISION-NSCLC,PE,VISION-NSCLC-SITE002-0119,1,ABDOMEN,ABDOMEN,NORMAL,NORMAL,1.0,SCREENING,SCREENING,2024-03-03,-15
VISION-NSCLC,PE,VISION-NSCLC-SITE002-0119,2,CARDIOVA,CARDIOVASCULAR,NORMAL,NORMAL,1.0,SCREENING,SCREENING,2024-03-03,-15
VISION-NSCLC,PE,VISION-NSCLC-SITE002-0119,3,EARSNOSE,"EARS, NOSE, AND THROAT",NORMAL,NORMAL,1.0,SCREENING,SCREENING,2024-03-03,-15
VISION-NSCLC,PE,VISION-NSCLC-SITE002-0119,4,EYES,EYES,NORMAL,NORMAL,1.0,SCREENING,SCREENING,2024-03-03,-15
VISION-NSCLC,PE,VISION-NSCLC-SITE002-0119,5,GENERALA,GENERAL APPEARANCE,NORMAL,NORMAL,1.0,SCREENING,SCREENING,2024-03-03,-15
VISION-NSCLC,PE,VISION-NSCLC-SITE002-0119,6,HEADANDN,HEAD AND NECK,NORMAL,NORMAL,1.0,SCREENING,SCREENING,2024-03-03,-15
VISION-NSCLC,PE,VISION-NSCLC-SITE002-0119,7,MUSCULOS,MUSCULOSKELETAL,NORMAL,NORMAL,1.0,SCREENING,SCREENING,2024-03-03,-15
VISION-NSCLC,PE,VISION-NSCLC-SITE002-0119,8,NEUROLOG,NEUROLOGICAL,NORMAL,NORMAL,1.0,SCREENING,SCREENING,2024-03-03,-15
VISION-NSCLC,PE,VISION-NSCLC-SITE002-0119,9,RESPIRAT,RESPIRATORY,NORMAL,NORMAL,1.0,SCREENING,SCREENING,2024-03-03,-15
VISION-NSCLC,PE,VISION-NSCLC-SITE002-0119,10,SKIN,SKIN,NORMAL,NORMAL,1.0,SCREENING,SCREENING,2024-03-03,-15
VISION-NSCLC,PE,VISION-NSCLC-SITE002-0119,11,ABDOMEN,ABDOMEN,NORMAL,NORMAL,2.0,C1D1,TREATMENT,2024-03-18,1
VISION-NSCLC,PE,VISION-NSCLC-SITE002-0119,12,CARDIOVA,CARDIOVASCULAR,NORMAL,NORMAL,2.0,C1D1,TREATMENT,2024-03-18,1
VISION-NSCLC,PE,VISION-NSCLC-SITE002-0119,13,EARSNOSE,"EARS, NOSE, AND THROAT",NORMAL,NORMAL,2.0,C1D1,TREATMENT,2024-03-18,1
VISION-NSCLC,PE,VISION-NSCLC-SITE002-0119,14,EYES,EYES,NORMAL,NORMAL,2.0,C1D1,TREATMENT,2024-03-18,1
VISION-NSCLC,PE,VISION-NSCLC-SITE002-0119,15,GENERALA,GENERAL APPEARANCE,NORMAL,NORMAL,2.0,C1D1,TREATMENT,2024-03-18,1
VISION-NSCLC,PE,VISION-NSCLC-SITE002-0119,16,HEADANDN,HEAD AND NECK,NORMAL,NORMAL,2.0,C1D1,TREATMENT,2024-03-18,1
VISION-NSCLC,PE,VISION-NSCLC-SITE002-0119,17,MUSCULOS,MUSCULOSKELETAL,NORMAL,NORMAL,2.0,C1D1,TREATMENT,2024-03-18,1
VISION-NSCLC,PE,VISION-NSCLC-SITE002-0119,18,NEUROLOG,NEUROLOGICAL,NORMAL,NORMAL,2.0,C1D1,TREATMENT,2024-03-18,1
VISION-NSCLC,PE,VISION-NSCLC-SITE002-0119,19,RESPIRAT,RESPIRATORY,NORMAL,NORMAL,2.0,C1D1,TREATMENT,2024-03-18,1
VISION-NSCLC,PE,VISION-NSCLC-SITE002-0119,20,SKIN,SKIN,NORMAL,NORMAL,2.0,C1D1,TREATMENT,2024-03-18,1
VISION-NSCLC,PE,VISION-NSCLC-SITE002-0122,1,ABDOMEN,ABDOMEN,NORMAL,NORMAL,1.0,SCREENING,SCREENING,2024-02-24,-18
VISION-NSCLC,PE,VISION-NSCLC-SITE002-0122,2,CARDIOVA,CARDIOVASCULAR,NORMAL,NORMAL,1.0,SCREENING,SCREENING,2024-02-24,-18
VISION-NSCLC,PE,VISION-NSCLC-SITE002-0122,3,EARSNOSE,"EARS, NOSE, AND THROAT",NORMAL,NORMAL,1.0,SCREENING,SCREENING,2024-02-24,-18
VISION-NSCLC,PE,VISION-NSCLC-SITE002-0122,4,EYES,EYES,NORMAL,NORMAL,1.0,SCREENING,SCREENING,2024-02-24,-18
VISION-NSCLC,PE,VISION-NSCLC-SITE002-0122,5,GENERALA,GENERAL APPEARANCE,NORMAL,NORMAL,1.0,SCREENING,SCREENING,2024-02-24,-18
VISION-NSCLC,PE,VISION-NSCLC-SITE002-0122,6,HEADANDN,HEAD AND NECK,NORMAL,NORMAL,1.0,SCREENING,SCREENING,2024-02-24,-18
VISION-NSCLC,PE,VISION-NSCLC-SITE002-0122,7,MUSCULOS,MUSCULOSKELETAL,NORMAL,NORMAL,1.0,SCREENING,SCREENING,2024-02-24,-18
VISION-NSCLC,PE,VISION-NSCLC-SITE002-0122,8,NEUROLOG,NEUROLOGICAL,NORMAL,NORMAL,1.0,SCREENING,SCREENING,2024-02-24,-18
VISION-NSCLC,PE,VISION-NSCLC-SITE002-0122,9,RESPIRAT,RESPIRATORY,NORMAL,NORMAL,1.0,SCREENING,SCREENING,2024-02-24,-18
VISION-NSCLC,PE,VISION-NSCLC-SITE002-0122,10,SKIN,SKIN,NORMAL,NORMAL,1.0,SCREENING,SCREENING,2024-02-24,-18
VISION-NSCLC,PE,VISION-NSCLC-SITE002-0122,11,ABDOMEN,ABDOMEN,NORMAL,NORMAL,2.0,C1D1,TREATMENT,2024-03-13,1
VISION-NSCLC,PE,VISION-NSCLC-SITE002-0122,12,CARDIOVA,CARDIOVASCULAR,NORMAL,NORMAL,2.0,C1D1,TREATMENT,2024-03-13,1
VISION-NSCLC,PE,VISION-NSCLC-SITE002-0122,13,EARSNOSE,"EARS, NOSE, AND THROAT",NORMAL,NORMAL,2.0,C1D1,TREATMENT,2024-03-13,1
VISION-NSCLC,PE,VISION-NSCLC-SITE002-0122,14,EYES,EYES,ICTERUS,ICTERUS,2.0,C1D1,TREATMENT,2024-03-13,1
VISION-NSCLC,PE,VISION-NSCLC-SITE002-0122,15,GENERALA,GENERAL APPEARANCE,NORMAL,NORMAL,2.0,C1D1,TREATMENT,2024-03-13,1
VISION-NSCLC,PE,VISION-NSCLC-SITE002-0122,16,HEADANDN,HEAD AND NECK,NORMAL,NORMAL,2.0,C1D1,TREATMENT,2024-03-13,1
VISION-NSCLC,PE,VISION-NSCLC-SITE002-0122,17,MUSCULOS,MUSCULOSKELETAL,NORMAL,NORMAL,2.0,C1D1,TREATMENT,2024-03-13,1
VISION-NSCLC,PE,VISION-NSCLC-SITE002-0122,18,NEUROLOG,NEUROLOGICAL,NORMAL,NORMAL,2.0,C1D1,TREATMENT,2024-03-13,1
VISION-NSCLC,PE,VISION-NSCLC-SITE002-0122,19,RESPIRAT,RESPIRATORY,NORMAL,NORMAL,2.0,C1D1,TREATMENT,2024-03-13,1
VISION-NSCLC,PE,VISION-NSCLC-SITE002-0122,20,SKIN,SKIN,NORMAL,NORMAL,2.0,C1D1,TREATMENT,2024-03-13,1
VISION-NSCLC,PE,VISION-NSCLC-SITE002-0125,1,ABDOMEN,ABDOMEN,NORMAL,NORMAL,1.0,SCREENING,SCREENING,2024-03-09,-21
VISION-NSCLC,PE,VISION-NSCLC-SITE002-0125,2,CARDIOVA,CARDIOVASCULAR,NORMAL,NORMAL,1.0,SCREENING,SCREENING,2024-03-09,-21
VISION-NSCLC,PE,VISION-NSCLC-SITE002-0125,3,EARSNOSE,"EARS, NOSE, AND THROAT",NORMAL,NORMAL,1.0,SCREENING,SCREENING,2024-03-09,-21
VISION-NSCLC,PE,VISION-NSCLC-SITE002-0125,4,EYES,EYES,NORMAL,NORMAL,1.0,SCREENING,SCREENING,2024-03-09,-21
VISION-NSCLC,PE,VISION-NSCLC-SITE002-0125,5,GENERALA,GENERAL APPEARANCE,NORMAL,NORMAL,1.0,SCREENING,SCREENING,2024-03-09,-21
VISION-NSCLC,PE,VISION-NSCLC-SITE002-0125,6,HEADANDN,HEAD AND NECK,NORMAL,NORMAL,1.0,SCREENING,SCREENING,2024-03-09,-21
VISION-NSCLC,PE,VISION-NSCLC-SITE002-0125,7,MUSCULOS,MUSCULOSKELETAL,NORMAL,NORMAL,1.0,SCREENING,SCREENING,2024-03-09,-21
