{"subject_id":"VISION-NSCLC-SITE003-0282","study_id":"VISION-NSCLC","generated_at":"2026-06-09T04:14:38.770719+00:00","sdtmig_version":"3.4","flags":{"has_serious_ae":false,"has_fatal_ae":false,"has_protocol_deviation":true,"n_protocol_deviations":6,"n_adverse_events":8,"n_concomitant_meds":4,"max_ae_severity":"MODERATE","screen_failure":false,"discontinued_early":false,"discontinuation_reason":null,"death":false,"exposure_days":133},"timeline":[{"dtc":"2024-02-17","dy":"-36","event":"VISIT: SCREENING","domain":"SV","category":"visit"},{"dtc":"2024-03-16","dy":"-8","event":"INFORMED CONSENT OBTAINED","domain":"DS","category":"milestone"},{"dtc":"2024-03-24","dy":"1","event":"RANDOMIZED","domain":"DS","category":"milestone"},{"dtc":"2024-03-24","dy":"1","event":"FIRST DOSE: TEPOTINIB","domain":"EX","category":"exposure"},{"dtc":"2024-03-24","dy":"1","event":"VISIT: C1D1","domain":"SV","category":"visit"},{"dtc":"2024-03-30","dy":"7","event":"AE: Diarrhoea (MODERATE)","domain":"AE","category":"adverse_event"},{"dtc":"2024-04-05","dy":"13","event":"DEVIATION: VISIT OCCURRED OUTSIDE VISIT WINDOW","domain":"DV","category":"deviation"},{"dtc":"2024-04-05","dy":"13","event":"VISIT: C1D15","domain":"SV","category":"visit"},{"dtc":"2024-04-18","dy":"26","event":"DEVIATION: VISIT OCCURRED OUTSIDE VISIT WINDOW","domain":"DV","category":"deviation"},{"dtc":"2024-04-18","dy":"26","event":"VISIT: C2D1","domain":"SV","category":"visit"},{"dtc":"2024-04-29","dy":"37","event":"AE: Nausea (MODERATE)","domain":"AE","category":"adverse_event"},{"dtc":"2024-04-29","dy":"37","event":"CM START: ONDANSETRON","domain":"CM","category":"concomitant_med"},{"dtc":"2024-05-08","dy":"46","event":"AE: Hypoalbuminaemia (MILD)","domain":"AE","category":"adverse_event"},{"dtc":"2024-05-08","dy":"46","event":"CM START: PARACETAMOL","domain":"CM","category":"concomitant_med"},{"dtc":"2024-05-11","dy":"49","event":"DEVIATION: MISSED DOSE","domain":"DV","category":"deviation"},{"dtc":"2024-05-12","dy":"50","event":"DEVIATION: MISSED DOSE","domain":"DV","category":"deviation"},{"dtc":"2024-05-22","dy":"60","event":"VISIT: C3D1","domain":"SV","category":"visit"},{"dtc":"2024-06-19","dy":"88","event":"VISIT: C4D1","domain":"SV","category":"visit"},{"dtc":"2024-07-11","dy":"110","event":"AE: Pleural effusion (MODERATE)","domain":"AE","category":"adverse_event"},{"dtc":"2024-07-29","dy":"128","event":"AE: Aspartate aminotransferase increased (MILD)","domain":"AE","category":"adverse_event"},{"dtc":"2024-08-04","dy":"134","event":"LAST DOSE: TEPOTINIB","domain":"EX","category":"exposure"},{"dtc":"2024-08-06","dy":"136","event":"AE: Oedema peripheral (MODERATE)","domain":"AE","category":"adverse_event"},{"dtc":"2024-08-06","dy":"136","event":"CM START: FUROSEMIDE","domain":"CM","category":"concomitant_med"},{"dtc":"2024-08-13","dy":"143","event":"AE: Blood creatinine increased (MILD)","domain":"AE","category":"adverse_event"},{"dtc":"2024-08-17","dy":"147","event":"VISIT: C6D1","domain":"SV","category":"visit"},{"dtc":"2024-09-07","dy":"168","event":"AE: Diarrhoea (MODERATE)","domain":"AE","category":"adverse_event"},{"dtc":"2024-09-07","dy":"168","event":"CM START: LOPERAMIDE","domain":"CM","category":"concomitant_med"},{"dtc":"2024-09-08","dy":"169","event":"DEVIATION: VISIT OCCURRED OUTSIDE VISIT WINDOW","domain":"DV","category":"deviation"},{"dtc":"2024-09-08","dy":"169","event":"VISIT: EOT","domain":"SV","category":"visit"},{"dtc":"2024-10-04","dy":"195","event":"DEVIATION: VISIT OCCURRED OUTSIDE VISIT WINDOW","domain":"DV","category":"deviation"},{"dtc":"2024-10-04","dy":"195","event":"VISIT: FOLLOW-UP","domain":"SV","category":"visit"},{"dtc":"2024-11-04","dy":"226","event":"COMPLETED","domain":"DS","category":"milestone"}],"section_1_demographics":{"usubjid":"VISION-NSCLC-SITE003-0282","subjid":"0282","siteid":"SITE003","age":"44","ageu":"YEARS","sex":"M","race":"OTHER","ethnicity":"NOT HISPANIC OR LATINO","country":"USA","arm":"Tepotinib 500mg QD","armcd":"TEP500","actarm":"Tepotinib 500mg QD","actarmcd":"TEP500","randomization_date":null,"informed_consent_date":"2024-03-16","reference_start_date":"2024-03-24","reference_end_date":"2024-11-04","screen_failure":false,"death_flag":null,"death_date":null,"subject_characteristics":[{"testcd":"ALCUSE","test":"Alcohol Use","orres":"NON-DRINKER","stresc":"NON-DRINKER","visit":null,"dtc":"2024-03-16"},{"testcd":"BMI","test":"Body Mass Index","orres":"22.5","stresc":"22.5","visit":null,"dtc":"2024-03-16"},{"testcd":"DURDIS","test":"Duration of Disease","orres":"60 months","stresc":"60","visit":null,"dtc":"2024-03-16"},{"testcd":"TOBPKYR","test":"Tobacco Pack-Years","orres":"6","stresc":"6","visit":null,"dtc":"2024-03-16"},{"testcd":"TOBUSE","test":"Tobacco Use","orres":"FORMER SMOKER","stresc":"FORMER SMOKER","visit":null,"dtc":"2024-03-16"}]},"section_2_medical_history":{"items":[{"seq":"1","term":"DIABETES MELLITUS TYPE 2","decod":"DIABETES MELLITUS TYPE 2","cat":"ENDOCRINE","scat":null,"presp":null,"occur":null,"status":null,"onset_dtc":"2019-03-18","end_dtc":"2022-07-28","visit":null}]},"section_3_inclusion_exclusion":{"criteria":[]},"section_4_trial_participation":{"visits":[{"visitnum":"1.0","visit":"SCREENING","start_dtc":"2024-02-17","end_dtc":"2024-02-17","updes":null},{"visitnum":"2.0","visit":"C1D1","start_dtc":"2024-03-24","end_dtc":"2024-03-24","updes":null},{"visitnum":"3.0","visit":"C1D15","start_dtc":"2024-04-05","end_dtc":"2024-04-05","updes":null},{"visitnum":"4.0","visit":"C2D1","start_dtc":"2024-04-18","end_dtc":"2024-04-18","updes":null},{"visitnum":"5.0","visit":"C3D1","start_dtc":"2024-05-22","end_dtc":"2024-05-22","updes":null},{"visitnum":"6.0","visit":"C4D1","start_dtc":"2024-06-19","end_dtc":"2024-06-19","updes":null},{"visitnum":"7.0","visit":"C6D1","start_dtc":"2024-08-17","end_dtc":"2024-08-17","updes":null},{"visitnum":"8.0","visit":"EOT","start_dtc":"2024-09-08","end_dtc":"2024-09-08","updes":null},{"visitnum":"9.0","visit":"FOLLOW-UP","start_dtc":"2024-10-04","end_dtc":"2024-10-04","updes":null}],"epochs":[{"seq":"1","etcd":"SCRN","element":"Screening","start_dtc":"2024-02-25","end_dtc":"2024-03-24","updes":null},{"seq":"2","etcd":"TRT","element":"Treatment","start_dtc":"2024-03-24","end_dtc":"2024-09-08","updes":null},{"seq":"3","etcd":"FU","element":"Follow-up","start_dtc":"2024-09-08","end_dtc":"2024-10-07","updes":null}],"visit_count":9},"section_5_concomitant_medications":{"medications":[{"seq":"1","trt":"ONDANSETRON","decod":"ONDANSETRON","cat":"CONCOMITANT","dose":"4","doseu":null,"dosef":"PRN","route":"ORAL","indication":"NAUSEA","start_dtc":"2024-04-29","end_dtc":"2024-05-20","ongoing":null,"visit":null},{"seq":"2","trt":"PARACETAMOL","decod":"PARACETAMOL","cat":"CONCOMITANT","dose":"500","doseu":null,"dosef":"PRN","route":"ORAL","indication":"HYPOALBUMINAEMIA","start_dtc":"2024-05-08","end_dtc":"2024-06-06","ongoing":null,"visit":null},{"seq":"3","trt":"FUROSEMIDE","decod":"FUROSEMIDE","cat":"CONCOMITANT","dose":"20.0","doseu":null,"dosef":"QD","route":"ORAL","indication":"OEDEMA PERIPHERAL","start_dtc":"2024-08-06","end_dtc":"2024-08-17","ongoing":null,"visit":null},{"seq":"4","trt":"LOPERAMIDE","decod":"LOPERAMIDE","cat":"CONCOMITANT","dose":"2","doseu":null,"dosef":"PRN","route":"ORAL","indication":"DIARRHOEA","start_dtc":"2024-09-07","end_dtc":"2024-09-13","ongoing":null,"visit":null}]},"section_6_exposure":{"exposure_as_administered":[{"seq":"1","trt":"TEPOTINIB","dose":"500.0","doseu":null,"dosef":"QD","route":"ORAL","lot":null,"start_dtc":"2024-03-24","end_dtc":"2024-03-29","start_dy":"1","end_dy":"6","epoch":"TREATMENT","visit":null},{"seq":"2","trt":"TEPOTINIB","dose":"250.0","doseu":null,"dosef":"QD","route":"ORAL","lot":null,"start_dtc":"2024-03-30","end_dtc":"2024-04-28","start_dy":"7","end_dy":"36","epoch":"TREATMENT","visit":null},{"seq":"3","trt":"TEPOTINIB","dose":"250.0","doseu":null,"dosef":"QD","route":"ORAL","lot":null,"start_dtc":"2024-04-29","end_dtc":"2024-08-04","start_dy":"37","end_dy":"134","epoch":"TREATMENT","visit":null}],"exposure_as_collected":[{"seq":"1","trt":"TEPOTINIB","dose":"500.0","doseu":null,"dosef":"QD","route":"ORAL","start_dtc":"2024-03-24","end_dtc":"2024-03-24","visit":"C1D1"},{"seq":"2","trt":"TEPOTINIB","dose":"500.0","doseu":null,"dosef":"QD","route":"ORAL","start_dtc":"2024-03-25","end_dtc":"2024-03-25","visit":"C1D1"},{"seq":"3","trt":"TEPOTINIB","dose":"500.0","doseu":null,"dosef":"QD","route":"ORAL","start_dtc":"2024-03-26","end_dtc":"2024-03-26","visit":"C1D1"},{"seq":"4","trt":"TEPOTINIB","dose":"500.0","doseu":null,"dosef":"QD","route":"ORAL","start_dtc":"2024-03-27","end_dtc":"2024-03-27","visit":"C1D1"},{"seq":"5","trt":"TEPOTINIB","dose":"500.0","doseu":null,"dosef":"QD","route":"ORAL","start_dtc":"2024-03-28","end_dtc":"2024-03-28","visit":null},{"seq":"6","trt":"TEPOTINIB","dose":"500.0","doseu":null,"dosef":"QD","route":"ORAL","start_dtc":"2024-03-29","end_dtc":"2024-03-29","visit":null},{"seq":"7","trt":"TEPOTINIB","dose":"250.0","doseu":null,"dosef":"QD","route":"ORAL","start_dtc":"2024-03-30","end_dtc":"2024-03-30","visit":null},{"seq":"8","trt":"TEPOTINIB","dose":"250.0","doseu":null,"dosef":"QD","route":"ORAL","start_dtc":"2024-03-31","end_dtc":"2024-03-31","visit":null},{"seq":"9","trt":"TEPOTINIB","dose":"250.0","doseu":null,"dosef":"QD","route":"ORAL","start_dtc":"2024-04-01","end_dtc":"2024-04-01","visit":null},{"seq":"10","trt":"TEPOTINIB","dose":"250.0","doseu":null,"dosef":"QD","route":"ORAL","start_dtc":"2024-04-02","end_dtc":"2024-04-02","visit":null},{"seq":"11","trt":"TEPOTINIB","dose":"250.0","doseu":null,"dosef":"QD","route":"ORAL","start_dtc":"2024-04-03","end_dtc":"2024-04-03","visit":null},{"seq":"12","trt":"TEPOTINIB","dose":"250.0","doseu":null,"dosef":"QD","route":"ORAL","start_dtc":"2024-04-04","end_dtc":"2024-04-04","visit":"C1D15"},{"seq":"13","trt":"TEPOTINIB","dose":"250.0","doseu":null,"dosef":"QD","route":"ORAL","start_dtc":"2024-04-05","end_dtc":"2024-04-05","visit":"C1D15"},{"seq":"14","trt":"TEPOTINIB","dose":"250.0","doseu":null,"dosef":"QD","route":"ORAL","start_dtc":"2024-04-06","end_dtc":"2024-04-06","visit":"C1D15"},{"seq":"15","trt":"TEPOTINIB","dose":"250.0","doseu":null,"dosef":"QD","route":"ORAL","start_dtc":"2024-04-07","end_dtc":"2024-04-07","visit":"C1D15"},{"seq":"16","trt":"TEPOTINIB","dose":"250.0","doseu":null,"dosef":"QD","route":"ORAL","start_dtc":"2024-04-08","end_dtc":"2024-04-08","visit":"C1D15"},{"seq":"17","trt":"TEPOTINIB","dose":"250.0","doseu":null,"dosef":"QD","route":"ORAL","start_dtc":"2024-04-09","end_dtc":"2024-04-09","visit":"C1D15"},{"seq":"18","trt":"TEPOTINIB","dose":"250.0","doseu":null,"dosef":"QD","route":"ORAL","start_dtc":"2024-04-10","end_dtc":"2024-04-10","visit":"C1D15"},{"seq":"19","trt":"TEPOTINIB","dose":"250.0","doseu":null,"dosef":"QD","route":"ORAL","start_dtc":"2024-04-11","end_dtc":"2024-04-11","visit":null},{"seq":"20","trt":"TEPOTINIB","dose":"250.0","doseu":null,"dosef":"QD","route":"ORAL","start_dtc":"2024-04-12","end_dtc":"2024-04-12","visit":null},{"seq":"21","trt":"TEPOTINIB","dose":"250.0","doseu":null,"dosef":"QD","route":"ORAL","start_dtc":"2024-04-13","end_dtc":"2024-04-13","visit":null},{"seq":"22","trt":"TEPOTINIB","dose":"250.0","doseu":null,"dosef":"QD","route":"ORAL","start_dtc":"2024-04-14","end_dtc":"2024-04-14","visit":null},{"seq":"23","trt":"TEPOTINIB","dose":"250.0","doseu":null,"dosef":"QD","route":"ORAL","start_dtc":"2024-04-15","end_dtc":"2024-04-15","visit":null},{"seq":"24","trt":"TEPOTINIB","dose":"250.0","doseu":null,"dosef":"QD","route":"ORAL","start_dtc":"2024-04-16","end_dtc":"2024-04-16","visit":null},{"seq":"25","trt":"TEPOTINIB","dose":"250.0","doseu":null,"dosef":"QD","route":"ORAL","start_dtc":"2024-04-17","end_dtc":"2024-04-17","visit":null},{"seq":"26","trt":"TEPOTINIB","dose":"250.0","doseu":null,"dosef":"QD","route":"ORAL","start_dtc":"2024-04-18","end_dtc":"2024-04-18","visit":"C2D1"},{"seq":"27","trt":"TEPOTINIB","dose":"250.0","doseu":null,"dosef":"QD","route":"ORAL","start_dtc":"2024-04-19","end_dtc":"2024-04-19","visit":"C2D1"},{"seq":"28","trt":"TEPOTINIB","dose":"250.0","doseu":null,"dosef":"QD","route":"ORAL","start_dtc":"2024-04-20","end_dtc":"2024-04-20","visit":"C2D1"},{"seq":"29","trt":"TEPOTINIB","dose":"250.0","doseu":null,"dosef":"QD","route":"ORAL","start_dtc":"2024-04-21","end_dtc":"2024-04-21","visit":"C2D1"},{"seq":"30","trt":"TEPOTINIB","dose":"250.0","doseu":null,"dosef":"QD","route":"ORAL","start_dtc":"2024-04-22","end_dtc":"2024-04-22","visit":"C2D1"},{"seq":"31","trt":"TEPOTINIB","dose":"250.0","doseu":null,"dosef":"QD","route":"ORAL","start_dtc":"2024-04-23","end_dtc":"2024-04-23","visit":"C2D1"},{"seq":"32","trt":"TEPOTINIB","dose":"250.0","doseu":null,"dosef":"QD","route":"ORAL","start_dtc":"2024-04-24","end_dtc":"2024-04-24","visit":"C2D1"},{"seq":"33","trt":"TEPOTINIB","dose":"250.0","doseu":null,"dosef":"QD","route":"ORAL","start_dtc":"2024-04-25","end_dtc":"2024-04-25","visit":null},{"seq":"34","trt":"TEPOTINIB","dose":"250.0","doseu":null,"dosef":"QD","route":"ORAL","start_dtc":"2024-04-26","end_dtc":"2024-04-26","visit":null},{"seq":"35","trt":"TEPOTINIB","dose":"250.0","doseu":null,"dosef":"QD","route":"ORAL","start_dtc":"2024-04-27","end_dtc":"2024-04-27","visit":null},{"seq":"36","trt":"TEPOTINIB","dose":"250.0","doseu":null,"dosef":"QD","route":"ORAL","start_dtc":"2024-04-28","end_dtc":"2024-04-28","visit":null},{"seq":"37","trt":"TEPOTINIB","dose":"250.0","doseu":null,"dosef":"QD","route":"ORAL","start_dtc":"2024-04-29","end_dtc":"2024-04-29","visit":null},{"seq":"38","trt":"TEPOTINIB","dose":"250.0","doseu":null,"dosef":"QD","route":"ORAL","start_dtc":"2024-04-30","end_dtc":"2024-04-30","visit":null},{"seq":"39","trt":"TEPOTINIB","dose":"250.0","doseu":null,"dosef":"QD","route":"ORAL","start_dtc":"2024-05-01","end_dtc":"2024-05-01","visit":null},{"seq":"40","trt":"TEPOTINIB","dose":"250.0","doseu":null,"dosef":"QD","route":"ORAL","start_dtc":"2024-05-02","end_dtc":"2024-05-02","visit":null},{"seq":"41","trt":"TEPOTINIB","dose":"250.0","doseu":null,"dosef":"QD","route":"ORAL","start_dtc":"2024-05-03","end_dtc":"2024-05-03","visit":null},{"seq":"42","trt":"TEPOTINIB","dose":"250.0","doseu":null,"dosef":"QD","route":"ORAL","start_dtc":"2024-05-04","end_dtc":"2024-05-04","visit":null},{"seq":"43","trt":"TEPOTINIB","dose":"250.0","doseu":null,"dosef":"QD","route":"ORAL","start_dtc":"2024-05-05","end_dtc":"2024-05-05","visit":null},{"seq":"44","trt":"TEPOTINIB","dose":"250.0","doseu":null,"dosef":"QD","route":"ORAL","start_dtc":"2024-05-06","end_dtc":"2024-05-06","visit":null},{"seq":"45","trt":"TEPOTINIB","dose":"250.0","doseu":null,"dosef":"QD","route":"ORAL","start_dtc":"2024-05-07","end_dtc":"2024-05-07","visit":null},{"seq":"46","trt":"TEPOTINIB","dose":"250.0","doseu":null,"dosef":"QD","route":"ORAL","start_dtc":"2024-05-08","end_dtc":"2024-05-08","visit":null},{"seq":"47","trt":"TEPOTINIB","dose":"250.0","doseu":null,"dosef":"QD","route":"ORAL","start_dtc":"2024-05-09","end_dtc":"2024-05-09","visit":null},{"seq":"48","trt":"TEPOTINIB","dose":"250.0","doseu":null,"dosef":"QD","route":"ORAL","start_dtc":"2024-05-10","end_dtc":"2024-05-10","visit":null},{"seq":"49","trt":"TEPOTINIB","dose":null,"doseu":null,"dosef":"QD","route":"ORAL","start_dtc":"2024-05-11","end_dtc":"2024-05-11","visit":null},{"seq":"50","trt":"TEPOTINIB","dose":null,"doseu":null,"dosef":"QD","route":"ORAL","start_dtc":"2024-05-12","end_dtc":"2024-05-12","visit":null},{"seq":"51","trt":"TEPOTINIB","dose":"250.0","doseu":null,"dosef":"QD","route":"ORAL","start_dtc":"2024-05-13","end_dtc":"2024-05-13","visit":null},{"seq":"52","trt":"TEPOTINIB","dose":"250.0","doseu":null,"dosef":"QD","route":"ORAL","start_dtc":"2024-05-14","end_dtc":"2024-05-14","visit":null},{"seq":"53","trt":"TEPOTINIB","dose":"250.0","doseu":null,"dosef":"QD","route":"ORAL","start_dtc":"2024-05-15","end_dtc":"2024-05-15","visit":null},{"seq":"54","trt":"TEPOTINIB","dose":"250.0","doseu":null,"dosef":"QD","route":"ORAL","start_dtc":"2024-05-16","end_dtc":"2024-05-16","visit":"C3D1"},{"seq":"55","trt":"TEPOTINIB","dose":"250.0","doseu":null,"dosef":"QD","route":"ORAL","start_dtc":"2024-05-17","end_dtc":"2024-05-17","visit":"C3D1"},{"seq":"56","trt":"TEPOTINIB","dose":"250.0","doseu":null,"dosef":"QD","route":"ORAL","start_dtc":"2024-05-18","end_dtc":"2024-05-18","visit":"C3D1"},{"seq":"57","trt":"TEPOTINIB","dose":"250.0","doseu":null,"dosef":"QD","route":"ORAL","start_dtc":"2024-05-19","end_dtc":"2024-05-19","visit":"C3D1"},{"seq":"58","trt":"TEPOTINIB","dose":"250.0","doseu":null,"dosef":"QD","route":"ORAL","start_dtc":"2024-05-20","end_dtc":"2024-05-20","visit":"C3D1"},{"seq":"59","trt":"TEPOTINIB","dose":"250.0","doseu":null,"dosef":"QD","route":"ORAL","start_dtc":"2024-05-21","end_dtc":"2024-05-21","visit":"C3D1"},{"seq":"60","trt":"TEPOTINIB","dose":"250.0","doseu":null,"dosef":"QD","route":"ORAL","start_dtc":"2024-05-22","end_dtc":"2024-05-22","visit":"C3D1"},{"seq":"61","trt":"TEPOTINIB","dose":"250.0","doseu":null,"dosef":"QD","route":"ORAL","start_dtc":"2024-05-23","end_dtc":"2024-05-23","visit":null},{"seq":"62","trt":"TEPOTINIB","dose":"250.0","doseu":null,"dosef":"QD","route":"ORAL","start_dtc":"2024-05-24","end_dtc":"2024-05-24","visit":null},{"seq":"63","trt":"TEPOTINIB","dose":"250.0","doseu":null,"dosef":"QD","route":"ORAL","start_dtc":"2024-05-25","end_dtc":"2024-05-25","visit":null},{"seq":"64","trt":"TEPOTINIB","dose":"250.0","doseu":null,"dosef":"QD","route":"ORAL","start_dtc":"2024-05-26","end_dtc":"2024-05-26","visit":null},{"seq":"65","trt":"TEPOTINIB","dose":"250.0","doseu":null,"dosef":"QD","route":"ORAL","start_dtc":"2024-05-27","end_dtc":"2024-05-27","visit":null},{"seq":"66","trt":"TEPOTINIB","dose":"250.0","doseu":null,"dosef":"QD","route":"ORAL","start_dtc":"2024-05-28","end_dtc":"2024-05-28","visit":null},{"seq":"67","trt":"TEPOTINIB","dose":"250.0","doseu":null,"dosef":"QD","route":"ORAL","start_dtc":"2024-05-29","end_dtc":"2024-05-29","visit":null},{"seq":"68","trt":"TEPOTINIB","dose":"250.0","doseu":null,"dosef":"QD","route":"ORAL","start_dtc":"2024-05-30","end_dtc":"2024-05-30","visit":null},{"seq":"69","trt":"TEPOTINIB","dose":"250.0","doseu":null,"dosef":"QD","route":"ORAL","start_dtc":"2024-05-31","end_dtc":"2024-05-31","visit":null},{"seq":"70","trt":"TEPOTINIB","dose":"250.0","doseu":null,"dosef":"QD","route":"ORAL","start_dtc":"2024-06-01","end_dtc":"2024-06-01","visit":null},{"seq":"71","trt":"TEPOTINIB","dose":"250.0","doseu":null,"dosef":"QD","route":"ORAL","start_dtc":"2024-06-02","end_dtc":"2024-06-02","visit":null},{"seq":"72","trt":"TEPOTINIB","dose":"250.0","doseu":null,"dosef":"QD","route":"ORAL","start_dtc":"2024-06-03","end_dtc":"2024-06-03","visit":null},{"seq":"73","trt":"TEPOTINIB","dose":"250.0","doseu":null,"dosef":"QD","route":"ORAL","start_dtc":"2024-06-04","end_dtc":"2024-06-04","visit":null},{"seq":"74","trt":"TEPOTINIB","dose":"250.0","doseu":null,"dosef":"QD","route":"ORAL","start_dtc":"2024-06-05","end_dtc":"2024-06-05","visit":null},{"seq":"75","trt":"TEPOTINIB","dose":"250.0","doseu":null,"dosef":"QD","route":"ORAL","start_dtc":"2024-06-06","end_dtc":"2024-06-06","visit":null},{"seq":"76","trt":"TEPOTINIB","dose":"250.0","doseu":null,"dosef":"QD","route":"ORAL","start_dtc":"2024-06-07","end_dtc":"2024-06-07","visit":null},{"seq":"77","trt":"TEPOTINIB","dose":"250.0","doseu":null,"dosef":"QD","route":"ORAL","start_dtc":"2024-06-08","end_dtc":"2024-06-08","visit":null},{"seq":"78","trt":"TEPOTINIB","dose":"250.0","doseu":null,"dosef":"QD","route":"ORAL","start_dtc":"2024-06-09","end_dtc":"2024-06-09","visit":null},{"seq":"79","trt":"TEPOTINIB","dose":"250.0","doseu":null,"dosef":"QD","route":"ORAL","start_dtc":"2024-06-10","end_dtc":"2024-06-10","visit":null},{"seq":"80","trt":"TEPOTINIB","dose":"250.0","doseu":null,"dosef":"QD","route":"ORAL","start_dtc":"2024-06-11","end_dtc":"2024-06-11","visit":null},{"seq":"81","trt":"TEPOTINIB","dose":"250.0","doseu":null,"dosef":"QD","route":"ORAL","start_dtc":"2024-06-12","end_dtc":"2024-06-12","visit":null},{"seq":"82","trt":"TEPOTINIB","dose":"250.0","doseu":null,"dosef":"QD","route":"ORAL","start_dtc":"2024-06-13","end_dtc":"2024-06-13","visit":"C4D1"},{"seq":"83","trt":"TEPOTINIB","dose":"250.0","doseu":null,"dosef":"QD","route":"ORAL","start_dtc":"2024-06-14","end_dtc":"2024-06-14","visit":"C4D1"},{"seq":"84","trt":"TEPOTINIB","dose":"250.0","doseu":null,"dosef":"QD","route":"ORAL","start_dtc":"2024-06-15","end_dtc":"2024-06-15","visit":"C4D1"},{"seq":"85","trt":"TEPOTINIB","dose":"250.0","doseu":null,"dosef":"QD","route":"ORAL","start_dtc":"2024-06-16","end_dtc":"2024-06-16","visit":"C4D1"},{"seq":"86","trt":"TEPOTINIB","dose":"250.0","doseu":null,"dosef":"QD","route":"ORAL","start_dtc":"2024-06-17","end_dtc":"2024-06-17","visit":"C4D1"},{"seq":"87","trt":"TEPOTINIB","dose":"250.0","doseu":null,"dosef":"QD","route":"ORAL","start_dtc":"2024-06-18","end_dtc":"2024-06-18","visit":"C4D1"},{"seq":"88","trt":"TEPOTINIB","dose":"250.0","doseu":null,"dosef":"QD","route":"ORAL","start_dtc":"2024-06-19","end_dtc":"2024-06-19","visit":"C4D1"},{"seq":"89","trt":"TEPOTINIB","dose":"250.0","doseu":null,"dosef":"QD","route":"ORAL","start_dtc":"2024-06-20","end_dtc":"2024-06-20","visit":null},{"seq":"90","trt":"TEPOTINIB","dose":"250.0","doseu":null,"dosef":"QD","route":"ORAL","start_dtc":"2024-06-21","end_dtc":"2024-06-21","visit":null},{"seq":"91","trt":"TEPOTINIB","dose":"250.0","doseu":null,"dosef":"QD","route":"ORAL","start_dtc":"2024-06-22","end_dtc":"2024-06-22","visit":null},{"seq":"92","trt":"TEPOTINIB","dose":"250.0","doseu":null,"dosef":"QD","route":"ORAL","start_dtc":"2024-06-23","end_dtc":"2024-06-23","visit":null},{"seq":"93","trt":"TEPOTINIB","dose":"250.0","doseu":null,"dosef":"QD","route":"ORAL","start_dtc":"2024-06-24","end_dtc":"2024-06-24","visit":null},{"seq":"94","trt":"TEPOTINIB","dose":"250.0","doseu":null,"dosef":"QD","route":"ORAL","start_dtc":"2024-06-25","end_dtc":"2024-06-25","visit":null},{"seq":"95","trt":"TEPOTINIB","dose":"250.0","doseu":null,"dosef":"QD","route":"ORAL","start_dtc":"2024-06-26","end_dtc":"2024-06-26","visit":null},{"seq":"96","trt":"TEPOTINIB","dose":"250.0","doseu":null,"dosef":"QD","route":"ORAL","start_dtc":"2024-06-27","end_dtc":"2024-06-27","visit":null},{"seq":"97","trt":"TEPOTINIB","dose":"250.0","doseu":null,"dosef":"QD","route":"ORAL","start_dtc":"2024-06-28","end_dtc":"2024-06-28","visit":null},{"seq":"98","trt":"TEPOTINIB","dose":"250.0","doseu":null,"dosef":"QD","route":"ORAL","start_dtc":"2024-06-29","end_dtc":"2024-06-29","visit":null},{"seq":"99","trt":"TEPOTINIB","dose":"250.0","doseu":null,"dosef":"QD","route":"ORAL","start_dtc":"2024-06-30","end_dtc":"2024-06-30","visit":null},{"seq":"100","trt":"TEPOTINIB","dose":"250.0","doseu":null,"dosef":"QD","route":"ORAL","start_dtc":"2024-07-01","end_dtc":"2024-07-01","visit":null},{"seq":"101","trt":"TEPOTINIB","dose":"250.0","doseu":null,"dosef":"QD","route":"ORAL","start_dtc":"2024-07-02","end_dtc":"2024-07-02","visit":null},{"seq":"102","trt":"TEPOTINIB","dose":"250.0","doseu":null,"dosef":"QD","route":"ORAL","start_dtc":"2024-07-03","end_dtc":"2024-07-03","visit":null},{"seq":"103","trt":"TEPOTINIB","dose":"250.0","doseu":null,"dosef":"QD","route":"ORAL","start_dtc":"2024-07-04","end_dtc":"2024-07-04","visit":null},{"seq":"104","trt":"TEPOTINIB","dose":"250.0","doseu":null,"dosef":"QD","route":"ORAL","start_dtc":"2024-07-05","end_dtc":"2024-07-05","visit":null},{"seq":"105","trt":"TEPOTINIB","dose":"250.0","doseu":null,"dosef":"QD","route":"ORAL","start_dtc":"2024-07-06","end_dtc":"2024-07-06","visit":null},{"seq":"106","trt":"TEPOTINIB","dose":"250.0","doseu":null,"dosef":"QD","route":"ORAL","start_dtc":"2024-07-07","end_dtc":"2024-07-07","visit":null},{"seq":"107","trt":"TEPOTINIB","dose":"250.0","doseu":null,"dosef":"QD","route":"ORAL","start_dtc":"2024-07-08","end_dtc":"2024-07-08","visit":null},{"seq":"108","trt":"TEPOTINIB","dose":"250.0","doseu":null,"dosef":"QD","route":"ORAL","start_dtc":"2024-07-09","end_dtc":"2024-07-09","visit":null},{"seq":"109","trt":"TEPOTINIB","dose":"250.0","doseu":null,"dosef":"QD","route":"ORAL","start_dtc":"2024-07-10","end_dtc":"2024-07-10","visit":null},{"seq":"110","trt":"TEPOTINIB","dose":"250.0","doseu":null,"dosef":"QD","route":"ORAL","start_dtc":"2024-07-11","end_dtc":"2024-07-11","visit":null},{"seq":"111","trt":"TEPOTINIB","dose":"250.0","doseu":null,"dosef":"QD","route":"ORAL","start_dtc":"2024-07-12","end_dtc":"2024-07-12","visit":null},{"seq":"112","trt":"TEPOTINIB","dose":"250.0","doseu":null,"dosef":"QD","route":"ORAL","start_dtc":"2024-07-13","end_dtc":"2024-07-13","visit":null},{"seq":"113","trt":"TEPOTINIB","dose":"250.0","doseu":null,"dosef":"QD","route":"ORAL","start_dtc":"2024-07-14","end_dtc":"2024-07-14","visit":null},{"seq":"114","trt":"TEPOTINIB","dose":"250.0","doseu":null,"dosef":"QD","route":"ORAL","start_dtc":"2024-07-15","end_dtc":"2024-07-15","visit":null},{"seq":"115","trt":"TEPOTINIB","dose":"250.0","doseu":null,"dosef":"QD","route":"ORAL","start_dtc":"2024-07-16","end_dtc":"2024-07-16","visit":null},{"seq":"116","trt":"TEPOTINIB","dose":"250.0","doseu":null,"dosef":"QD","route":"ORAL","start_dtc":"2024-07-17","end_dtc":"2024-07-17","visit":null},{"seq":"117","trt":"TEPOTINIB","dose":"250.0","doseu":null,"dosef":"QD","route":"ORAL","start_dtc":"2024-07-18","end_dtc":"2024-07-18","visit":null},{"seq":"118","trt":"TEPOTINIB","dose":"250.0","doseu":null,"dosef":"QD","route":"ORAL","start_dtc":"2024-07-19","end_dtc":"2024-07-19","visit":null},{"seq":"119","trt":"TEPOTINIB","dose":"250.0","doseu":null,"dosef":"QD","route":"ORAL","start_dtc":"2024-07-20","end_dtc":"2024-07-20","visit":null},{"seq":"120","trt":"TEPOTINIB","dose":"250.0","doseu":null,"dosef":"QD","route":"ORAL","start_dtc":"2024-07-21","end_dtc":"2024-07-21","visit":null},{"seq":"121","trt":"TEPOTINIB","dose":"250.0","doseu":null,"dosef":"QD","route":"ORAL","start_dtc":"2024-07-22","end_dtc":"2024-07-22","visit":null},{"seq":"122","trt":"TEPOTINIB","dose":"250.0","doseu":null,"dosef":"QD","route":"ORAL","start_dtc":"2024-07-23","end_dtc":"2024-07-23","visit":null},{"seq":"123","trt":"TEPOTINIB","dose":"250.0","doseu":null,"dosef":"QD","route":"ORAL","start_dtc":"2024-07-24","end_dtc":"2024-07-24","visit":null},{"seq":"124","trt":"TEPOTINIB","dose":"250.0","doseu":null,"dosef":"QD","route":"ORAL","start_dtc":"2024-07-25","end_dtc":"2024-07-25","visit":null},{"seq":"125","trt":"TEPOTINIB","dose":"250.0","doseu":null,"dosef":"QD","route":"ORAL","start_dtc":"2024-07-26","end_dtc":"2024-07-26","visit":null},{"seq":"126","trt":"TEPOTINIB","dose":"250.0","doseu":null,"dosef":"QD","route":"ORAL","start_dtc":"2024-07-27","end_dtc":"2024-07-27","visit":null},{"seq":"127","trt":"TEPOTINIB","dose":"250.0","doseu":null,"dosef":"QD","route":"ORAL","start_dtc":"2024-07-28","end_dtc":"2024-07-28","visit":null},{"seq":"128","trt":"TEPOTINIB","dose":"250.0","doseu":null,"dosef":"QD","route":"ORAL","start_dtc":"2024-07-29","end_dtc":"2024-07-29","visit":null},{"seq":"129","trt":"TEPOTINIB","dose":"250.0","doseu":null,"dosef":"QD","route":"ORAL","start_dtc":"2024-07-30","end_dtc":"2024-07-30","visit":null},{"seq":"130","trt":"TEPOTINIB","dose":"250.0","doseu":null,"dosef":"QD","route":"ORAL","start_dtc":"2024-07-31","end_dtc":"2024-07-31","visit":null},{"seq":"131","trt":"TEPOTINIB","dose":"250.0","doseu":null,"dosef":"QD","route":"ORAL","start_dtc":"2024-08-01","end_dtc":"2024-08-01","visit":null},{"seq":"132","trt":"TEPOTINIB","dose":"250.0","doseu":null,"dosef":"QD","route":"ORAL","start_dtc":"2024-08-02","end_dtc":"2024-08-02","visit":null},{"seq":"133","trt":"TEPOTINIB","dose":"250.0","doseu":null,"dosef":"QD","route":"ORAL","start_dtc":"2024-08-03","end_dtc":"2024-08-03","visit":null},{"seq":"134","trt":"TEPOTINIB","dose":"250.0","doseu":null,"dosef":"QD","route":"ORAL","start_dtc":"2024-08-04","end_dtc":"2024-08-04","visit":null}]},"section_7_adverse_events":{"summary":{"total_aes":8,"serious_aes":0,"fatal_aes":0,"by_severity":{"MODERATE":5,"MILD":3},"by_soc":{"Gastrointestinal disorders":3,"Metabolism and nutrition disorders":1,"Respiratory, thoracic and mediastinal disorders":1,"Investigations":2,"General disorders and administration site conditions":1}},"events":[{"seq":"1","term":"DIARRHOEA","decod":"Diarrhoea","llt":"Diarrhoea","hlt":"Diarrhoea (excl infective)","hlgt":"Gastrointestinal motility and defaecation conditions","soc":"Gastrointestinal disorders","bodsys":"Gastrointestinal disorders","severity":"MODERATE","serious":"N","causality":"POSSIBLY RELATED","action_taken":"DOSE REDUCED","outcome":"NOT RECOVERED/NOT RESOLVED","fatal":"N","hospitalization":"N","life_threatening":"N","onset_dtc":"2024-03-30","end_dtc":null,"onset_dy":"7","end_dy":null,"duration":null,"epoch":"TREATMENT","visit":null,"supplemental":{}},{"seq":"2","term":"NAUSEA","decod":"Nausea","llt":"Nausea","hlt":"Nausea and vomiting symptoms","hlgt":"Gastrointestinal signs and symptoms","soc":"Gastrointestinal disorders","bodsys":"Gastrointestinal disorders","severity":"MODERATE","serious":"N","causality":"POSSIBLY RELATED","action_taken":"DOSE REDUCED","outcome":"RECOVERED/RESOLVED","fatal":"N","hospitalization":"N","life_threatening":"N","onset_dtc":"2024-04-29","end_dtc":"2024-05-05","onset_dy":"37","end_dy":"43","duration":null,"epoch":"TREATMENT","visit":null,"supplemental":{}},{"seq":"3","term":"HYPOALBUMINAEMIA","decod":"Hypoalbuminaemia","llt":"Hypoalbuminaemia","hlt":"Protein metabolism disorders","hlgt":"Protein and amino acid metabolism disorders","soc":"Metabolism and nutrition disorders","bodsys":"Metabolism and nutrition disorders","severity":"MILD","serious":"N","causality":"NOT RELATED","action_taken":"DOSE NOT CHANGED","outcome":"RECOVERED/RESOLVED","fatal":"N","hospitalization":"N","life_threatening":"N","onset_dtc":"2024-05-08","end_dtc":"2024-05-14","onset_dy":"46","end_dy":"52","duration":null,"epoch":"TREATMENT","visit":null,"supplemental":{}},{"seq":"4","term":"PLEURAL EFFUSION","decod":"Pleural effusion","llt":"Pleural effusion","hlt":"Pleural conditions and effusions NEC","hlgt":"Respiratory disorders NEC","soc":"Respiratory, thoracic and mediastinal disorders","bodsys":"Respiratory, thoracic and mediastinal disorders","severity":"MODERATE","serious":"N","causality":"UNLIKELY RELATED","action_taken":"DOSE NOT CHANGED","outcome":"RECOVERED/RESOLVED","fatal":"N","hospitalization":"N","life_threatening":"N","onset_dtc":"2024-07-11","end_dtc":"2024-07-20","onset_dy":"110","end_dy":"119","duration":null,"epoch":"TREATMENT","visit":null,"supplemental":{}},{"seq":"5","term":"ASPARTATE AMINOTRANSFERASE INCREASED","decod":"Aspartate aminotransferase increased","llt":"Aspartate aminotransferase increased","hlt":"Liver function analyses","hlgt":"Hepatobiliary investigations","soc":"Investigations","bodsys":"Investigations","severity":"MILD","serious":"N","causality":"NOT RELATED","action_taken":"DOSE NOT CHANGED","outcome":"RECOVERED/RESOLVED","fatal":"N","hospitalization":"N","life_threatening":"N","onset_dtc":"2024-07-29","end_dtc":"2024-08-12","onset_dy":"128","end_dy":"142","duration":null,"epoch":"TREATMENT","visit":null,"supplemental":{}},{"seq":"6","term":"OEDEMA PERIPHERAL","decod":"Oedema peripheral","llt":"Oedema peripheral","hlt":"Oedema NEC","hlgt":"Oedema NEC","soc":"General disorders and administration site conditions","bodsys":"General disorders and administration site conditions","severity":"MODERATE","serious":"N","causality":"NOT RELATED","action_taken":"DOSE NOT CHANGED","outcome":"NOT RECOVERED/NOT RESOLVED","fatal":"N","hospitalization":"N","life_threatening":"N","onset_dtc":"2024-08-06","end_dtc":null,"onset_dy":"136","end_dy":null,"duration":null,"epoch":"TREATMENT","visit":null,"supplemental":{}},{"seq":"7","term":"BLOOD CREATININE INCREASED","decod":"Blood creatinine increased","llt":"Blood creatinine increased","hlt":"Renal function analyses","hlgt":"Renal and urinary tract investigations and urinalyses","soc":"Investigations","bodsys":"Investigations","severity":"MILD","serious":"N","causality":"POSSIBLY RELATED","action_taken":"DOSE NOT CHANGED","outcome":"RECOVERED/RESOLVED","fatal":"N","hospitalization":"N","life_threatening":"N","onset_dtc":"2024-08-13","end_dtc":"2024-08-23","onset_dy":"143","end_dy":"153","duration":null,"epoch":"TREATMENT","visit":null,"supplemental":{}},{"seq":"8","term":"DIARRHOEA","decod":"Diarrhoea","llt":"Diarrhoea","hlt":"Diarrhoea (excl infective)","hlgt":"Gastrointestinal motility and defaecation conditions","soc":"Gastrointestinal disorders","bodsys":"Gastrointestinal disorders","severity":"MODERATE","serious":"N","causality":"NOT RELATED","action_taken":"DOSE NOT CHANGED","outcome":"RECOVERED/RESOLVED","fatal":"N","hospitalization":"N","life_threatening":"N","onset_dtc":"2024-09-07","end_dtc":"2024-09-21","onset_dy":"168","end_dy":"182","duration":null,"epoch":"TREATMENT","visit":null,"supplemental":{}}]},"section_8_laboratory_results":{"summary":{"total_records":56,"abnormal_count":8,"abnormal_pct":14.3},"shift_summary":[{"testcd":"ALT","baseline_value":26.68,"baseline_nrind":"NORMAL","worst_post_baseline_value":30.78,"worst_post_baseline_nrind":"NORMAL","worst_visit":"C2D1"},{"testcd":"AST","baseline_value":20.7,"baseline_nrind":"NORMAL","worst_post_baseline_value":20.44,"worst_post_baseline_nrind":"NORMAL","worst_visit":"C2D1"},{"testcd":"CREAT","baseline_value":98.7,"baseline_nrind":"NORMAL","worst_post_baseline_value":104.42,"worst_post_baseline_nrind":"NORMAL","worst_visit":"EOT"},{"testcd":"GLUC","baseline_value":6.17,"baseline_nrind":"HIGH","worst_post_baseline_value":6.23,"worst_post_baseline_nrind":"HIGH","worst_visit":"C1D15"},{"testcd":"HGB","baseline_value":153.05,"baseline_nrind":"NORMAL","worst_post_baseline_value":153.72,"worst_post_baseline_nrind":"NORMAL","worst_visit":"C1D1"},{"testcd":"PLAT","baseline_value":292.43,"baseline_nrind":"NORMAL","worst_post_baseline_value":277.03,"worst_post_baseline_nrind":"NORMAL","worst_visit":"C1D15"},{"testcd":"WBC","baseline_value":9.01,"baseline_nrind":"NORMAL","worst_post_baseline_value":8.96,"worst_post_baseline_nrind":"NORMAL","worst_visit":"C3D1"}],"results":[{"seq":"1","testcd":"ALT","test":"Alanine Aminotransferase","cat":"CHEMISTRY","orres":null,"orresu":null,"stresc":null,"stresn":null,"stresu":null,"stnrlo":null,"stnrhi":null,"nrind":null,"fast":null,"dtc":"2024-02-17","dy":"-36","visit":"SCREENING","visitnum":"1.0","epoch":"SCREENING","spec":null,"method":null},{"seq":"2","testcd":"AST","test":"Aspartate Aminotransferase","cat":"CHEMISTRY","orres":"20.7","orresu":"U/L","stresc":"20.7","stresn":"20.7","stresu":"U/L","stnrlo":"10","stnrhi":"40","nrind":"NORMAL","fast":null,"dtc":"2024-02-17","dy":"-36","visit":"SCREENING","visitnum":"1.0","epoch":"SCREENING","spec":null,"method":null},{"seq":"3","testcd":"CREAT","test":"Creatinine","cat":"CHEMISTRY","orres":"98.7","orresu":"umol/L","stresc":"98.7","stresn":"98.7","stresu":"umol/L","stnrlo":"62","stnrhi":"106","nrind":"NORMAL","fast":null,"dtc":"2024-02-17","dy":"-36","visit":"SCREENING","visitnum":"1.0","epoch":"SCREENING","spec":null,"method":null},{"seq":"4","testcd":"GLUC","test":"Glucose","cat":"CHEMISTRY","orres":"6.17","orresu":"mmol/L","stresc":"6.17","stresn":"6.17","stresu":"mmol/L","stnrlo":"3.9","stnrhi":"5.6","nrind":"HIGH","fast":null,"dtc":"2024-02-17","dy":"-36","visit":"SCREENING","visitnum":"1.0","epoch":"SCREENING","spec":null,"method":null},{"seq":"5","testcd":"HGB","test":"Hemoglobin","cat":"HEMATOLOGY","orres":"153.05","orresu":"g/L","stresc":"153.05","stresn":"153.05","stresu":"g/L","stnrlo":"130","stnrhi":"175","nrind":"NORMAL","fast":null,"dtc":"2024-02-17","dy":"-36","visit":"SCREENING","visitnum":"1.0","epoch":"SCREENING","spec":null,"method":null},{"seq":"6","testcd":"PLAT","test":"Platelets","cat":"HEMATOLOGY","orres":"292.43","orresu":"10^9/L","stresc":"292.43","stresn":"292.43","stresu":"10^9/L","stnrlo":"150","stnrhi":"400","nrind":"NORMAL","fast":null,"dtc":"2024-02-17","dy":"-36","visit":"SCREENING","visitnum":"1.0","epoch":"SCREENING","spec":null,"method":null},{"seq":"7","testcd":"WBC","test":"Leukocytes","cat":"HEMATOLOGY","orres":"9.01","orresu":"10^9/L","stresc":"9.01","stresn":"9.01","stresu":"10^9/L","stnrlo":"4.0","stnrhi":"11.0","nrind":"NORMAL","fast":null,"dtc":"2024-02-17","dy":"-36","visit":"SCREENING","visitnum":"1.0","epoch":"SCREENING","spec":null,"method":null},{"seq":"8","testcd":"ALT","test":"Alanine Aminotransferase","cat":"CHEMISTRY","orres":null,"orresu":null,"stresc":null,"stresn":null,"stresu":null,"stnrlo":null,"stnrhi":null,"nrind":null,"fast":null,"dtc":"2024-03-24","dy":"1","visit":"C1D1","visitnum":"2.0","epoch":"TREATMENT","spec":null,"method":null},{"seq":"9","testcd":"AST","test":"Aspartate Aminotransferase","cat":"CHEMISTRY","orres":"20.21","orresu":"U/L","stresc":"20.21","stresn":"20.21","stresu":"U/L","stnrlo":"10","stnrhi":"40","nrind":"NORMAL","fast":null,"dtc":"2024-03-24","dy":"1","visit":"C1D1","visitnum":"2.0","epoch":"TREATMENT","spec":null,"method":null},{"seq":"10","testcd":"CREAT","test":"Creatinine","cat":"CHEMISTRY","orres":"97.67","orresu":"umol/L","stresc":"97.67","stresn":"97.67","stresu":"umol/L","stnrlo":"62","stnrhi":"106","nrind":"NORMAL","fast":null,"dtc":"2024-03-24","dy":"1","visit":"C1D1","visitnum":"2.0","epoch":"TREATMENT","spec":null,"method":null},{"seq":"11","testcd":"GLUC","test":"Glucose","cat":"CHEMISTRY","orres":"6.12","orresu":"mmol/L","stresc":"6.12","stresn":"6.12","stresu":"mmol/L","stnrlo":"3.9","stnrhi":"5.6","nrind":"HIGH","fast":null,"dtc":"2024-03-24","dy":"1","visit":"C1D1","visitnum":"2.0","epoch":"TREATMENT","spec":null,"method":null},{"seq":"12","testcd":"HGB","test":"Hemoglobin","cat":"HEMATOLOGY","orres":"153.72","orresu":"g/L","stresc":"153.72","stresn":"153.72","stresu":"g/L","stnrlo":"130","stnrhi":"175","nrind":"NORMAL","fast":null,"dtc":"2024-03-24","dy":"1","visit":"C1D1","visitnum":"2.0","epoch":"TREATMENT","spec":null,"method":null},{"seq":"13","testcd":"PLAT","test":"Platelets","cat":"HEMATOLOGY","orres":"272.51","orresu":"10^9/L","stresc":"272.51","stresn":"272.51","stresu":"10^9/L","stnrlo":"150","stnrhi":"400","nrind":"NORMAL","fast":null,"dtc":"2024-03-24","dy":"1","visit":"C1D1","visitnum":"2.0","epoch":"TREATMENT","spec":null,"method":null},{"seq":"14","testcd":"WBC","test":"Leukocytes","cat":"HEMATOLOGY","orres":"8.32","orresu":"10^9/L","stresc":"8.32","stresn":"8.32","stresu":"10^9/L","stnrlo":"4.0","stnrhi":"11.0","nrind":"NORMAL","fast":null,"dtc":"2024-03-24","dy":"1","visit":"C1D1","visitnum":"2.0","epoch":"TREATMENT","spec":null,"method":null},{"seq":"15","testcd":"ALT","test":"Alanine Aminotransferase","cat":"CHEMISTRY","orres":"26.68","orresu":"U/L","stresc":"26.68","stresn":"26.68","stresu":"U/L","stnrlo":"7","stnrhi":"56","nrind":"NORMAL","fast":null,"dtc":"2024-04-05","dy":"13","visit":"C1D15","visitnum":"3.0","epoch":"TREATMENT","spec":null,"method":null},{"seq":"16","testcd":"AST","test":"Aspartate Aminotransferase","cat":"CHEMISTRY","orres":"18.33","orresu":"U/L","stresc":"18.33","stresn":"18.33","stresu":"U/L","stnrlo":"10","stnrhi":"40","nrind":"NORMAL","fast":null,"dtc":"2024-04-05","dy":"13","visit":"C1D15","visitnum":"3.0","epoch":"TREATMENT","spec":null,"method":null},{"seq":"17","testcd":"CREAT","test":"Creatinine","cat":"CHEMISTRY","orres":"95.59","orresu":"umol/L","stresc":"95.59","stresn":"95.59","stresu":"umol/L","stnrlo":"62","stnrhi":"106","nrind":"NORMAL","fast":null,"dtc":"2024-04-05","dy":"13","visit":"C1D15","visitnum":"3.0","epoch":"TREATMENT","spec":null,"method":null},{"seq":"18","testcd":"GLUC","test":"Glucose","cat":"CHEMISTRY","orres":"6.23","orresu":"mmol/L","stresc":"6.23","stresn":"6.23","stresu":"mmol/L","stnrlo":"3.9","stnrhi":"5.6","nrind":"HIGH","fast":null,"dtc":"2024-04-05","dy":"13","visit":"C1D15","visitnum":"3.0","epoch":"TREATMENT","spec":null,"method":null},{"seq":"19","testcd":"HGB","test":"Hemoglobin","cat":"HEMATOLOGY","orres":"153.94","orresu":"g/L","stresc":"153.94","stresn":"153.94","stresu":"g/L","stnrlo":"130","stnrhi":"175","nrind":"NORMAL","fast":null,"dtc":"2024-04-05","dy":"13","visit":"C1D15","visitnum":"3.0","epoch":"TREATMENT","spec":null,"method":null},{"seq":"20","testcd":"PLAT","test":"Platelets","cat":"HEMATOLOGY","orres":"277.03","orresu":"10^9/L","stresc":"277.03","stresn":"277.03","stresu":"10^9/L","stnrlo":"150","stnrhi":"400","nrind":"NORMAL","fast":null,"dtc":"2024-04-05","dy":"13","visit":"C1D15","visitnum":"3.0","epoch":"TREATMENT","spec":null,"method":null},{"seq":"21","testcd":"WBC","test":"Leukocytes","cat":"HEMATOLOGY","orres":"8.38","orresu":"10^9/L","stresc":"8.38","stresn":"8.38","stresu":"10^9/L","stnrlo":"4.0","stnrhi":"11.0","nrind":"NORMAL","fast":null,"dtc":"2024-04-05","dy":"13","visit":"C1D15","visitnum":"3.0","epoch":"TREATMENT","spec":null,"method":null},{"seq":"22","testcd":"ALT","test":"Alanine Aminotransferase","cat":"CHEMISTRY","orres":"30.78","orresu":"U/L","stresc":"30.78","stresn":"30.78","stresu":"U/L","stnrlo":"7","stnrhi":"56","nrind":"NORMAL","fast":null,"dtc":"2024-04-18","dy":"26","visit":"C2D1","visitnum":"4.0","epoch":"TREATMENT","spec":null,"method":null},{"seq":"23","testcd":"AST","test":"Aspartate Aminotransferase","cat":"CHEMISTRY","orres":"20.44","orresu":"U/L","stresc":"20.44","stresn":"20.44","stresu":"U/L","stnrlo":"10","stnrhi":"40","nrind":"NORMAL","fast":null,"dtc":"2024-04-18","dy":"26","visit":"C2D1","visitnum":"4.0","epoch":"TREATMENT","spec":null,"method":null},{"seq":"24","testcd":"CREAT","test":"Creatinine","cat":"CHEMISTRY","orres":"98.32","orresu":"umol/L","stresc":"98.32","stresn":"98.32","stresu":"umol/L","stnrlo":"62","stnrhi":"106","nrind":"NORMAL","fast":null,"dtc":"2024-04-18","dy":"26","visit":"C2D1","visitnum":"4.0","epoch":"TREATMENT","spec":null,"method":null},{"seq":"25","testcd":"GLUC","test":"Glucose","cat":"CHEMISTRY","orres":"5.97","orresu":"mmol/L","stresc":"5.97","stresn":"5.97","stresu":"mmol/L","stnrlo":"3.9","stnrhi":"5.6","nrind":"HIGH","fast":null,"dtc":"2024-04-18","dy":"26","visit":"C2D1","visitnum":"4.0","epoch":"TREATMENT","spec":null,"method":null},{"seq":"26","testcd":"HGB","test":"Hemoglobin","cat":"HEMATOLOGY","orres":"155.03","orresu":"g/L","stresc":"155.03","stresn":"155.03","stresu":"g/L","stnrlo":"130","stnrhi":"175","nrind":"NORMAL","fast":null,"dtc":"2024-04-18","dy":"26","visit":"C2D1","visitnum":"4.0","epoch":"TREATMENT","spec":null,"method":null},{"seq":"27","testcd":"PLAT","test":"Platelets","cat":"HEMATOLOGY","orres":null,"orresu":null,"stresc":null,"stresn":null,"stresu":null,"stnrlo":null,"stnrhi":null,"nrind":null,"fast":null,"dtc":"2024-04-18","dy":"26","visit":"C2D1","visitnum":"4.0","epoch":"TREATMENT","spec":null,"method":null},{"seq":"28","testcd":"WBC","test":"Leukocytes","cat":"HEMATOLOGY","orres":"8.01","orresu":"10^9/L","stresc":"8.01","stresn":"8.01","stresu":"10^9/L","stnrlo":"4.0","stnrhi":"11.0","nrind":"NORMAL","fast":null,"dtc":"2024-04-18","dy":"26","visit":"C2D1","visitnum":"4.0","epoch":"TREATMENT","spec":null,"method":null},{"seq":"29","testcd":"ALT","test":"Alanine Aminotransferase","cat":"CHEMISTRY","orres":"29.23","orresu":"U/L","stresc":"29.23","stresn":"29.23","stresu":"U/L","stnrlo":"7","stnrhi":"56","nrind":"NORMAL","fast":null,"dtc":"2024-05-22","dy":"60","visit":"C3D1","visitnum":"5.0","epoch":"TREATMENT","spec":null,"method":null},{"seq":"30","testcd":"AST","test":"Aspartate Aminotransferase","cat":"CHEMISTRY","orres":"19.54","orresu":"U/L","stresc":"19.54","stresn":"19.54","stresu":"U/L","stnrlo":"10","stnrhi":"40","nrind":"NORMAL","fast":null,"dtc":"2024-05-22","dy":"60","visit":"C3D1","visitnum":"5.0","epoch":"TREATMENT","spec":null,"method":null},{"seq":"31","testcd":"CREAT","test":"Creatinine","cat":"CHEMISTRY","orres":"99.93","orresu":"umol/L","stresc":"99.93","stresn":"99.93","stresu":"umol/L","stnrlo":"62","stnrhi":"106","nrind":"NORMAL","fast":null,"dtc":"2024-05-22","dy":"60","visit":"C3D1","visitnum":"5.0","epoch":"TREATMENT","spec":null,"method":null},{"seq":"32","testcd":"GLUC","test":"Glucose","cat":"CHEMISTRY","orres":"5.94","orresu":"mmol/L","stresc":"5.94","stresn":"5.94","stresu":"mmol/L","stnrlo":"3.9","stnrhi":"5.6","nrind":"HIGH","fast":null,"dtc":"2024-05-22","dy":"60","visit":"C3D1","visitnum":"5.0","epoch":"TREATMENT","spec":null,"method":null},{"seq":"33","testcd":"HGB","test":"Hemoglobin","cat":"HEMATOLOGY","orres":"153.72","orresu":"g/L","stresc":"153.72","stresn":"153.72","stresu":"g/L","stnrlo":"130","stnrhi":"175","nrind":"NORMAL","fast":null,"dtc":"2024-05-22","dy":"60","visit":"C3D1","visitnum":"5.0","epoch":"TREATMENT","spec":null,"method":null},{"seq":"34","testcd":"PLAT","test":"Platelets","cat":"HEMATOLOGY","orres":"270.0","orresu":"10^9/L","stresc":"270.0","stresn":"270.0","stresu":"10^9/L","stnrlo":"150","stnrhi":"400","nrind":"NORMAL","fast":null,"dtc":"2024-05-22","dy":"60","visit":"C3D1","visitnum":"5.0","epoch":"TREATMENT","spec":null,"method":null},{"seq":"35","testcd":"WBC","test":"Leukocytes","cat":"HEMATOLOGY","orres":"8.96","orresu":"10^9/L","stresc":"8.96","stresn":"8.96","stresu":"10^9/L","stnrlo":"4.0","stnrhi":"11.0","nrind":"NORMAL","fast":null,"dtc":"2024-05-22","dy":"60","visit":"C3D1","visitnum":"5.0","epoch":"TREATMENT","spec":null,"method":null},{"seq":"36","testcd":"ALT","test":"Alanine Aminotransferase","cat":"CHEMISTRY","orres":"27.73","orresu":"U/L","stresc":"27.73","stresn":"27.73","stresu":"U/L","stnrlo":"7","stnrhi":"56","nrind":"NORMAL","fast":null,"dtc":"2024-06-19","dy":"88","visit":"C4D1","visitnum":"6.0","epoch":"TREATMENT","spec":null,"method":null},{"seq":"37","testcd":"AST","test":"Aspartate Aminotransferase","cat":"CHEMISTRY","orres":"19.73","orresu":"U/L","stresc":"19.73","stresn":"19.73","stresu":"U/L","stnrlo":"10","stnrhi":"40","nrind":"NORMAL","fast":null,"dtc":"2024-06-19","dy":"88","visit":"C4D1","visitnum":"6.0","epoch":"TREATMENT","spec":null,"method":null},{"seq":"38","testcd":"CREAT","test":"Creatinine","cat":"CHEMISTRY","orres":"102.87","orresu":"umol/L","stresc":"102.87","stresn":"102.87","stresu":"umol/L","stnrlo":"62","stnrhi":"106","nrind":"NORMAL","fast":null,"dtc":"2024-06-19","dy":"88","visit":"C4D1","visitnum":"6.0","epoch":"TREATMENT","spec":null,"method":null},{"seq":"39","testcd":"GLUC","test":"Glucose","cat":"CHEMISTRY","orres":"5.87","orresu":"mmol/L","stresc":"5.87","stresn":"5.87","stresu":"mmol/L","stnrlo":"3.9","stnrhi":"5.6","nrind":"HIGH","fast":null,"dtc":"2024-06-19","dy":"88","visit":"C4D1","visitnum":"6.0","epoch":"TREATMENT","spec":null,"method":null},{"seq":"40","testcd":"HGB","test":"Hemoglobin","cat":"HEMATOLOGY","orres":"154.57","orresu":"g/L","stresc":"154.57","stresn":"154.57","stresu":"g/L","stnrlo":"130","stnrhi":"175","nrind":"NORMAL","fast":null,"dtc":"2024-06-19","dy":"88","visit":"C4D1","visitnum":"6.0","epoch":"TREATMENT","spec":null,"method":null},{"seq":"41","testcd":"PLAT","test":"Platelets","cat":"HEMATOLOGY","orres":"266.71","orresu":"10^9/L","stresc":"266.71","stresn":"266.71","stresu":"10^9/L","stnrlo":"150","stnrhi":"400","nrind":"NORMAL","fast":null,"dtc":"2024-06-19","dy":"88","visit":"C4D1","visitnum":"6.0","epoch":"TREATMENT","spec":null,"method":null},{"seq":"42","testcd":"WBC","test":"Leukocytes","cat":"HEMATOLOGY","orres":"8.2","orresu":"10^9/L","stresc":"8.2","stresn":"8.2","stresu":"10^9/L","stnrlo":"4.0","stnrhi":"11.0","nrind":"NORMAL","fast":null,"dtc":"2024-06-19","dy":"88","visit":"C4D1","visitnum":"6.0","epoch":"TREATMENT","spec":null,"method":null},{"seq":"43","testcd":"ALT","test":"Alanine Aminotransferase","cat":"CHEMISTRY","orres":"27.27","orresu":"U/L","stresc":"27.27","stresn":"27.27","stresu":"U/L","stnrlo":"7","stnrhi":"56","nrind":"NORMAL","fast":null,"dtc":"2024-09-08","dy":"169","visit":"EOT","visitnum":"8.0","epoch":"TREATMENT","spec":null,"method":null},{"seq":"44","testcd":"AST","test":"Aspartate Aminotransferase","cat":"CHEMISTRY","orres":"19.03","orresu":"U/L","stresc":"19.03","stresn":"19.03","stresu":"U/L","stnrlo":"10","stnrhi":"40","nrind":"NORMAL","fast":null,"dtc":"2024-09-08","dy":"169","visit":"EOT","visitnum":"8.0","epoch":"TREATMENT","spec":null,"method":null},{"seq":"45","testcd":"CREAT","test":"Creatinine","cat":"CHEMISTRY","orres":"104.42","orresu":"umol/L","stresc":"104.42","stresn":"104.42","stresu":"umol/L","stnrlo":"62","stnrhi":"106","nrind":"NORMAL","fast":null,"dtc":"2024-09-08","dy":"169","visit":"EOT","visitnum":"8.0","epoch":"TREATMENT","spec":null,"method":null},{"seq":"46","testcd":"GLUC","test":"Glucose","cat":"CHEMISTRY","orres":"5.89","orresu":"mmol/L","stresc":"5.89","stresn":"5.89","stresu":"mmol/L","stnrlo":"3.9","stnrhi":"5.6","nrind":"HIGH","fast":null,"dtc":"2024-09-08","dy":"169","visit":"EOT","visitnum":"8.0","epoch":"TREATMENT","spec":null,"method":null},{"seq":"47","testcd":"HGB","test":"Hemoglobin","cat":"HEMATOLOGY","orres":"154.6","orresu":"g/L","stresc":"154.6","stresn":"154.6","stresu":"g/L","stnrlo":"130","stnrhi":"175","nrind":"NORMAL","fast":null,"dtc":"2024-09-08","dy":"169","visit":"EOT","visitnum":"8.0","epoch":"TREATMENT","spec":null,"method":null},{"seq":"48","testcd":"PLAT","test":"Platelets","cat":"HEMATOLOGY","orres":"269.74","orresu":"10^9/L","stresc":"269.74","stresn":"269.74","stresu":"10^9/L","stnrlo":"150","stnrhi":"400","nrind":"NORMAL","fast":null,"dtc":"2024-09-08","dy":"169","visit":"EOT","visitnum":"8.0","epoch":"TREATMENT","spec":null,"method":null},{"seq":"49","testcd":"WBC","test":"Leukocytes","cat":"HEMATOLOGY","orres":"8.22","orresu":"10^9/L","stresc":"8.22","stresn":"8.22","stresu":"10^9/L","stnrlo":"4.0","stnrhi":"11.0","nrind":"NORMAL","fast":null,"dtc":"2024-09-08","dy":"169","visit":"EOT","visitnum":"8.0","epoch":"TREATMENT","spec":null,"method":null},{"seq":"50","testcd":"ALT","test":"Alanine Aminotransferase","cat":"CHEMISTRY","orres":"28.45","orresu":"U/L","stresc":"28.45","stresn":"28.45","stresu":"U/L","stnrlo":"7","stnrhi":"56","nrind":"NORMAL","fast":null,"dtc":"2024-10-04","dy":"195","visit":"FOLLOW-UP","visitnum":"9.0","epoch":"FOLLOW-UP","spec":null,"method":null},{"seq":"51","testcd":"AST","test":"Aspartate Aminotransferase","cat":"CHEMISTRY","orres":"18.52","orresu":"U/L","stresc":"18.52","stresn":"18.52","stresu":"U/L","stnrlo":"10","stnrhi":"40","nrind":"NORMAL","fast":null,"dtc":"2024-10-04","dy":"195","visit":"FOLLOW-UP","visitnum":"9.0","epoch":"FOLLOW-UP","spec":null,"method":null},{"seq":"52","testcd":"CREAT","test":"Creatinine","cat":"CHEMISTRY","orres":"103.46","orresu":"umol/L","stresc":"103.46","stresn":"103.46","stresu":"umol/L","stnrlo":"62","stnrhi":"106","nrind":"NORMAL","fast":null,"dtc":"2024-10-04","dy":"195","visit":"FOLLOW-UP","visitnum":"9.0","epoch":"FOLLOW-UP","spec":null,"method":null},{"seq":"53","testcd":"GLUC","test":"Glucose","cat":"CHEMISTRY","orres":"6.03","orresu":"mmol/L","stresc":"6.03","stresn":"6.03","stresu":"mmol/L","stnrlo":"3.9","stnrhi":"5.6","nrind":"HIGH","fast":null,"dtc":"2024-10-04","dy":"195","visit":"FOLLOW-UP","visitnum":"9.0","epoch":"FOLLOW-UP","spec":null,"method":null},{"seq":"54","testcd":"HGB","test":"Hemoglobin","cat":"HEMATOLOGY","orres":"154.42","orresu":"g/L","stresc":"154.42","stresn":"154.42","stresu":"g/L","stnrlo":"130","stnrhi":"175","nrind":"NORMAL","fast":null,"dtc":"2024-10-04","dy":"195","visit":"FOLLOW-UP","visitnum":"9.0","epoch":"FOLLOW-UP","spec":null,"method":null},{"seq":"55","testcd":"PLAT","test":"Platelets","cat":"HEMATOLOGY","orres":"265.87","orresu":"10^9/L","stresc":"265.87","stresn":"265.87","stresu":"10^9/L","stnrlo":"150","stnrhi":"400","nrind":"NORMAL","fast":null,"dtc":"2024-10-04","dy":"195","visit":"FOLLOW-UP","visitnum":"9.0","epoch":"FOLLOW-UP","spec":null,"method":null},{"seq":"56","testcd":"WBC","test":"Leukocytes","cat":"HEMATOLOGY","orres":"8.42","orresu":"10^9/L","stresc":"8.42","stresn":"8.42","stresu":"10^9/L","stnrlo":"4.0","stnrhi":"11.0","nrind":"NORMAL","fast":null,"dtc":"2024-10-04","dy":"195","visit":"FOLLOW-UP","visitnum":"9.0","epoch":"FOLLOW-UP","spec":null,"method":null}]},"section_9_vital_signs":{"summary":{"total_records":72},"trends":{"BMI":[{"visit":"SCREENING","visitnum":"1.0","dtc":"2024-02-17","value":"22.5","unit":"kg/m2"},{"visit":"C1D1","visitnum":"2.0","dtc":"2024-03-24","value":"23.0","unit":"kg/m2"},{"visit":"C1D15","visitnum":"3.0","dtc":"2024-04-05","value":"22.2","unit":"kg/m2"},{"visit":"C2D1","visitnum":"4.0","dtc":"2024-04-18","value":"22.4","unit":"kg/m2"},{"visit":"C3D1","visitnum":"5.0","dtc":"2024-05-22","value":"22.4","unit":"kg/m2"},{"visit":"C4D1","visitnum":"6.0","dtc":"2024-06-19","value":"22.6","unit":"kg/m2"},{"visit":"C6D1","visitnum":"7.0","dtc":"2024-08-17","value":"21.9","unit":"kg/m2"},{"visit":"EOT","visitnum":"8.0","dtc":"2024-09-08","value":"21.8","unit":"kg/m2"},{"visit":"FOLLOW-UP","visitnum":"9.0","dtc":"2024-10-04","value":"21.9","unit":"kg/m2"}],"DIABP":[{"visit":"SCREENING","visitnum":"1.0","dtc":"2024-02-17","value":"66.5","unit":"mmHg"},{"visit":"C1D1","visitnum":"2.0","dtc":"2024-03-24","value":"69.8","unit":"mmHg"},{"visit":"C1D15","visitnum":"3.0","dtc":"2024-04-05","value":"68.6","unit":"mmHg"},{"visit":"C2D1","visitnum":"4.0","dtc":"2024-04-18","value":"71.7","unit":"mmHg"},{"visit":"C3D1","visitnum":"5.0","dtc":"2024-05-22","value":"70.2","unit":"mmHg"},{"visit":"C4D1","visitnum":"6.0","dtc":"2024-06-19","value":"68.7","unit":"mmHg"},{"visit":"C6D1","visitnum":"7.0","dtc":"2024-08-17","value":"68.9","unit":"mmHg"},{"visit":"EOT","visitnum":"8.0","dtc":"2024-09-08","value":"66.8","unit":"mmHg"},{"visit":"FOLLOW-UP","visitnum":"9.0","dtc":"2024-10-04","value":"68.6","unit":"mmHg"}],"HEIGHT":[{"visit":"SCREENING","visitnum":"1.0","dtc":"2024-02-17","value":"172.4","unit":"cm"},{"visit":"C1D1","visitnum":"2.0","dtc":"2024-03-24","value":"172.5","unit":"cm"},{"visit":"C1D15","visitnum":"3.0","dtc":"2024-04-05","value":"173.4","unit":"cm"},{"visit":"C2D1","visitnum":"4.0","dtc":"2024-04-18","value":"173.6","unit":"cm"},{"visit":"C3D1","visitnum":"5.0","dtc":"2024-05-22","value":"173.2","unit":"cm"},{"visit":"C4D1","visitnum":"6.0","dtc":"2024-06-19","value":"173.5","unit":"cm"},{"visit":"C6D1","visitnum":"7.0","dtc":"2024-08-17","value":"174.6","unit":"cm"},{"visit":"EOT","visitnum":"8.0","dtc":"2024-09-08","value":"174.4","unit":"cm"},{"visit":"FOLLOW-UP","visitnum":"9.0","dtc":"2024-10-04","value":"173.9","unit":"cm"}],"PULSE":[{"visit":"SCREENING","visitnum":"1.0","dtc":"2024-02-17","value":"53.6","unit":"beats/min"},{"visit":"C1D1","visitnum":"2.0","dtc":"2024-03-24","value":"53.6","unit":"beats/min"},{"visit":"C1D15","visitnum":"3.0","dtc":"2024-04-05","value":"56.2","unit":"beats/min"},{"visit":"C2D1","visitnum":"4.0","dtc":"2024-04-18","value":"60.0","unit":"beats/min"},{"visit":"C3D1","visitnum":"5.0","dtc":"2024-05-22","value":"58.4","unit":"beats/min"},{"visit":"C4D1","visitnum":"6.0","dtc":"2024-06-19","value":"59.7","unit":"beats/min"},{"visit":"C6D1","visitnum":"7.0","dtc":"2024-08-17","value":"59.4","unit":"beats/min"},{"visit":"EOT","visitnum":"8.0","dtc":"2024-09-08","value":"60.3","unit":"beats/min"},{"visit":"FOLLOW-UP","visitnum":"9.0","dtc":"2024-10-04","value":"57.4","unit":"beats/min"}],"RESP":[{"visit":"SCREENING","visitnum":"1.0","dtc":"2024-02-17","value":"15.6","unit":"breaths/min"},{"visit":"C1D1","visitnum":"2.0","dtc":"2024-03-24","value":"16.8","unit":"breaths/min"},{"visit":"C1D15","visitnum":"3.0","dtc":"2024-04-05","value":"14.9","unit":"breaths/min"},{"visit":"C2D1","visitnum":"4.0","dtc":"2024-04-18","value":"14.4","unit":"breaths/min"},{"visit":"C3D1","visitnum":"5.0","dtc":"2024-05-22","value":"13.3","unit":"breaths/min"},{"visit":"C4D1","visitnum":"6.0","dtc":"2024-06-19","value":"14.0","unit":"breaths/min"},{"visit":"C6D1","visitnum":"7.0","dtc":"2024-08-17","value":"13.5","unit":"breaths/min"},{"visit":"EOT","visitnum":"8.0","dtc":"2024-09-08","value":"12.3","unit":"breaths/min"},{"visit":"FOLLOW-UP","visitnum":"9.0","dtc":"2024-10-04","value":"12.0","unit":"breaths/min"}],"SYSBP":[{"visit":"SCREENING","visitnum":"1.0","dtc":"2024-02-17","value":"139.6","unit":"mmHg"},{"visit":"C1D1","visitnum":"2.0","dtc":"2024-03-24","value":"143.1","unit":"mmHg"},{"visit":"C1D15","visitnum":"3.0","dtc":"2024-04-05","value":"143.2","unit":"mmHg"},{"visit":"C2D1","visitnum":"4.0","dtc":"2024-04-18","value":"144.5","unit":"mmHg"},{"visit":"C3D1","visitnum":"5.0","dtc":"2024-05-22","value":"143.9","unit":"mmHg"},{"visit":"C4D1","visitnum":"6.0","dtc":"2024-06-19","value":"145.4","unit":"mmHg"},{"visit":"C6D1","visitnum":"7.0","dtc":"2024-08-17","value":"144.8","unit":"mmHg"},{"visit":"EOT","visitnum":"8.0","dtc":"2024-09-08","value":"140.6","unit":"mmHg"},{"visit":"FOLLOW-UP","visitnum":"9.0","dtc":"2024-10-04","value":"143.3","unit":"mmHg"}],"TEMP":[{"visit":"SCREENING","visitnum":"1.0","dtc":"2024-02-17","value":"36.9","unit":"C"},{"visit":"C1D1","visitnum":"2.0","dtc":"2024-03-24","value":"36.8","unit":"C"},{"visit":"C1D15","visitnum":"3.0","dtc":"2024-04-05","value":"36.8","unit":"C"},{"visit":"C2D1","visitnum":"4.0","dtc":"2024-04-18","value":"36.7","unit":"C"},{"visit":"C3D1","visitnum":"5.0","dtc":"2024-05-22","value":"36.9","unit":"C"},{"visit":"C4D1","visitnum":"6.0","dtc":"2024-06-19","value":"36.8","unit":"C"},{"visit":"C6D1","visitnum":"7.0","dtc":"2024-08-17","value":"36.7","unit":"C"},{"visit":"EOT","visitnum":"8.0","dtc":"2024-09-08","value":"36.7","unit":"C"},{"visit":"FOLLOW-UP","visitnum":"9.0","dtc":"2024-10-04","value":"36.8","unit":"C"}],"WEIGHT":[{"visit":"SCREENING","visitnum":"1.0","dtc":"2024-02-17","value":"66.8","unit":"kg"},{"visit":"C1D1","visitnum":"2.0","dtc":"2024-03-24","value":"68.4","unit":"kg"},{"visit":"C1D15","visitnum":"3.0","dtc":"2024-04-05","value":"66.8","unit":"kg"},{"visit":"C2D1","visitnum":"4.0","dtc":"2024-04-18","value":"67.4","unit":"kg"},{"visit":"C3D1","visitnum":"5.0","dtc":"2024-05-22","value":"67.1","unit":"kg"},{"visit":"C4D1","visitnum":"6.0","dtc":"2024-06-19","value":"68.1","unit":"kg"},{"visit":"C6D1","visitnum":"7.0","dtc":"2024-08-17","value":"66.9","unit":"kg"},{"visit":"EOT","visitnum":"8.0","dtc":"2024-09-08","value":"66.4","unit":"kg"},{"visit":"FOLLOW-UP","visitnum":"9.0","dtc":"2024-10-04","value":"66.2","unit":"kg"}]},"results":[{"seq":"1","testcd":"BMI","test":"BMI","cat":null,"orres":"22.5","orresu":"kg/m2","stresc":"22.5","stresn":"22.5","stresu":"kg/m2","stnrlo":null,"stnrhi":null,"nrind":null,"pos":null,"loc":null,"dtc":"2024-02-17","dy":"-36","visit":"SCREENING","visitnum":"1.0","epoch":"SCREENING"},{"seq":"2","testcd":"DIABP","test":"Diastolic Blood Pressure","cat":null,"orres":"66.5","orresu":"mmHg","stresc":"66.5","stresn":"66.5","stresu":"mmHg","stnrlo":null,"stnrhi":null,"nrind":null,"pos":null,"loc":null,"dtc":"2024-02-17","dy":"-36","visit":"SCREENING","visitnum":"1.0","epoch":"SCREENING"},{"seq":"3","testcd":"HEIGHT","test":"Height","cat":null,"orres":"172.4","orresu":"cm","stresc":"172.4","stresn":"172.4","stresu":"cm","stnrlo":null,"stnrhi":null,"nrind":null,"pos":null,"loc":null,"dtc":"2024-02-17","dy":"-36","visit":"SCREENING","visitnum":"1.0","epoch":"SCREENING"},{"seq":"4","testcd":"PULSE","test":"Pulse Rate","cat":null,"orres":"53.6","orresu":"beats/min","stresc":"53.6","stresn":"53.6","stresu":"beats/min","stnrlo":null,"stnrhi":null,"nrind":null,"pos":null,"loc":null,"dtc":"2024-02-17","dy":"-36","visit":"SCREENING","visitnum":"1.0","epoch":"SCREENING"},{"seq":"5","testcd":"RESP","test":"Respiratory Rate","cat":null,"orres":"15.6","orresu":"breaths/min","stresc":"15.6","stresn":"15.6","stresu":"breaths/min","stnrlo":null,"stnrhi":null,"nrind":null,"pos":null,"loc":null,"dtc":"2024-02-17","dy":"-36","visit":"SCREENING","visitnum":"1.0","epoch":"SCREENING"},{"seq":"6","testcd":"SYSBP","test":"Systolic Blood Pressure","cat":null,"orres":"139.6","orresu":"mmHg","stresc":"139.6","stresn":"139.6","stresu":"mmHg","stnrlo":null,"stnrhi":null,"nrind":null,"pos":null,"loc":null,"dtc":"2024-02-17","dy":"-36","visit":"SCREENING","visitnum":"1.0","epoch":"SCREENING"},{"seq":"7","testcd":"TEMP","test":"Temperature","cat":null,"orres":"36.9","orresu":"C","stresc":"36.9","stresn":"36.9","stresu":"C","stnrlo":null,"stnrhi":null,"nrind":null,"pos":null,"loc":null,"dtc":"2024-02-17","dy":"-36","visit":"SCREENING","visitnum":"1.0","epoch":"SCREENING"},{"seq":"8","testcd":"WEIGHT","test":"Weight","cat":null,"orres":"66.8","orresu":"kg","stresc":"66.8","stresn":"66.8","stresu":"kg","stnrlo":null,"stnrhi":null,"nrind":null,"pos":null,"loc":null,"dtc":"2024-02-17","dy":"-36","visit":"SCREENING","visitnum":"1.0","epoch":"SCREENING"},{"seq":"9","testcd":"BMI","test":"BMI","cat":null,"orres":"23.0","orresu":"kg/m2","stresc":"23.0","stresn":"23.0","stresu":"kg/m2","stnrlo":null,"stnrhi":null,"nrind":null,"pos":null,"loc":null,"dtc":"2024-03-24","dy":"1","visit":"C1D1","visitnum":"2.0","epoch":"TREATMENT"},{"seq":"10","testcd":"DIABP","test":"Diastolic Blood Pressure","cat":null,"orres":"69.8","orresu":"mmHg","stresc":"69.8","stresn":"69.8","stresu":"mmHg","stnrlo":null,"stnrhi":null,"nrind":null,"pos":null,"loc":null,"dtc":"2024-03-24","dy":"1","visit":"C1D1","visitnum":"2.0","epoch":"TREATMENT"},{"seq":"11","testcd":"HEIGHT","test":"Height","cat":null,"orres":"172.5","orresu":"cm","stresc":"172.5","stresn":"172.5","stresu":"cm","stnrlo":null,"stnrhi":null,"nrind":null,"pos":null,"loc":null,"dtc":"2024-03-24","dy":"1","visit":"C1D1","visitnum":"2.0","epoch":"TREATMENT"},{"seq":"12","testcd":"PULSE","test":"Pulse Rate","cat":null,"orres":"53.6","orresu":"beats/min","stresc":"53.6","stresn":"53.6","stresu":"beats/min","stnrlo":null,"stnrhi":null,"nrind":null,"pos":null,"loc":null,"dtc":"2024-03-24","dy":"1","visit":"C1D1","visitnum":"2.0","epoch":"TREATMENT"},{"seq":"13","testcd":"RESP","test":"Respiratory Rate","cat":null,"orres":"16.8","orresu":"breaths/min","stresc":"16.8","stresn":"16.8","stresu":"breaths/min","stnrlo":null,"stnrhi":null,"nrind":null,"pos":null,"loc":null,"dtc":"2024-03-24","dy":"1","visit":"C1D1","visitnum":"2.0","epoch":"TREATMENT"},{"seq":"14","testcd":"SYSBP","test":"Systolic Blood Pressure","cat":null,"orres":"143.1","orresu":"mmHg","stresc":"143.1","stresn":"143.1","stresu":"mmHg","stnrlo":null,"stnrhi":null,"nrind":null,"pos":null,"loc":null,"dtc":"2024-03-24","dy":"1","visit":"C1D1","visitnum":"2.0","epoch":"TREATMENT"},{"seq":"15","testcd":"TEMP","test":"Temperature","cat":null,"orres":"36.8","orresu":"C","stresc":"36.8","stresn":"36.8","stresu":"C","stnrlo":null,"stnrhi":null,"nrind":null,"pos":null,"loc":null,"dtc":"2024-03-24","dy":"1","visit":"C1D1","visitnum":"2.0","epoch":"TREATMENT"},{"seq":"16","testcd":"WEIGHT","test":"Weight","cat":null,"orres":"68.4","orresu":"kg","stresc":"68.4","stresn":"68.4","stresu":"kg","stnrlo":null,"stnrhi":null,"nrind":null,"pos":null,"loc":null,"dtc":"2024-03-24","dy":"1","visit":"C1D1","visitnum":"2.0","epoch":"TREATMENT"},{"seq":"17","testcd":"BMI","test":"BMI","cat":null,"orres":"22.2","orresu":"kg/m2","stresc":"22.2","stresn":"22.2","stresu":"kg/m2","stnrlo":null,"stnrhi":null,"nrind":null,"pos":null,"loc":null,"dtc":"2024-04-05","dy":"13","visit":"C1D15","visitnum":"3.0","epoch":"TREATMENT"},{"seq":"18","testcd":"DIABP","test":"Diastolic Blood Pressure","cat":null,"orres":"68.6","orresu":"mmHg","stresc":"68.6","stresn":"68.6","stresu":"mmHg","stnrlo":null,"stnrhi":null,"nrind":null,"pos":null,"loc":null,"dtc":"2024-04-05","dy":"13","visit":"C1D15","visitnum":"3.0","epoch":"TREATMENT"},{"seq":"19","testcd":"HEIGHT","test":"Height","cat":null,"orres":"173.4","orresu":"cm","stresc":"173.4","stresn":"173.4","stresu":"cm","stnrlo":null,"stnrhi":null,"nrind":null,"pos":null,"loc":null,"dtc":"2024-04-05","dy":"13","visit":"C1D15","visitnum":"3.0","epoch":"TREATMENT"},{"seq":"20","testcd":"PULSE","test":"Pulse Rate","cat":null,"orres":"56.2","orresu":"beats/min","stresc":"56.2","stresn":"56.2","stresu":"beats/min","stnrlo":null,"stnrhi":null,"nrind":null,"pos":null,"loc":null,"dtc":"2024-04-05","dy":"13","visit":"C1D15","visitnum":"3.0","epoch":"TREATMENT"},{"seq":"21","testcd":"RESP","test":"Respiratory Rate","cat":null,"orres":"14.9","orresu":"breaths/min","stresc":"14.9","stresn":"14.9","stresu":"breaths/min","stnrlo":null,"stnrhi":null,"nrind":null,"pos":null,"loc":null,"dtc":"2024-04-05","dy":"13","visit":"C1D15","visitnum":"3.0","epoch":"TREATMENT"},{"seq":"22","testcd":"SYSBP","test":"Systolic Blood Pressure","cat":null,"orres":"143.2","orresu":"mmHg","stresc":"143.2","stresn":"143.2","stresu":"mmHg","stnrlo":null,"stnrhi":null,"nrind":null,"pos":null,"loc":null,"dtc":"2024-04-05","dy":"13","visit":"C1D15","visitnum":"3.0","epoch":"TREATMENT"},{"seq":"23","testcd":"TEMP","test":"Temperature","cat":null,"orres":"36.8","orresu":"C","stresc":"36.8","stresn":"36.8","stresu":"C","stnrlo":null,"stnrhi":null,"nrind":null,"pos":null,"loc":null,"dtc":"2024-04-05","dy":"13","visit":"C1D15","visitnum":"3.0","epoch":"TREATMENT"},{"seq":"24","testcd":"WEIGHT","test":"Weight","cat":null,"orres":"66.8","orresu":"kg","stresc":"66.8","stresn":"66.8","stresu":"kg","stnrlo":null,"stnrhi":null,"nrind":null,"pos":null,"loc":null,"dtc":"2024-04-05","dy":"13","visit":"C1D15","visitnum":"3.0","epoch":"TREATMENT"},{"seq":"25","testcd":"BMI","test":"BMI","cat":null,"orres":"22.4","orresu":"kg/m2","stresc":"22.4","stresn":"22.4","stresu":"kg/m2","stnrlo":null,"stnrhi":null,"nrind":null,"pos":null,"loc":null,"dtc":"2024-04-18","dy":"26","visit":"C2D1","visitnum":"4.0","epoch":"TREATMENT"},{"seq":"26","testcd":"DIABP","test":"Diastolic Blood Pressure","cat":null,"orres":"71.7","orresu":"mmHg","stresc":"71.7","stresn":"71.7","stresu":"mmHg","stnrlo":null,"stnrhi":null,"nrind":null,"pos":null,"loc":null,"dtc":"2024-04-18","dy":"26","visit":"C2D1","visitnum":"4.0","epoch":"TREATMENT"},{"seq":"27","testcd":"HEIGHT","test":"Height","cat":null,"orres":"173.6","orresu":"cm","stresc":"173.6","stresn":"173.6","stresu":"cm","stnrlo":null,"stnrhi":null,"nrind":null,"pos":null,"loc":null,"dtc":"2024-04-18","dy":"26","visit":"C2D1","visitnum":"4.0","epoch":"TREATMENT"},{"seq":"28","testcd":"PULSE","test":"Pulse Rate","cat":null,"orres":"60.0","orresu":"beats/min","stresc":"60.0","stresn":"60.0","stresu":"beats/min","stnrlo":null,"stnrhi":null,"nrind":null,"pos":null,"loc":null,"dtc":"2024-04-18","dy":"26","visit":"C2D1","visitnum":"4.0","epoch":"TREATMENT"},{"seq":"29","testcd":"RESP","test":"Respiratory Rate","cat":null,"orres":"14.4","orresu":"breaths/min","stresc":"14.4","stresn":"14.4","stresu":"breaths/min","stnrlo":null,"stnrhi":null,"nrind":null,"pos":null,"loc":null,"dtc":"2024-04-18","dy":"26","visit":"C2D1","visitnum":"4.0","epoch":"TREATMENT"},{"seq":"30","testcd":"SYSBP","test":"Systolic Blood Pressure","cat":null,"orres":"144.5","orresu":"mmHg","stresc":"144.5","stresn":"144.5","stresu":"mmHg","stnrlo":null,"stnrhi":null,"nrind":null,"pos":null,"loc":null,"dtc":"2024-04-18","dy":"26","visit":"C2D1","visitnum":"4.0","epoch":"TREATMENT"},{"seq":"31","testcd":"TEMP","test":"Temperature","cat":null,"orres":"36.7","orresu":"C","stresc":"36.7","stresn":"36.7","stresu":"C","stnrlo":null,"stnrhi":null,"nrind":null,"pos":null,"loc":null,"dtc":"2024-04-18","dy":"26","visit":"C2D1","visitnum":"4.0","epoch":"TREATMENT"},{"seq":"32","testcd":"WEIGHT","test":"Weight","cat":null,"orres":"67.4","orresu":"kg","stresc":"67.4","stresn":"67.4","stresu":"kg","stnrlo":null,"stnrhi":null,"nrind":null,"pos":null,"loc":null,"dtc":"2024-04-18","dy":"26","visit":"C2D1","visitnum":"4.0","epoch":"TREATMENT"},{"seq":"33","testcd":"BMI","test":"BMI","cat":null,"orres":"22.4","orresu":"kg/m2","stresc":"22.4","stresn":"22.4","stresu":"kg/m2","stnrlo":null,"stnrhi":null,"nrind":null,"pos":null,"loc":null,"dtc":"2024-05-22","dy":"60","visit":"C3D1","visitnum":"5.0","epoch":"TREATMENT"},{"seq":"34","testcd":"DIABP","test":"Diastolic Blood Pressure","cat":null,"orres":"70.2","orresu":"mmHg","stresc":"70.2","stresn":"70.2","stresu":"mmHg","stnrlo":null,"stnrhi":null,"nrind":null,"pos":null,"loc":null,"dtc":"2024-05-22","dy":"60","visit":"C3D1","visitnum":"5.0","epoch":"TREATMENT"},{"seq":"35","testcd":"HEIGHT","test":"Height","cat":null,"orres":"173.2","orresu":"cm","stresc":"173.2","stresn":"173.2","stresu":"cm","stnrlo":null,"stnrhi":null,"nrind":null,"pos":null,"loc":null,"dtc":"2024-05-22","dy":"60","visit":"C3D1","visitnum":"5.0","epoch":"TREATMENT"},{"seq":"36","testcd":"PULSE","test":"Pulse Rate","cat":null,"orres":"58.4","orresu":"beats/min","stresc":"58.4","stresn":"58.4","stresu":"beats/min","stnrlo":null,"stnrhi":null,"nrind":null,"pos":null,"loc":null,"dtc":"2024-05-22","dy":"60","visit":"C3D1","visitnum":"5.0","epoch":"TREATMENT"},{"seq":"37","testcd":"RESP","test":"Respiratory Rate","cat":null,"orres":"13.3","orresu":"breaths/min","stresc":"13.3","stresn":"13.3","stresu":"breaths/min","stnrlo":null,"stnrhi":null,"nrind":null,"pos":null,"loc":null,"dtc":"2024-05-22","dy":"60","visit":"C3D1","visitnum":"5.0","epoch":"TREATMENT"},{"seq":"38","testcd":"SYSBP","test":"Systolic Blood Pressure","cat":null,"orres":"143.9","orresu":"mmHg","stresc":"143.9","stresn":"143.9","stresu":"mmHg","stnrlo":null,"stnrhi":null,"nrind":null,"pos":null,"loc":null,"dtc":"2024-05-22","dy":"60","visit":"C3D1","visitnum":"5.0","epoch":"TREATMENT"},{"seq":"39","testcd":"TEMP","test":"Temperature","cat":null,"orres":"36.9","orresu":"C","stresc":"36.9","stresn":"36.9","stresu":"C","stnrlo":null,"stnrhi":null,"nrind":null,"pos":null,"loc":null,"dtc":"2024-05-22","dy":"60","visit":"C3D1","visitnum":"5.0","epoch":"TREATMENT"},{"seq":"40","testcd":"WEIGHT","test":"Weight","cat":null,"orres":"67.1","orresu":"kg","stresc":"67.1","stresn":"67.1","stresu":"kg","stnrlo":null,"stnrhi":null,"nrind":null,"pos":null,"loc":null,"dtc":"2024-05-22","dy":"60","visit":"C3D1","visitnum":"5.0","epoch":"TREATMENT"},{"seq":"41","testcd":"BMI","test":"BMI","cat":null,"orres":"22.6","orresu":"kg/m2","stresc":"22.6","stresn":"22.6","stresu":"kg/m2","stnrlo":null,"stnrhi":null,"nrind":null,"pos":null,"loc":null,"dtc":"2024-06-19","dy":"88","visit":"C4D1","visitnum":"6.0","epoch":"TREATMENT"},{"seq":"42","testcd":"DIABP","test":"Diastolic Blood Pressure","cat":null,"orres":"68.7","orresu":"mmHg","stresc":"68.7","stresn":"68.7","stresu":"mmHg","stnrlo":null,"stnrhi":null,"nrind":null,"pos":null,"loc":null,"dtc":"2024-06-19","dy":"88","visit":"C4D1","visitnum":"6.0","epoch":"TREATMENT"},{"seq":"43","testcd":"HEIGHT","test":"Height","cat":null,"orres":"173.5","orresu":"cm","stresc":"173.5","stresn":"173.5","stresu":"cm","stnrlo":null,"stnrhi":null,"nrind":null,"pos":null,"loc":null,"dtc":"2024-06-19","dy":"88","visit":"C4D1","visitnum":"6.0","epoch":"TREATMENT"},{"seq":"44","testcd":"PULSE","test":"Pulse Rate","cat":null,"orres":"59.7","orresu":"beats/min","stresc":"59.7","stresn":"59.7","stresu":"beats/min","stnrlo":null,"stnrhi":null,"nrind":null,"pos":null,"loc":null,"dtc":"2024-06-19","dy":"88","visit":"C4D1","visitnum":"6.0","epoch":"TREATMENT"},{"seq":"45","testcd":"RESP","test":"Respiratory Rate","cat":null,"orres":"14.0","orresu":"breaths/min","stresc":"14.0","stresn":"14.0","stresu":"breaths/min","stnrlo":null,"stnrhi":null,"nrind":null,"pos":null,"loc":null,"dtc":"2024-06-19","dy":"88","visit":"C4D1","visitnum":"6.0","epoch":"TREATMENT"},{"seq":"46","testcd":"SYSBP","test":"Systolic Blood Pressure","cat":null,"orres":"145.4","orresu":"mmHg","stresc":"145.4","stresn":"145.4","stresu":"mmHg","stnrlo":null,"stnrhi":null,"nrind":null,"pos":null,"loc":null,"dtc":"2024-06-19","dy":"88","visit":"C4D1","visitnum":"6.0","epoch":"TREATMENT"},{"seq":"47","testcd":"TEMP","test":"Temperature","cat":null,"orres":"36.8","orresu":"C","stresc":"36.8","stresn":"36.8","stresu":"C","stnrlo":null,"stnrhi":null,"nrind":null,"pos":null,"loc":null,"dtc":"2024-06-19","dy":"88","visit":"C4D1","visitnum":"6.0","epoch":"TREATMENT"},{"seq":"48","testcd":"WEIGHT","test":"Weight","cat":null,"orres":"68.1","orresu":"kg","stresc":"68.1","stresn":"68.1","stresu":"kg","stnrlo":null,"stnrhi":null,"nrind":null,"pos":null,"loc":null,"dtc":"2024-06-19","dy":"88","visit":"C4D1","visitnum":"6.0","epoch":"TREATMENT"},{"seq":"49","testcd":"BMI","test":"BMI","cat":null,"orres":"21.9","orresu":"kg/m2","stresc":"21.9","stresn":"21.9","stresu":"kg/m2","stnrlo":null,"stnrhi":null,"nrind":null,"pos":null,"loc":null,"dtc":"2024-08-17","dy":"147","visit":"C6D1","visitnum":"7.0","epoch":"TREATMENT"},{"seq":"50","testcd":"DIABP","test":"Diastolic Blood Pressure","cat":null,"orres":"68.9","orresu":"mmHg","stresc":"68.9","stresn":"68.9","stresu":"mmHg","stnrlo":null,"stnrhi":null,"nrind":null,"pos":null,"loc":null,"dtc":"2024-08-17","dy":"147","visit":"C6D1","visitnum":"7.0","epoch":"TREATMENT"},{"seq":"51","testcd":"HEIGHT","test":"Height","cat":null,"orres":"174.6","orresu":"cm","stresc":"174.6","stresn":"174.6","stresu":"cm","stnrlo":null,"stnrhi":null,"nrind":null,"pos":null,"loc":null,"dtc":"2024-08-17","dy":"147","visit":"C6D1","visitnum":"7.0","epoch":"TREATMENT"},{"seq":"52","testcd":"PULSE","test":"Pulse Rate","cat":null,"orres":"59.4","orresu":"beats/min","stresc":"59.4","stresn":"59.4","stresu":"beats/min","stnrlo":null,"stnrhi":null,"nrind":null,"pos":null,"loc":null,"dtc":"2024-08-17","dy":"147","visit":"C6D1","visitnum":"7.0","epoch":"TREATMENT"},{"seq":"53","testcd":"RESP","test":"Respiratory Rate","cat":null,"orres":"13.5","orresu":"breaths/min","stresc":"13.5","stresn":"13.5","stresu":"breaths/min","stnrlo":null,"stnrhi":null,"nrind":null,"pos":null,"loc":null,"dtc":"2024-08-17","dy":"147","visit":"C6D1","visitnum":"7.0","epoch":"TREATMENT"},{"seq":"54","testcd":"SYSBP","test":"Systolic Blood Pressure","cat":null,"orres":"144.8","orresu":"mmHg","stresc":"144.8","stresn":"144.8","stresu":"mmHg","stnrlo":null,"stnrhi":null,"nrind":null,"pos":null,"loc":null,"dtc":"2024-08-17","dy":"147","visit":"C6D1","visitnum":"7.0","epoch":"TREATMENT"},{"seq":"55","testcd":"TEMP","test":"Temperature","cat":null,"orres":"36.7","orresu":"C","stresc":"36.7","stresn":"36.7","stresu":"C","stnrlo":null,"stnrhi":null,"nrind":null,"pos":null,"loc":null,"dtc":"2024-08-17","dy":"147","visit":"C6D1","visitnum":"7.0","epoch":"TREATMENT"},{"seq":"56","testcd":"WEIGHT","test":"Weight","cat":null,"orres":"66.9","orresu":"kg","stresc":"66.9","stresn":"66.9","stresu":"kg","stnrlo":null,"stnrhi":null,"nrind":null,"pos":null,"loc":null,"dtc":"2024-08-17","dy":"147","visit":"C6D1","visitnum":"7.0","epoch":"TREATMENT"},{"seq":"57","testcd":"BMI","test":"BMI","cat":null,"orres":"21.8","orresu":"kg/m2","stresc":"21.8","stresn":"21.8","stresu":"kg/m2","stnrlo":null,"stnrhi":null,"nrind":null,"pos":null,"loc":null,"dtc":"2024-09-08","dy":"169","visit":"EOT","visitnum":"8.0","epoch":"TREATMENT"},{"seq":"58","testcd":"DIABP","test":"Diastolic Blood Pressure","cat":null,"orres":"66.8","orresu":"mmHg","stresc":"66.8","stresn":"66.8","stresu":"mmHg","stnrlo":null,"stnrhi":null,"nrind":null,"pos":null,"loc":null,"dtc":"2024-09-08","dy":"169","visit":"EOT","visitnum":"8.0","epoch":"TREATMENT"},{"seq":"59","testcd":"HEIGHT","test":"Height","cat":null,"orres":"174.4","orresu":"cm","stresc":"174.4","stresn":"174.4","stresu":"cm","stnrlo":null,"stnrhi":null,"nrind":null,"pos":null,"loc":null,"dtc":"2024-09-08","dy":"169","visit":"EOT","visitnum":"8.0","epoch":"TREATMENT"},{"seq":"60","testcd":"PULSE","test":"Pulse Rate","cat":null,"orres":"60.3","orresu":"beats/min","stresc":"60.3","stresn":"60.3","stresu":"beats/min","stnrlo":null,"stnrhi":null,"nrind":null,"pos":null,"loc":null,"dtc":"2024-09-08","dy":"169","visit":"EOT","visitnum":"8.0","epoch":"TREATMENT"},{"seq":"61","testcd":"RESP","test":"Respiratory Rate","cat":null,"orres":"12.3","orresu":"breaths/min","stresc":"12.3","stresn":"12.3","stresu":"breaths/min","stnrlo":null,"stnrhi":null,"nrind":null,"pos":null,"loc":null,"dtc":"2024-09-08","dy":"169","visit":"EOT","visitnum":"8.0","epoch":"TREATMENT"},{"seq":"62","testcd":"SYSBP","test":"Systolic Blood Pressure","cat":null,"orres":"140.6","orresu":"mmHg","stresc":"140.6","stresn":"140.6","stresu":"mmHg","stnrlo":null,"stnrhi":null,"nrind":null,"pos":null,"loc":null,"dtc":"2024-09-08","dy":"169","visit":"EOT","visitnum":"8.0","epoch":"TREATMENT"},{"seq":"63","testcd":"TEMP","test":"Temperature","cat":null,"orres":"36.7","orresu":"C","stresc":"36.7","stresn":"36.7","stresu":"C","stnrlo":null,"stnrhi":null,"nrind":null,"pos":null,"loc":null,"dtc":"2024-09-08","dy":"169","visit":"EOT","visitnum":"8.0","epoch":"TREATMENT"},{"seq":"64","testcd":"WEIGHT","test":"Weight","cat":null,"orres":"66.4","orresu":"kg","stresc":"66.4","stresn":"66.4","stresu":"kg","stnrlo":null,"stnrhi":null,"nrind":null,"pos":null,"loc":null,"dtc":"2024-09-08","dy":"169","visit":"EOT","visitnum":"8.0","epoch":"TREATMENT"},{"seq":"65","testcd":"BMI","test":"BMI","cat":null,"orres":"21.9","orresu":"kg/m2","stresc":"21.9","stresn":"21.9","stresu":"kg/m2","stnrlo":null,"stnrhi":null,"nrind":null,"pos":null,"loc":null,"dtc":"2024-10-04","dy":"195","visit":"FOLLOW-UP","visitnum":"9.0","epoch":"FOLLOW-UP"},{"seq":"66","testcd":"DIABP","test":"Diastolic Blood Pressure","cat":null,"orres":"68.6","orresu":"mmHg","stresc":"68.6","stresn":"68.6","stresu":"mmHg","stnrlo":null,"stnrhi":null,"nrind":null,"pos":null,"loc":null,"dtc":"2024-10-04","dy":"195","visit":"FOLLOW-UP","visitnum":"9.0","epoch":"FOLLOW-UP"},{"seq":"67","testcd":"HEIGHT","test":"Height","cat":null,"orres":"173.9","orresu":"cm","stresc":"173.9","stresn":"173.9","stresu":"cm","stnrlo":null,"stnrhi":null,"nrind":null,"pos":null,"loc":null,"dtc":"2024-10-04","dy":"195","visit":"FOLLOW-UP","visitnum":"9.0","epoch":"FOLLOW-UP"},{"seq":"68","testcd":"PULSE","test":"Pulse Rate","cat":null,"orres":"57.4","orresu":"beats/min","stresc":"57.4","stresn":"57.4","stresu":"beats/min","stnrlo":null,"stnrhi":null,"nrind":null,"pos":null,"loc":null,"dtc":"2024-10-04","dy":"195","visit":"FOLLOW-UP","visitnum":"9.0","epoch":"FOLLOW-UP"},{"seq":"69","testcd":"RESP","test":"Respiratory Rate","cat":null,"orres":"12.0","orresu":"breaths/min","stresc":"12.0","stresn":"12.0","stresu":"breaths/min","stnrlo":null,"stnrhi":null,"nrind":null,"pos":null,"loc":null,"dtc":"2024-10-04","dy":"195","visit":"FOLLOW-UP","visitnum":"9.0","epoch":"FOLLOW-UP"},{"seq":"70","testcd":"SYSBP","test":"Systolic Blood Pressure","cat":null,"orres":"143.3","orresu":"mmHg","stresc":"143.3","stresn":"143.3","stresu":"mmHg","stnrlo":null,"stnrhi":null,"nrind":null,"pos":null,"loc":null,"dtc":"2024-10-04","dy":"195","visit":"FOLLOW-UP","visitnum":"9.0","epoch":"FOLLOW-UP"},{"seq":"71","testcd":"TEMP","test":"Temperature","cat":null,"orres":"36.8","orresu":"C","stresc":"36.8","stresn":"36.8","stresu":"C","stnrlo":null,"stnrhi":null,"nrind":null,"pos":null,"loc":null,"dtc":"2024-10-04","dy":"195","visit":"FOLLOW-UP","visitnum":"9.0","epoch":"FOLLOW-UP"},{"seq":"72","testcd":"WEIGHT","test":"Weight","cat":null,"orres":"66.2","orresu":"kg","stresc":"66.2","stresn":"66.2","stresu":"kg","stnrlo":null,"stnrhi":null,"nrind":null,"pos":null,"loc":null,"dtc":"2024-10-04","dy":"195","visit":"FOLLOW-UP","visitnum":"9.0","epoch":"FOLLOW-UP"}]},"section_10_questionnaires_and_scores":{"questionnaires":[],"findings_about":[{"seq":"1","testcd":"LDIAM","test":"Longest Diameter","cat":"TUMOR ASSESSMENT","orres":"20.3","stresc":"20.3","stresn":"20.3","dtc":"2024-03-16","visit":"SCREENING"},{"seq":"2","testcd":"SAXIS","test":"Short Axis","cat":"TUMOR ASSESSMENT","orres":"9.5","stresc":"9.5","stresn":"9.5","dtc":"2024-03-16","visit":"SCREENING"},{"seq":"3","testcd":"LDIAM","test":"Longest Diameter","cat":"TUMOR ASSESSMENT","orres":"49.4","stresc":"49.4","stresn":"49.4","dtc":"2024-03-16","visit":"SCREENING"},{"seq":"4","testcd":"SAXIS","test":"Short Axis","cat":"TUMOR ASSESSMENT","orres":"9.7","stresc":"9.7","stresn":"9.7","dtc":"2024-03-16","visit":"SCREENING"},{"seq":"5","testcd":"LDIAM","test":"Longest Diameter","cat":"TUMOR ASSESSMENT","orres":"55.7","stresc":"55.7","stresn":"55.7","dtc":"2024-03-16","visit":"SCREENING"},{"seq":"6","testcd":"SAXIS","test":"Short Axis","cat":"TUMOR ASSESSMENT","orres":"8.7","stresc":"8.7","stresn":"8.7","dtc":"2024-03-16","visit":"SCREENING"},{"seq":"7","testcd":"LDIAM","test":"Longest Diameter","cat":"TUMOR ASSESSMENT","orres":"18.3","stresc":"18.3","stresn":"18.3","dtc":"2024-03-24","visit":"C1D1"},{"seq":"8","testcd":"SAXIS","test":"Short Axis","cat":"TUMOR ASSESSMENT","orres":"10.6","stresc":"10.6","stresn":"10.6","dtc":"2024-03-24","visit":"C1D1"},{"seq":"9","testcd":"LDIAM","test":"Longest Diameter","cat":"TUMOR ASSESSMENT","orres":"52.4","stresc":"52.4","stresn":"52.4","dtc":"2024-03-24","visit":"C1D1"},{"seq":"10","testcd":"SAXIS","test":"Short Axis","cat":"TUMOR ASSESSMENT","orres":"10.3","stresc":"10.3","stresn":"10.3","dtc":"2024-03-24","visit":"C1D1"},{"seq":"11","testcd":"LDIAM","test":"Longest Diameter","cat":"TUMOR ASSESSMENT","orres":"57.2","stresc":"57.2","stresn":"57.2","dtc":"2024-03-24","visit":"C1D1"},{"seq":"12","testcd":"SAXIS","test":"Short Axis","cat":"TUMOR ASSESSMENT","orres":"8.3","stresc":"8.3","stresn":"8.3","dtc":"2024-03-24","visit":"C1D1"},{"seq":"13","testcd":"LDIAM","test":"Longest Diameter","cat":"TUMOR ASSESSMENT","orres":"19.3","stresc":"19.3","stresn":"19.3","dtc":"2024-04-07","visit":"C1D15"},{"seq":"14","testcd":"SAXIS","test":"Short Axis","cat":"TUMOR ASSESSMENT","orres":"10.8","stresc":"10.8","stresn":"10.8","dtc":"2024-04-07","visit":"C1D15"},{"seq":"15","testcd":"LDIAM","test":"Longest Diameter","cat":"TUMOR ASSESSMENT","orres":"52.3","stresc":"52.3","stresn":"52.3","dtc":"2024-04-07","visit":"C1D15"},{"seq":"16","testcd":"SAXIS","test":"Short Axis","cat":"TUMOR ASSESSMENT","orres":"9.5","stresc":"9.5","stresn":"9.5","dtc":"2024-04-07","visit":"C1D15"},{"seq":"17","testcd":"LDIAM","test":"Longest Diameter","cat":"TUMOR ASSESSMENT","orres":"57.7","stresc":"57.7","stresn":"57.7","dtc":"2024-04-07","visit":"C1D15"},{"seq":"18","testcd":"SAXIS","test":"Short Axis","cat":"TUMOR ASSESSMENT","orres":"8.9","stresc":"8.9","stresn":"8.9","dtc":"2024-04-07","visit":"C1D15"},{"seq":"19","testcd":"LDIAM","test":"Longest Diameter","cat":"TUMOR ASSESSMENT","orres":"22.1","stresc":"22.1","stresn":"22.1","dtc":"2024-04-21","visit":"C2D1"},{"seq":"20","testcd":"SAXIS","test":"Short Axis","cat":"TUMOR ASSESSMENT","orres":"10.7","stresc":"10.7","stresn":"10.7","dtc":"2024-04-21","visit":"C2D1"},{"seq":"21","testcd":"LDIAM","test":"Longest Diameter","cat":"TUMOR ASSESSMENT","orres":"56.4","stresc":"56.4","stresn":"56.4","dtc":"2024-04-21","visit":"C2D1"},{"seq":"22","testcd":"SAXIS","test":"Short Axis","cat":"TUMOR ASSESSMENT","orres":"10.2","stresc":"10.2","stresn":"10.2","dtc":"2024-04-21","visit":"C2D1"},{"seq":"23","testcd":"LDIAM","test":"Longest Diameter","cat":"TUMOR ASSESSMENT","orres":"58.1","stresc":"58.1","stresn":"58.1","dtc":"2024-04-21","visit":"C2D1"},{"seq":"24","testcd":"SAXIS","test":"Short Axis","cat":"TUMOR ASSESSMENT","orres":"8.5","stresc":"8.5","stresn":"8.5","dtc":"2024-04-21","visit":"C2D1"},{"seq":"25","testcd":"LDIAM","test":"Longest Diameter","cat":"TUMOR ASSESSMENT","orres":"22.7","stresc":"22.7","stresn":"22.7","dtc":"2024-05-19","visit":"C3D1"},{"seq":"26","testcd":"SAXIS","test":"Short Axis","cat":"TUMOR ASSESSMENT","orres":"10.5","stresc":"10.5","stresn":"10.5","dtc":"2024-05-19","visit":"C3D1"},{"seq":"27","testcd":"LDIAM","test":"Longest Diameter","cat":"TUMOR ASSESSMENT","orres":"55.5","stresc":"55.5","stresn":"55.5","dtc":"2024-05-19","visit":"C3D1"},{"seq":"28","testcd":"SAXIS","test":"Short Axis","cat":"TUMOR ASSESSMENT","orres":"11.2","stresc":"11.2","stresn":"11.2","dtc":"2024-05-19","visit":"C3D1"},{"seq":"29","testcd":"LDIAM","test":"Longest Diameter","cat":"TUMOR ASSESSMENT","orres":"61.0","stresc":"61.0","stresn":"61.0","dtc":"2024-05-19","visit":"C3D1"},{"seq":"30","testcd":"SAXIS","test":"Short Axis","cat":"TUMOR ASSESSMENT","orres":"9.7","stresc":"9.7","stresn":"9.7","dtc":"2024-05-19","visit":"C3D1"},{"seq":"31","testcd":"LDIAM","test":"Longest Diameter","cat":"TUMOR ASSESSMENT","orres":"23.3","stresc":"23.3","stresn":"23.3","dtc":"2024-06-16","visit":"C4D1"},{"seq":"32","testcd":"SAXIS","test":"Short Axis","cat":"TUMOR ASSESSMENT","orres":"11.3","stresc":"11.3","stresn":"11.3","dtc":"2024-06-16","visit":"C4D1"},{"seq":"33","testcd":"LDIAM","test":"Longest Diameter","cat":"TUMOR ASSESSMENT","orres":"55.2","stresc":"55.2","stresn":"55.2","dtc":"2024-06-16","visit":"C4D1"},{"seq":"34","testcd":"SAXIS","test":"Short Axis","cat":"TUMOR ASSESSMENT","orres":"11.8","stresc":"11.8","stresn":"11.8","dtc":"2024-06-16","visit":"C4D1"},{"seq":"35","testcd":"LDIAM","test":"Longest Diameter","cat":"TUMOR ASSESSMENT","orres":"63.5","stresc":"63.5","stresn":"63.5","dtc":"2024-06-16","visit":"C4D1"},{"seq":"36","testcd":"SAXIS","test":"Short Axis","cat":"TUMOR ASSESSMENT","orres":"9.7","stresc":"9.7","stresn":"9.7","dtc":"2024-06-16","visit":"C4D1"},{"seq":"37","testcd":"LDIAM","test":"Longest Diameter","cat":"TUMOR ASSESSMENT","orres":"23.4","stresc":"23.4","stresn":"23.4","dtc":"2024-08-11","visit":"C6D1"},{"seq":"38","testcd":"SAXIS","test":"Short Axis","cat":"TUMOR ASSESSMENT","orres":"11.1","stresc":"11.1","stresn":"11.1","dtc":"2024-08-11","visit":"C6D1"},{"seq":"39","testcd":"LDIAM","test":"Longest Diameter","cat":"TUMOR ASSESSMENT","orres":"58.7","stresc":"58.7","stresn":"58.7","dtc":"2024-08-11","visit":"C6D1"},{"seq":"40","testcd":"SAXIS","test":"Short Axis","cat":"TUMOR ASSESSMENT","orres":"11.6","stresc":"11.6","stresn":"11.6","dtc":"2024-08-11","visit":"C6D1"},{"seq":"41","testcd":"LDIAM","test":"Longest Diameter","cat":"TUMOR ASSESSMENT","orres":"64.9","stresc":"64.9","stresn":"64.9","dtc":"2024-08-11","visit":"C6D1"},{"seq":"42","testcd":"SAXIS","test":"Short Axis","cat":"TUMOR ASSESSMENT","orres":"10.2","stresc":"10.2","stresn":"10.2","dtc":"2024-08-11","visit":"C6D1"},{"seq":"43","testcd":"LDIAM","test":"Longest Diameter","cat":"TUMOR ASSESSMENT","orres":"24.5","stresc":"24.5","stresn":"24.5","dtc":"2024-09-08","visit":"EOT"},{"seq":"44","testcd":"SAXIS","test":"Short Axis","cat":"TUMOR ASSESSMENT","orres":"11.3","stresc":"11.3","stresn":"11.3","dtc":"2024-09-08","visit":"EOT"},{"seq":"45","testcd":"LDIAM","test":"Longest Diameter","cat":"TUMOR ASSESSMENT","orres":"58.5","stresc":"58.5","stresn":"58.5","dtc":"2024-09-08","visit":"EOT"},{"seq":"46","testcd":"SAXIS","test":"Short Axis","cat":"TUMOR ASSESSMENT","orres":"12.1","stresc":"12.1","stresn":"12.1","dtc":"2024-09-08","visit":"EOT"},{"seq":"47","testcd":"LDIAM","test":"Longest Diameter","cat":"TUMOR ASSESSMENT","orres":"66.8","stresc":"66.8","stresn":"66.8","dtc":"2024-09-08","visit":"EOT"},{"seq":"48","testcd":"SAXIS","test":"Short Axis","cat":"TUMOR ASSESSMENT","orres":"9.8","stresc":"9.8","stresn":"9.8","dtc":"2024-09-08","visit":"EOT"}]},"section_11_protocol_deviations":{"deviations":[{"seq":"1","term":"Visit C1D15 occurred 2 days early (Day 13 vs planned Day 15)","decod":"VISIT OCCURRED OUTSIDE VISIT WINDOW","cat":"MINOR","scat":"VISIT WINDOW","start_dtc":"2024-04-05","end_dtc":null,"visit":null},{"seq":"2","term":"Visit C2D1 occurred 3 days early (Day 26 vs planned Day 29)","decod":"VISIT OCCURRED OUTSIDE VISIT WINDOW","cat":"MINOR","scat":"VISIT WINDOW","start_dtc":"2024-04-18","end_dtc":null,"visit":null},{"seq":"3","term":"Missed TEPOTINIB dose on 2024-05-11","decod":"MISSED DOSE","cat":"MINOR","scat":"DOSING","start_dtc":"2024-05-11","end_dtc":null,"visit":null},{"seq":"4","term":"Missed TEPOTINIB dose on 2024-05-12","decod":"MISSED DOSE","cat":"MINOR","scat":"DOSING","start_dtc":"2024-05-12","end_dtc":null,"visit":null},{"seq":"5","term":"Visit EOT occurred 0 days late (Day 169 vs planned Day 169)","decod":"VISIT OCCURRED OUTSIDE VISIT WINDOW","cat":"MINOR","scat":"VISIT WINDOW","start_dtc":"2024-09-08","end_dtc":null,"visit":null},{"seq":"6","term":"Visit FOLLOW-UP occurred 4 days early (Day 195 vs planned Day 199)","decod":"VISIT OCCURRED OUTSIDE VISIT WINDOW","cat":"MINOR","scat":"VISIT WINDOW","start_dtc":"2024-10-04","end_dtc":null,"visit":null}],"total":6},"section_12_disposition":{"completion_status":"COMPLETED","disposition_records":[{"seq":"1","term":"INFORMED CONSENT OBTAINED","decod":"INFORMED CONSENT OBTAINED","cat":"PROTOCOL MILESTONE","scat":null,"dtc":"2024-03-16","dy":null,"visit":null,"epoch":"SCREENING"},{"seq":"2","term":"RANDOMIZED","decod":"RANDOMIZED","cat":"PROTOCOL MILESTONE","scat":null,"dtc":"2024-03-24","dy":null,"visit":null,"epoch":"TREATMENT"},{"seq":"3","term":"COMPLETED","decod":"COMPLETED","cat":"DISPOSITION EVENT","scat":null,"dtc":"2024-11-04","dy":null,"visit":null,"epoch":"FOLLOW-UP"}],"death":null},"section_13_hospitalizations":{"items":[],"total":0},"section_14_substance_use":{"items":[{"seq":"1","substance":"ALCOHOL","decod":"ALCOHOL","cat":"ALCOHOL","scat":null,"usage":"Y","dose":null,"dosu":null,"freq":null,"start_dtc":"1998-03-23","end_dtc":"2005-03-21"},{"seq":"2","substance":"COFFEE","decod":"COFFEE","cat":"CAFFEINE","scat":null,"usage":"N","dose":null,"dosu":null,"freq":null,"start_dtc":null,"end_dtc":null},{"seq":"3","substance":"CIGARETTES","decod":"CIGARETTES","cat":"TOBACCO","scat":"CIGARETTES","usage":"Y","dose":null,"dosu":null,"freq":null,"start_dtc":"2010-03-20","end_dtc":"2013-03-19"}],"total":3},"section_15_subject_status":{"items":[{"seq":"1","testcd":"SURVSTAT","test":"Survival Status","orres":"ALIVE","stresc":"ALIVE","dtc":"2024-10-08","visit":"FOLLOW-UP","epoch":"FOLLOW-UP"}],"total":1}}