{"subject_id":"VISION-NSCLC-SITE001-0454","study_id":"VISION-NSCLC","generated_at":"2026-06-09T04:14:07.918780+00:00","sdtmig_version":"3.4","flags":{"has_serious_ae":true,"has_fatal_ae":false,"has_protocol_deviation":true,"n_protocol_deviations":15,"n_adverse_events":10,"n_concomitant_meds":7,"max_ae_severity":"SEVERE","screen_failure":false,"discontinued_early":false,"discontinuation_reason":null,"death":false,"exposure_days":80},"timeline":[{"dtc":"2018-03-23","dy":"-2198","event":"CM START: OMEPRAZOLE","domain":"CM","category":"concomitant_med"},{"dtc":"2023-03-22","dy":"-373","event":"CM START: METFORMIN","domain":"CM","category":"concomitant_med"},{"dtc":"2024-02-08","dy":"-50","event":"VISIT: SCREENING","domain":"SV","category":"visit"},{"dtc":"2024-03-21","dy":"-8","event":"INFORMED CONSENT OBTAINED","domain":"DS","category":"milestone"},{"dtc":"2024-03-29","dy":"1","event":"RANDOMIZED","domain":"DS","category":"milestone"},{"dtc":"2024-03-29","dy":"1","event":"FIRST DOSE: TEPOTINIB","domain":"EX","category":"exposure"},{"dtc":"2024-03-29","dy":"1","event":"VISIT: C1D1","domain":"SV","category":"visit"},{"dtc":"2024-04-06","dy":"9","event":"AE: Oedema peripheral (MODERATE)","domain":"AE","category":"adverse_event"},{"dtc":"2024-04-06","dy":"9","event":"CM START: FUROSEMIDE","domain":"CM","category":"concomitant_med"},{"dtc":"2024-04-11","dy":"14","event":"VISIT: C1D15","domain":"SV","category":"visit"},{"dtc":"2024-04-12","dy":"15","event":"AE: Oedema peripheral (SEVERE) [SERIOUS]","domain":"AE","category":"adverse_event"},{"dtc":"2024-04-12","dy":"15","event":"CM START: FUROSEMIDE","domain":"CM","category":"concomitant_med"},{"dtc":"2024-04-15","dy":"18","event":"DEVIATION: MISSED DOSE","domain":"DV","category":"deviation"},{"dtc":"2024-04-17","dy":"20","event":"DEVIATION: MISSED DOSE","domain":"DV","category":"deviation"},{"dtc":"2024-04-18","dy":"21","event":"DEVIATION: MISSED DOSE","domain":"DV","category":"deviation"},{"dtc":"2024-04-25","dy":"28","event":"VISIT: C2D1","domain":"SV","category":"visit"},{"dtc":"2024-04-29","dy":"32","event":"DEVIATION: MISSED DOSE","domain":"DV","category":"deviation"},{"dtc":"2024-04-30","dy":"33","event":"AE: Nausea (SEVERE) [SERIOUS]","domain":"AE","category":"adverse_event"},{"dtc":"2024-05-02","dy":"35","event":"DEVIATION: MISSED DOSE","domain":"DV","category":"deviation"},{"dtc":"2024-05-10","dy":"43","event":"DEVIATION: MISSED DOSE","domain":"DV","category":"deviation"},{"dtc":"2024-05-14","dy":"47","event":"DEVIATION: MISSED DOSE","domain":"DV","category":"deviation"},{"dtc":"2024-05-16","dy":"49","event":"DEVIATION: MISSED DOSE","domain":"DV","category":"deviation"},{"dtc":"2024-05-19","dy":"52","event":"DEVIATION: MISSED DOSE","domain":"DV","category":"deviation"},{"dtc":"2024-05-25","dy":"58","event":"DEVIATION: MISSED DOSE","domain":"DV","category":"deviation"},{"dtc":"2024-05-27","dy":"60","event":"VISIT: C3D1","domain":"SV","category":"visit"},{"dtc":"2024-06-04","dy":"68","event":"AE: Dyspnoea (MILD)","domain":"AE","category":"adverse_event"},{"dtc":"2024-06-07","dy":"71","event":"DEVIATION: MISSED DOSE","domain":"DV","category":"deviation"},{"dtc":"2024-06-08","dy":"72","event":"AE: Oedema peripheral (MILD)","domain":"AE","category":"adverse_event"},{"dtc":"2024-06-08","dy":"72","event":"CM START: FUROSEMIDE","domain":"CM","category":"concomitant_med"},{"dtc":"2024-06-13","dy":"77","event":"DEVIATION: MISSED DOSE","domain":"DV","category":"deviation"},{"dtc":"2024-06-17","dy":"81","event":"LAST DOSE: TEPOTINIB","domain":"EX","category":"exposure"},{"dtc":"2024-06-17","dy":"81","event":"DEVIATION: MISSED DOSE","domain":"DV","category":"deviation"},{"dtc":"2024-06-19","dy":"83","event":"AE: Oedema peripheral (SEVERE) [SERIOUS]","domain":"AE","category":"adverse_event"},{"dtc":"2024-06-19","dy":"83","event":"CM START: FUROSEMIDE","domain":"CM","category":"concomitant_med"},{"dtc":"2024-06-21","dy":"85","event":"VISIT: C4D1","domain":"SV","category":"visit"},{"dtc":"2024-06-28","dy":"92","event":"AE: Vomiting (MILD)","domain":"AE","category":"adverse_event"},{"dtc":"2024-07-28","dy":"122","event":"AE: Oedema peripheral (MODERATE)","domain":"AE","category":"adverse_event"},{"dtc":"2024-07-28","dy":"122","event":"CM START: FUROSEMIDE","domain":"CM","category":"concomitant_med"},{"dtc":"2024-08-19","dy":"144","event":"AE: Pneumonia (MODERATE)","domain":"AE","category":"adverse_event"},{"dtc":"2024-08-22","dy":"147","event":"DEVIATION: VISIT OCCURRED OUTSIDE VISIT WINDOW","domain":"DV","category":"deviation"},{"dtc":"2024-08-22","dy":"147","event":"VISIT: C6D1","domain":"SV","category":"visit"},{"dtc":"2024-08-26","dy":"151","event":"AE: Alanine aminotransferase increased (MILD)","domain":"AE","category":"adverse_event"},{"dtc":"2024-09-17","dy":"173","event":"VISIT: EOT","domain":"SV","category":"visit"},{"dtc":"2024-10-07","dy":"193","event":"DEVIATION: VISIT OCCURRED OUTSIDE VISIT WINDOW","domain":"DV","category":"deviation"},{"dtc":"2024-10-07","dy":"193","event":"VISIT: FOLLOW-UP","domain":"SV","category":"visit"},{"dtc":"2024-11-09","dy":"226","event":"COMPLETED","domain":"DS","category":"milestone"}],"section_1_demographics":{"usubjid":"VISION-NSCLC-SITE001-0454","subjid":"0454","siteid":"SITE001","age":"46","ageu":"YEARS","sex":"M","race":"OTHER","ethnicity":"HISPANIC OR LATINO","country":"USA","arm":"Tepotinib 500mg QD","armcd":"TEP500","actarm":"Tepotinib 500mg QD","actarmcd":"TEP500","randomization_date":null,"informed_consent_date":"2024-03-21","reference_start_date":"2024-03-29","reference_end_date":"2024-11-09","screen_failure":false,"death_flag":null,"death_date":null,"subject_characteristics":[{"testcd":"ALCUSE","test":"Alcohol Use","orres":"NON-DRINKER","stresc":"NON-DRINKER","visit":null,"dtc":"2024-03-21"},{"testcd":"BMI","test":"Body Mass Index","orres":"20.4","stresc":"20.4","visit":null,"dtc":"2024-03-21"},{"testcd":"DURDIS","test":"Duration of Disease","orres":"73 months","stresc":"73","visit":null,"dtc":"2024-03-21"},{"testcd":"TOBUSE","test":"Tobacco Use","orres":"NEVER SMOKED","stresc":"NEVER SMOKED","visit":null,"dtc":"2024-03-21"}]},"section_2_medical_history":{"items":[{"seq":"1","term":"DEPRESSION","decod":"DEPRESSION","cat":"PSYCHIATRIC","scat":null,"presp":null,"occur":null,"status":null,"onset_dtc":"2018-03-23","end_dtc":"2022-03-02","visit":null},{"seq":"2","term":"DIABETES MELLITUS TYPE 2","decod":"DIABETES MELLITUS TYPE 2","cat":"ENDOCRINE","scat":null,"presp":null,"occur":null,"status":null,"onset_dtc":"2023-03-22","end_dtc":null,"visit":null},{"seq":"3","term":"GASTROESOPHAGEAL REFLUX DISEASE","decod":"GASTROESOPHAGEAL REFLUX DISEASE","cat":"GASTROINTESTINAL","scat":null,"presp":null,"occur":null,"status":null,"onset_dtc":"2018-03-23","end_dtc":null,"visit":null}]},"section_3_inclusion_exclusion":{"criteria":[]},"section_4_trial_participation":{"visits":[{"visitnum":"1.0","visit":"SCREENING","start_dtc":"2024-02-08","end_dtc":"2024-02-08","updes":null},{"visitnum":"2.0","visit":"C1D1","start_dtc":"2024-03-29","end_dtc":"2024-03-29","updes":null},{"visitnum":"3.0","visit":"C1D15","start_dtc":"2024-04-11","end_dtc":"2024-04-11","updes":null},{"visitnum":"4.0","visit":"C2D1","start_dtc":"2024-04-25","end_dtc":"2024-04-25","updes":null},{"visitnum":"5.0","visit":"C3D1","start_dtc":"2024-05-27","end_dtc":"2024-05-27","updes":null},{"visitnum":"6.0","visit":"C4D1","start_dtc":"2024-06-21","end_dtc":"2024-06-21","updes":null},{"visitnum":"7.0","visit":"C6D1","start_dtc":"2024-08-22","end_dtc":"2024-08-22","updes":null},{"visitnum":"8.0","visit":"EOT","start_dtc":"2024-09-17","end_dtc":"2024-09-17","updes":null},{"visitnum":"9.0","visit":"FOLLOW-UP","start_dtc":"2024-10-07","end_dtc":"2024-10-07","updes":null}],"epochs":[{"seq":"1","etcd":"SCRN","element":"Screening","start_dtc":"2024-03-01","end_dtc":"2024-03-29","updes":null},{"seq":"2","etcd":"TRT","element":"Treatment","start_dtc":"2024-03-29","end_dtc":"2024-09-13","updes":null},{"seq":"3","etcd":"FU","element":"Follow-up","start_dtc":"2024-09-13","end_dtc":"2024-10-12","updes":null}],"visit_count":9},"section_5_concomitant_medications":{"medications":[{"seq":"1","trt":"OMEPRAZOLE","decod":"OMEPRAZOLE","cat":"PRIOR","dose":"20","doseu":null,"dosef":"QD","route":"ORAL","indication":"GASTROESOPHAGEAL REFLUX DISEASE","start_dtc":"2018-03-23","end_dtc":"2024-11-09","ongoing":null,"visit":null},{"seq":"2","trt":"METFORMIN","decod":"METFORMIN","cat":"PRIOR","dose":"1000","doseu":null,"dosef":"BID","route":"ORAL","indication":"DIABETES MELLITUS TYPE 2","start_dtc":"2023-03-22","end_dtc":"2024-11-09","ongoing":null,"visit":null},{"seq":"3","trt":"FUROSEMIDE","decod":"FUROSEMIDE","cat":"CONCOMITANT","dose":"20.0","doseu":null,"dosef":"QD","route":"ORAL","indication":"OEDEMA PERIPHERAL","start_dtc":"2024-04-06","end_dtc":"2024-04-14","ongoing":null,"visit":null},{"seq":"4","trt":"FUROSEMIDE","decod":"FUROSEMIDE","cat":"CONCOMITANT","dose":"20.0","doseu":null,"dosef":"QD","route":"ORAL","indication":"OEDEMA PERIPHERAL","start_dtc":"2024-04-12","end_dtc":"2024-05-04","ongoing":null,"visit":null},{"seq":"5","trt":"FUROSEMIDE","decod":"FUROSEMIDE","cat":"CONCOMITANT","dose":"20.0","doseu":null,"dosef":"QD","route":"ORAL","indication":"OEDEMA PERIPHERAL","start_dtc":"2024-06-08","end_dtc":"2024-06-14","ongoing":null,"visit":null},{"seq":"6","trt":"FUROSEMIDE","decod":"FUROSEMIDE","cat":"CONCOMITANT","dose":"20.0","doseu":null,"dosef":"QD","route":"ORAL","indication":"OEDEMA PERIPHERAL","start_dtc":"2024-06-19","end_dtc":"2024-07-06","ongoing":null,"visit":null},{"seq":"7","trt":"FUROSEMIDE","decod":"FUROSEMIDE","cat":"CONCOMITANT","dose":"20.0","doseu":null,"dosef":"QD","route":"ORAL","indication":"OEDEMA PERIPHERAL","start_dtc":"2024-07-28","end_dtc":"2024-08-12","ongoing":null,"visit":null}]},"section_6_exposure":{"exposure_as_administered":[{"seq":"1","trt":"TEPOTINIB","dose":"500.0","doseu":null,"dosef":"QD","route":"ORAL","lot":null,"start_dtc":"2024-03-29","end_dtc":"2024-04-11","start_dy":"1","end_dy":"14","epoch":"TREATMENT","visit":null},{"seq":"2","trt":"TEPOTINIB","dose":"250.0","doseu":null,"dosef":"QD","route":"ORAL","lot":null,"start_dtc":"2024-04-12","end_dtc":"2024-06-17","start_dy":"15","end_dy":"81","epoch":"TREATMENT","visit":null}],"exposure_as_collected":[{"seq":"1","trt":"TEPOTINIB","dose":"500.0","doseu":null,"dosef":"QD","route":"ORAL","start_dtc":"2024-03-29","end_dtc":"2024-03-29","visit":"C1D1"},{"seq":"2","trt":"TEPOTINIB","dose":"500.0","doseu":null,"dosef":"QD","route":"ORAL","start_dtc":"2024-03-30","end_dtc":"2024-03-30","visit":"C1D1"},{"seq":"3","trt":"TEPOTINIB","dose":"500.0","doseu":null,"dosef":"QD","route":"ORAL","start_dtc":"2024-03-31","end_dtc":"2024-03-31","visit":"C1D1"},{"seq":"4","trt":"TEPOTINIB","dose":"500.0","doseu":null,"dosef":"QD","route":"ORAL","start_dtc":"2024-04-01","end_dtc":"2024-04-01","visit":"C1D1"},{"seq":"5","trt":"TEPOTINIB","dose":"500.0","doseu":null,"dosef":"QD","route":"ORAL","start_dtc":"2024-04-02","end_dtc":"2024-04-02","visit":null},{"seq":"6","trt":"TEPOTINIB","dose":"500.0","doseu":null,"dosef":"QD","route":"ORAL","start_dtc":"2024-04-03","end_dtc":"2024-04-03","visit":null},{"seq":"7","trt":"TEPOTINIB","dose":"500.0","doseu":null,"dosef":"QD","route":"ORAL","start_dtc":"2024-04-04","end_dtc":"2024-04-04","visit":null},{"seq":"8","trt":"TEPOTINIB","dose":"500.0","doseu":null,"dosef":"QD","route":"ORAL","start_dtc":"2024-04-05","end_dtc":"2024-04-05","visit":null},{"seq":"9","trt":"TEPOTINIB","dose":"500.0","doseu":null,"dosef":"QD","route":"ORAL","start_dtc":"2024-04-06","end_dtc":"2024-04-06","visit":null},{"seq":"10","trt":"TEPOTINIB","dose":"500.0","doseu":null,"dosef":"QD","route":"ORAL","start_dtc":"2024-04-07","end_dtc":"2024-04-07","visit":null},{"seq":"11","trt":"TEPOTINIB","dose":"500.0","doseu":null,"dosef":"QD","route":"ORAL","start_dtc":"2024-04-08","end_dtc":"2024-04-08","visit":null},{"seq":"12","trt":"TEPOTINIB","dose":"500.0","doseu":null,"dosef":"QD","route":"ORAL","start_dtc":"2024-04-09","end_dtc":"2024-04-09","visit":"C1D15"},{"seq":"13","trt":"TEPOTINIB","dose":"500.0","doseu":null,"dosef":"QD","route":"ORAL","start_dtc":"2024-04-10","end_dtc":"2024-04-10","visit":"C1D15"},{"seq":"14","trt":"TEPOTINIB","dose":"500.0","doseu":null,"dosef":"QD","route":"ORAL","start_dtc":"2024-04-11","end_dtc":"2024-04-11","visit":"C1D15"},{"seq":"15","trt":"TEPOTINIB","dose":"250.0","doseu":null,"dosef":"QD","route":"ORAL","start_dtc":"2024-04-12","end_dtc":"2024-04-12","visit":"C1D15"},{"seq":"16","trt":"TEPOTINIB","dose":"250.0","doseu":null,"dosef":"QD","route":"ORAL","start_dtc":"2024-04-13","end_dtc":"2024-04-13","visit":"C1D15"},{"seq":"17","trt":"TEPOTINIB","dose":"250.0","doseu":null,"dosef":"QD","route":"ORAL","start_dtc":"2024-04-14","end_dtc":"2024-04-14","visit":"C1D15"},{"seq":"18","trt":"TEPOTINIB","dose":null,"doseu":null,"dosef":"QD","route":"ORAL","start_dtc":"2024-04-15","end_dtc":"2024-04-15","visit":"C1D15"},{"seq":"19","trt":"TEPOTINIB","dose":"250.0","doseu":null,"dosef":"QD","route":"ORAL","start_dtc":"2024-04-16","end_dtc":"2024-04-16","visit":null},{"seq":"20","trt":"TEPOTINIB","dose":null,"doseu":null,"dosef":"QD","route":"ORAL","start_dtc":"2024-04-17","end_dtc":"2024-04-17","visit":null},{"seq":"21","trt":"TEPOTINIB","dose":null,"doseu":null,"dosef":"QD","route":"ORAL","start_dtc":"2024-04-18","end_dtc":"2024-04-18","visit":null},{"seq":"22","trt":"TEPOTINIB","dose":"250.0","doseu":null,"dosef":"QD","route":"ORAL","start_dtc":"2024-04-19","end_dtc":"2024-04-19","visit":null},{"seq":"23","trt":"TEPOTINIB","dose":"250.0","doseu":null,"dosef":"QD","route":"ORAL","start_dtc":"2024-04-20","end_dtc":"2024-04-20","visit":null},{"seq":"24","trt":"TEPOTINIB","dose":"250.0","doseu":null,"dosef":"QD","route":"ORAL","start_dtc":"2024-04-21","end_dtc":"2024-04-21","visit":null},{"seq":"25","trt":"TEPOTINIB","dose":"250.0","doseu":null,"dosef":"QD","route":"ORAL","start_dtc":"2024-04-22","end_dtc":"2024-04-22","visit":null},{"seq":"26","trt":"TEPOTINIB","dose":"250.0","doseu":null,"dosef":"QD","route":"ORAL","start_dtc":"2024-04-23","end_dtc":"2024-04-23","visit":"C2D1"},{"seq":"27","trt":"TEPOTINIB","dose":"250.0","doseu":null,"dosef":"QD","route":"ORAL","start_dtc":"2024-04-24","end_dtc":"2024-04-24","visit":"C2D1"},{"seq":"28","trt":"TEPOTINIB","dose":"250.0","doseu":null,"dosef":"QD","route":"ORAL","start_dtc":"2024-04-25","end_dtc":"2024-04-25","visit":"C2D1"},{"seq":"29","trt":"TEPOTINIB","dose":"250.0","doseu":null,"dosef":"QD","route":"ORAL","start_dtc":"2024-04-26","end_dtc":"2024-04-26","visit":"C2D1"},{"seq":"30","trt":"TEPOTINIB","dose":"250.0","doseu":null,"dosef":"QD","route":"ORAL","start_dtc":"2024-04-27","end_dtc":"2024-04-27","visit":"C2D1"},{"seq":"31","trt":"TEPOTINIB","dose":"250.0","doseu":null,"dosef":"QD","route":"ORAL","start_dtc":"2024-04-28","end_dtc":"2024-04-28","visit":"C2D1"},{"seq":"32","trt":"TEPOTINIB","dose":null,"doseu":null,"dosef":"QD","route":"ORAL","start_dtc":"2024-04-29","end_dtc":"2024-04-29","visit":"C2D1"},{"seq":"33","trt":"TEPOTINIB","dose":"250.0","doseu":null,"dosef":"QD","route":"ORAL","start_dtc":"2024-04-30","end_dtc":"2024-04-30","visit":null},{"seq":"34","trt":"TEPOTINIB","dose":"250.0","doseu":null,"dosef":"QD","route":"ORAL","start_dtc":"2024-05-01","end_dtc":"2024-05-01","visit":null},{"seq":"35","trt":"TEPOTINIB","dose":null,"doseu":null,"dosef":"QD","route":"ORAL","start_dtc":"2024-05-02","end_dtc":"2024-05-02","visit":null},{"seq":"36","trt":"TEPOTINIB","dose":"250.0","doseu":null,"dosef":"QD","route":"ORAL","start_dtc":"2024-05-03","end_dtc":"2024-05-03","visit":null},{"seq":"37","trt":"TEPOTINIB","dose":"250.0","doseu":null,"dosef":"QD","route":"ORAL","start_dtc":"2024-05-04","end_dtc":"2024-05-04","visit":null},{"seq":"38","trt":"TEPOTINIB","dose":"250.0","doseu":null,"dosef":"QD","route":"ORAL","start_dtc":"2024-05-05","end_dtc":"2024-05-05","visit":null},{"seq":"39","trt":"TEPOTINIB","dose":"250.0","doseu":null,"dosef":"QD","route":"ORAL","start_dtc":"2024-05-06","end_dtc":"2024-05-06","visit":null},{"seq":"40","trt":"TEPOTINIB","dose":"250.0","doseu":null,"dosef":"QD","route":"ORAL","start_dtc":"2024-05-07","end_dtc":"2024-05-07","visit":null},{"seq":"41","trt":"TEPOTINIB","dose":"250.0","doseu":null,"dosef":"QD","route":"ORAL","start_dtc":"2024-05-08","end_dtc":"2024-05-08","visit":null},{"seq":"42","trt":"TEPOTINIB","dose":"250.0","doseu":null,"dosef":"QD","route":"ORAL","start_dtc":"2024-05-09","end_dtc":"2024-05-09","visit":null},{"seq":"43","trt":"TEPOTINIB","dose":null,"doseu":null,"dosef":"QD","route":"ORAL","start_dtc":"2024-05-10","end_dtc":"2024-05-10","visit":null},{"seq":"44","trt":"TEPOTINIB","dose":"250.0","doseu":null,"dosef":"QD","route":"ORAL","start_dtc":"2024-05-11","end_dtc":"2024-05-11","visit":null},{"seq":"45","trt":"TEPOTINIB","dose":"250.0","doseu":null,"dosef":"QD","route":"ORAL","start_dtc":"2024-05-12","end_dtc":"2024-05-12","visit":null},{"seq":"46","trt":"TEPOTINIB","dose":"250.0","doseu":null,"dosef":"QD","route":"ORAL","start_dtc":"2024-05-13","end_dtc":"2024-05-13","visit":null},{"seq":"47","trt":"TEPOTINIB","dose":null,"doseu":null,"dosef":"QD","route":"ORAL","start_dtc":"2024-05-14","end_dtc":"2024-05-14","visit":null},{"seq":"48","trt":"TEPOTINIB","dose":"250.0","doseu":null,"dosef":"QD","route":"ORAL","start_dtc":"2024-05-15","end_dtc":"2024-05-15","visit":null},{"seq":"49","trt":"TEPOTINIB","dose":null,"doseu":null,"dosef":"QD","route":"ORAL","start_dtc":"2024-05-16","end_dtc":"2024-05-16","visit":null},{"seq":"50","trt":"TEPOTINIB","dose":"250.0","doseu":null,"dosef":"QD","route":"ORAL","start_dtc":"2024-05-17","end_dtc":"2024-05-17","visit":null},{"seq":"51","trt":"TEPOTINIB","dose":"250.0","doseu":null,"dosef":"QD","route":"ORAL","start_dtc":"2024-05-18","end_dtc":"2024-05-18","visit":null},{"seq":"52","trt":"TEPOTINIB","dose":null,"doseu":null,"dosef":"QD","route":"ORAL","start_dtc":"2024-05-19","end_dtc":"2024-05-19","visit":null},{"seq":"53","trt":"TEPOTINIB","dose":"250.0","doseu":null,"dosef":"QD","route":"ORAL","start_dtc":"2024-05-20","end_dtc":"2024-05-20","visit":null},{"seq":"54","trt":"TEPOTINIB","dose":"250.0","doseu":null,"dosef":"QD","route":"ORAL","start_dtc":"2024-05-21","end_dtc":"2024-05-21","visit":"C3D1"},{"seq":"55","trt":"TEPOTINIB","dose":"250.0","doseu":null,"dosef":"QD","route":"ORAL","start_dtc":"2024-05-22","end_dtc":"2024-05-22","visit":"C3D1"},{"seq":"56","trt":"TEPOTINIB","dose":"250.0","doseu":null,"dosef":"QD","route":"ORAL","start_dtc":"2024-05-23","end_dtc":"2024-05-23","visit":"C3D1"},{"seq":"57","trt":"TEPOTINIB","dose":"250.0","doseu":null,"dosef":"QD","route":"ORAL","start_dtc":"2024-05-24","end_dtc":"2024-05-24","visit":"C3D1"},{"seq":"58","trt":"TEPOTINIB","dose":null,"doseu":null,"dosef":"QD","route":"ORAL","start_dtc":"2024-05-25","end_dtc":"2024-05-25","visit":"C3D1"},{"seq":"59","trt":"TEPOTINIB","dose":"250.0","doseu":null,"dosef":"QD","route":"ORAL","start_dtc":"2024-05-26","end_dtc":"2024-05-26","visit":"C3D1"},{"seq":"60","trt":"TEPOTINIB","dose":"250.0","doseu":null,"dosef":"QD","route":"ORAL","start_dtc":"2024-05-27","end_dtc":"2024-05-27","visit":"C3D1"},{"seq":"61","trt":"TEPOTINIB","dose":"250.0","doseu":null,"dosef":"QD","route":"ORAL","start_dtc":"2024-05-28","end_dtc":"2024-05-28","visit":null},{"seq":"62","trt":"TEPOTINIB","dose":"250.0","doseu":null,"dosef":"QD","route":"ORAL","start_dtc":"2024-05-29","end_dtc":"2024-05-29","visit":null},{"seq":"63","trt":"TEPOTINIB","dose":"250.0","doseu":null,"dosef":"QD","route":"ORAL","start_dtc":"2024-05-30","end_dtc":"2024-05-30","visit":null},{"seq":"64","trt":"TEPOTINIB","dose":"250.0","doseu":null,"dosef":"QD","route":"ORAL","start_dtc":"2024-05-31","end_dtc":"2024-05-31","visit":null},{"seq":"65","trt":"TEPOTINIB","dose":"250.0","doseu":null,"dosef":"QD","route":"ORAL","start_dtc":"2024-06-01","end_dtc":"2024-06-01","visit":null},{"seq":"66","trt":"TEPOTINIB","dose":"250.0","doseu":null,"dosef":"QD","route":"ORAL","start_dtc":"2024-06-02","end_dtc":"2024-06-02","visit":null},{"seq":"67","trt":"TEPOTINIB","dose":"250.0","doseu":null,"dosef":"QD","route":"ORAL","start_dtc":"2024-06-03","end_dtc":"2024-06-03","visit":null},{"seq":"68","trt":"TEPOTINIB","dose":"250.0","doseu":null,"dosef":"QD","route":"ORAL","start_dtc":"2024-06-04","end_dtc":"2024-06-04","visit":null},{"seq":"69","trt":"TEPOTINIB","dose":"250.0","doseu":null,"dosef":"QD","route":"ORAL","start_dtc":"2024-06-05","end_dtc":"2024-06-05","visit":null},{"seq":"70","trt":"TEPOTINIB","dose":"250.0","doseu":null,"dosef":"QD","route":"ORAL","start_dtc":"2024-06-06","end_dtc":"2024-06-06","visit":null},{"seq":"71","trt":"TEPOTINIB","dose":null,"doseu":null,"dosef":"QD","route":"ORAL","start_dtc":"2024-06-07","end_dtc":"2024-06-07","visit":null},{"seq":"72","trt":"TEPOTINIB","dose":"250.0","doseu":null,"dosef":"QD","route":"ORAL","start_dtc":"2024-06-08","end_dtc":"2024-06-08","visit":null},{"seq":"73","trt":"TEPOTINIB","dose":"250.0","doseu":null,"dosef":"QD","route":"ORAL","start_dtc":"2024-06-09","end_dtc":"2024-06-09","visit":null},{"seq":"74","trt":"TEPOTINIB","dose":"250.0","doseu":null,"dosef":"QD","route":"ORAL","start_dtc":"2024-06-10","end_dtc":"2024-06-10","visit":null},{"seq":"75","trt":"TEPOTINIB","dose":"250.0","doseu":null,"dosef":"QD","route":"ORAL","start_dtc":"2024-06-11","end_dtc":"2024-06-11","visit":null},{"seq":"76","trt":"TEPOTINIB","dose":"250.0","doseu":null,"dosef":"QD","route":"ORAL","start_dtc":"2024-06-12","end_dtc":"2024-06-12","visit":null},{"seq":"77","trt":"TEPOTINIB","dose":null,"doseu":null,"dosef":"QD","route":"ORAL","start_dtc":"2024-06-13","end_dtc":"2024-06-13","visit":null},{"seq":"78","trt":"TEPOTINIB","dose":"250.0","doseu":null,"dosef":"QD","route":"ORAL","start_dtc":"2024-06-14","end_dtc":"2024-06-14","visit":null},{"seq":"79","trt":"TEPOTINIB","dose":"250.0","doseu":null,"dosef":"QD","route":"ORAL","start_dtc":"2024-06-15","end_dtc":"2024-06-15","visit":null},{"seq":"80","trt":"TEPOTINIB","dose":"250.0","doseu":null,"dosef":"QD","route":"ORAL","start_dtc":"2024-06-16","end_dtc":"2024-06-16","visit":null},{"seq":"81","trt":"TEPOTINIB","dose":null,"doseu":null,"dosef":"QD","route":"ORAL","start_dtc":"2024-06-17","end_dtc":"2024-06-17","visit":null}]},"section_7_adverse_events":{"summary":{"total_aes":10,"serious_aes":3,"fatal_aes":0,"by_severity":{"MODERATE":3,"SEVERE":3,"MILD":4},"by_soc":{"General disorders and administration site conditions":5,"Gastrointestinal disorders":2,"Respiratory, thoracic and mediastinal disorders":1,"Infections and infestations":1,"Investigations":1}},"events":[{"seq":"1","term":"OEDEMA PERIPHERAL","decod":"Oedema peripheral","llt":"Oedema peripheral","hlt":"Oedema NEC","hlgt":"Oedema NEC","soc":"General disorders and administration site conditions","bodsys":"General disorders and administration site conditions","severity":"MODERATE","serious":"N","causality":"UNLIKELY RELATED","action_taken":"DOSE NOT CHANGED","outcome":"RECOVERED/RESOLVED","fatal":"N","hospitalization":"N","life_threatening":"N","onset_dtc":"2024-04-06","end_dtc":"2024-04-22","onset_dy":"9","end_dy":"25","duration":null,"epoch":"TREATMENT","visit":null,"supplemental":{}},{"seq":"2","term":"OEDEMA PERIPHERAL","decod":"Oedema peripheral","llt":"Oedema peripheral","hlt":"Oedema NEC","hlgt":"Oedema NEC","soc":"General disorders and administration site conditions","bodsys":"General disorders and administration site conditions","severity":"SEVERE","serious":"Y","causality":"POSSIBLY RELATED","action_taken":"DOSE REDUCED","outcome":"NOT RECOVERED/NOT RESOLVED","fatal":"N","hospitalization":"Y","life_threatening":"N","onset_dtc":"2024-04-12","end_dtc":null,"onset_dy":"15","end_dy":null,"duration":null,"epoch":"TREATMENT","visit":null,"supplemental":{}},{"seq":"3","term":"NAUSEA","decod":"Nausea","llt":"Nausea","hlt":"Nausea and vomiting symptoms","hlgt":"Gastrointestinal signs and symptoms","soc":"Gastrointestinal disorders","bodsys":"Gastrointestinal disorders","severity":"SEVERE","serious":"Y","causality":"NOT RELATED","action_taken":"DOSE NOT CHANGED","outcome":"RECOVERED/RESOLVED","fatal":"N","hospitalization":"Y","life_threatening":"N","onset_dtc":"2024-04-30","end_dtc":"2024-05-06","onset_dy":"33","end_dy":"39","duration":null,"epoch":"TREATMENT","visit":null,"supplemental":{}},{"seq":"4","term":"DYSPNOEA","decod":"Dyspnoea","llt":"Dyspnoea","hlt":"Breathing abnormalities","hlgt":"Respiratory tract signs and symptoms","soc":"Respiratory, thoracic and mediastinal disorders","bodsys":"Respiratory, thoracic and mediastinal disorders","severity":"MILD","serious":"N","causality":"NOT RELATED","action_taken":"DOSE NOT CHANGED","outcome":"RECOVERED/RESOLVED","fatal":"N","hospitalization":"N","life_threatening":"N","onset_dtc":"2024-06-04","end_dtc":"2024-06-05","onset_dy":"68","end_dy":"69","duration":null,"epoch":"TREATMENT","visit":null,"supplemental":{}},{"seq":"5","term":"OEDEMA PERIPHERAL","decod":"Oedema peripheral","llt":"Oedema peripheral","hlt":"Oedema NEC","hlgt":"Oedema NEC","soc":"General disorders and administration site conditions","bodsys":"General disorders and administration site conditions","severity":"MILD","serious":"N","causality":"NOT RELATED","action_taken":"DOSE NOT CHANGED","outcome":"RECOVERED/RESOLVED","fatal":"N","hospitalization":"N","life_threatening":"N","onset_dtc":"2024-06-08","end_dtc":"2024-06-10","onset_dy":"72","end_dy":"74","duration":null,"epoch":"TREATMENT","visit":null,"supplemental":{}},{"seq":"6","term":"OEDEMA PERIPHERAL","decod":"Oedema peripheral","llt":"Oedema peripheral","hlt":"Oedema NEC","hlgt":"Oedema NEC","soc":"General disorders and administration site conditions","bodsys":"General disorders and administration site conditions","severity":"SEVERE","serious":"Y","causality":"UNLIKELY RELATED","action_taken":"DOSE NOT CHANGED","outcome":"RECOVERED/RESOLVED","fatal":"N","hospitalization":"Y","life_threatening":"N","onset_dtc":"2024-06-19","end_dtc":"2024-07-27","onset_dy":"83","end_dy":"121","duration":null,"epoch":"TREATMENT","visit":null,"supplemental":{}},{"seq":"7","term":"VOMITING","decod":"Vomiting","llt":"Vomiting","hlt":"Nausea and vomiting symptoms","hlgt":"Gastrointestinal signs and symptoms","soc":"Gastrointestinal disorders","bodsys":"Gastrointestinal disorders","severity":"MILD","serious":"N","causality":"PROBABLY RELATED","action_taken":"DOSE NOT CHANGED","outcome":"RECOVERED/RESOLVED","fatal":"N","hospitalization":"N","life_threatening":"N","onset_dtc":"2024-06-28","end_dtc":"2024-06-30","onset_dy":"92","end_dy":"94","duration":null,"epoch":"TREATMENT","visit":null,"supplemental":{}},{"seq":"8","term":"OEDEMA PERIPHERAL","decod":"Oedema peripheral","llt":"Oedema peripheral","hlt":"Oedema NEC","hlgt":"Oedema NEC","soc":"General disorders and administration site conditions","bodsys":"General disorders and administration site conditions","severity":"MODERATE","serious":"N","causality":"RELATED","action_taken":"DOSE NOT CHANGED","outcome":"RECOVERED/RESOLVED","fatal":"N","hospitalization":"N","life_threatening":"N","onset_dtc":"2024-07-28","end_dtc":"2024-08-22","onset_dy":"122","end_dy":"147","duration":null,"epoch":"TREATMENT","visit":null,"supplemental":{}},{"seq":"9","term":"PNEUMONIA","decod":"Pneumonia","llt":"Pneumonia","hlt":"Lower respiratory and lung infections","hlgt":"Infections NEC","soc":"Infections and infestations","bodsys":"Infections and infestations","severity":"MODERATE","serious":"N","causality":"NOT RELATED","action_taken":"DOSE NOT CHANGED","outcome":"RECOVERING/RESOLVING","fatal":"N","hospitalization":"N","life_threatening":"N","onset_dtc":"2024-08-19","end_dtc":"2024-09-04","onset_dy":"144","end_dy":"160","duration":null,"epoch":"TREATMENT","visit":null,"supplemental":{}},{"seq":"10","term":"ALANINE AMINOTRANSFERASE INCREASED","decod":"Alanine aminotransferase increased","llt":"Alanine aminotransferase increased","hlt":"Liver function analyses","hlgt":"Hepatobiliary investigations","soc":"Investigations","bodsys":"Investigations","severity":"MILD","serious":"N","causality":"UNLIKELY RELATED","action_taken":"DOSE NOT CHANGED","outcome":"NOT RECOVERED/NOT RESOLVED","fatal":"N","hospitalization":"N","life_threatening":"N","onset_dtc":"2024-08-26","end_dtc":null,"onset_dy":"151","end_dy":null,"duration":null,"epoch":"TREATMENT","visit":null,"supplemental":{}}]},"section_8_laboratory_results":{"summary":{"total_records":42,"abnormal_count":7,"abnormal_pct":16.7},"shift_summary":[{"testcd":"ALT","baseline_value":29.93,"baseline_nrind":"NORMAL","worst_post_baseline_value":75.06,"worst_post_baseline_nrind":"HIGH","worst_visit":"EOT"},{"testcd":"AST","baseline_value":16.91,"baseline_nrind":"NORMAL","worst_post_baseline_value":35.93,"worst_post_baseline_nrind":"NORMAL","worst_visit":"EOT"},{"testcd":"CREAT","baseline_value":70.03,"baseline_nrind":"NORMAL","worst_post_baseline_value":69.78,"worst_post_baseline_nrind":"NORMAL","worst_visit":"C1D1"},{"testcd":"GLUC","baseline_value":5.68,"baseline_nrind":"HIGH","worst_post_baseline_value":6.04,"worst_post_baseline_nrind":"HIGH","worst_visit":"EOT"},{"testcd":"HGB","baseline_value":150.61,"baseline_nrind":"NORMAL","worst_post_baseline_value":149.85,"worst_post_baseline_nrind":"NORMAL","worst_visit":"C1D1"},{"testcd":"PLAT","baseline_value":236.87,"baseline_nrind":"NORMAL","worst_post_baseline_value":271.13,"worst_post_baseline_nrind":"NORMAL","worst_visit":"EOT"},{"testcd":"WBC","baseline_value":5.83,"baseline_nrind":"NORMAL","worst_post_baseline_value":6.22,"worst_post_baseline_nrind":"NORMAL","worst_visit":"C1D15"}],"results":[{"seq":"1","testcd":"ALT","test":"Alanine Aminotransferase","cat":"CHEMISTRY","orres":"29.93","orresu":"U/L","stresc":"29.93","stresn":"29.93","stresu":"U/L","stnrlo":"7","stnrhi":"56","nrind":"NORMAL","fast":null,"dtc":"2024-02-08","dy":"-50","visit":"SCREENING","visitnum":"1.0","epoch":"SCREENING","spec":null,"method":null},{"seq":"2","testcd":"AST","test":"Aspartate Aminotransferase","cat":"CHEMISTRY","orres":"16.91","orresu":"U/L","stresc":"16.91","stresn":"16.91","stresu":"U/L","stnrlo":"10","stnrhi":"40","nrind":"NORMAL","fast":null,"dtc":"2024-02-08","dy":"-50","visit":"SCREENING","visitnum":"1.0","epoch":"SCREENING","spec":null,"method":null},{"seq":"3","testcd":"CREAT","test":"Creatinine","cat":"CHEMISTRY","orres":"70.03","orresu":"umol/L","stresc":"70.03","stresn":"70.03","stresu":"umol/L","stnrlo":"62","stnrhi":"106","nrind":"NORMAL","fast":null,"dtc":"2024-02-08","dy":"-50","visit":"SCREENING","visitnum":"1.0","epoch":"SCREENING","spec":null,"method":null},{"seq":"4","testcd":"GLUC","test":"Glucose","cat":"CHEMISTRY","orres":"5.68","orresu":"mmol/L","stresc":"5.68","stresn":"5.68","stresu":"mmol/L","stnrlo":"3.9","stnrhi":"5.6","nrind":"HIGH","fast":null,"dtc":"2024-02-08","dy":"-50","visit":"SCREENING","visitnum":"1.0","epoch":"SCREENING","spec":null,"method":null},{"seq":"5","testcd":"HGB","test":"Hemoglobin","cat":"HEMATOLOGY","orres":"150.61","orresu":"g/L","stresc":"150.61","stresn":"150.61","stresu":"g/L","stnrlo":"130","stnrhi":"175","nrind":"NORMAL","fast":null,"dtc":"2024-02-08","dy":"-50","visit":"SCREENING","visitnum":"1.0","epoch":"SCREENING","spec":null,"method":null},{"seq":"6","testcd":"PLAT","test":"Platelets","cat":"HEMATOLOGY","orres":"236.87","orresu":"10^9/L","stresc":"236.87","stresn":"236.87","stresu":"10^9/L","stnrlo":"150","stnrhi":"400","nrind":"NORMAL","fast":null,"dtc":"2024-02-08","dy":"-50","visit":"SCREENING","visitnum":"1.0","epoch":"SCREENING","spec":null,"method":null},{"seq":"7","testcd":"WBC","test":"Leukocytes","cat":"HEMATOLOGY","orres":"5.83","orresu":"10^9/L","stresc":"5.83","stresn":"5.83","stresu":"10^9/L","stnrlo":"4.0","stnrhi":"11.0","nrind":"NORMAL","fast":null,"dtc":"2024-02-08","dy":"-50","visit":"SCREENING","visitnum":"1.0","epoch":"SCREENING","spec":null,"method":null},{"seq":"8","testcd":"ALT","test":"Alanine Aminotransferase","cat":"CHEMISTRY","orres":"28.27","orresu":"U/L","stresc":"28.27","stresn":"28.27","stresu":"U/L","stnrlo":"7","stnrhi":"56","nrind":"NORMAL","fast":null,"dtc":"2024-03-29","dy":"1","visit":"C1D1","visitnum":"2.0","epoch":"TREATMENT","spec":null,"method":null},{"seq":"9","testcd":"AST","test":"Aspartate Aminotransferase","cat":"CHEMISTRY","orres":"14.61","orresu":"U/L","stresc":"14.61","stresn":"14.61","stresu":"U/L","stnrlo":"10","stnrhi":"40","nrind":"NORMAL","fast":null,"dtc":"2024-03-29","dy":"1","visit":"C1D1","visitnum":"2.0","epoch":"TREATMENT","spec":null,"method":null},{"seq":"10","testcd":"CREAT","test":"Creatinine","cat":"CHEMISTRY","orres":"69.78","orresu":"umol/L","stresc":"69.78","stresn":"69.78","stresu":"umol/L","stnrlo":"62","stnrhi":"106","nrind":"NORMAL","fast":null,"dtc":"2024-03-29","dy":"1","visit":"C1D1","visitnum":"2.0","epoch":"TREATMENT","spec":null,"method":null},{"seq":"11","testcd":"GLUC","test":"Glucose","cat":"CHEMISTRY","orres":"5.73","orresu":"mmol/L","stresc":"5.73","stresn":"5.73","stresu":"mmol/L","stnrlo":"3.9","stnrhi":"5.6","nrind":"HIGH","fast":null,"dtc":"2024-03-29","dy":"1","visit":"C1D1","visitnum":"2.0","epoch":"TREATMENT","spec":null,"method":null},{"seq":"12","testcd":"HGB","test":"Hemoglobin","cat":"HEMATOLOGY","orres":"149.85","orresu":"g/L","stresc":"149.85","stresn":"149.85","stresu":"g/L","stnrlo":"130","stnrhi":"175","nrind":"NORMAL","fast":null,"dtc":"2024-03-29","dy":"1","visit":"C1D1","visitnum":"2.0","epoch":"TREATMENT","spec":null,"method":null},{"seq":"13","testcd":"PLAT","test":"Platelets","cat":"HEMATOLOGY","orres":"249.85","orresu":"10^9/L","stresc":"249.85","stresn":"249.85","stresu":"10^9/L","stnrlo":"150","stnrhi":"400","nrind":"NORMAL","fast":null,"dtc":"2024-03-29","dy":"1","visit":"C1D1","visitnum":"2.0","epoch":"TREATMENT","spec":null,"method":null},{"seq":"14","testcd":"WBC","test":"Leukocytes","cat":"HEMATOLOGY","orres":"6.0","orresu":"10^9/L","stresc":"6.0","stresn":"6.0","stresu":"10^9/L","stnrlo":"4.0","stnrhi":"11.0","nrind":"NORMAL","fast":null,"dtc":"2024-03-29","dy":"1","visit":"C1D1","visitnum":"2.0","epoch":"TREATMENT","spec":null,"method":null},{"seq":"15","testcd":"ALT","test":"Alanine Aminotransferase","cat":"CHEMISTRY","orres":"32.97","orresu":"U/L","stresc":"32.97","stresn":"32.97","stresu":"U/L","stnrlo":"7","stnrhi":"56","nrind":"NORMAL","fast":null,"dtc":"2024-04-11","dy":"14","visit":"C1D15","visitnum":"3.0","epoch":"TREATMENT","spec":null,"method":null},{"seq":"16","testcd":"AST","test":"Aspartate Aminotransferase","cat":"CHEMISTRY","orres":"15.07","orresu":"U/L","stresc":"15.07","stresn":"15.07","stresu":"U/L","stnrlo":"10","stnrhi":"40","nrind":"NORMAL","fast":null,"dtc":"2024-04-11","dy":"14","visit":"C1D15","visitnum":"3.0","epoch":"TREATMENT","spec":null,"method":null},{"seq":"17","testcd":"CREAT","test":"Creatinine","cat":"CHEMISTRY","orres":"68.14","orresu":"umol/L","stresc":"68.14","stresn":"68.14","stresu":"umol/L","stnrlo":"62","stnrhi":"106","nrind":"NORMAL","fast":null,"dtc":"2024-04-11","dy":"14","visit":"C1D15","visitnum":"3.0","epoch":"TREATMENT","spec":null,"method":null},{"seq":"18","testcd":"GLUC","test":"Glucose","cat":"CHEMISTRY","orres":"5.81","orresu":"mmol/L","stresc":"5.81","stresn":"5.81","stresu":"mmol/L","stnrlo":"3.9","stnrhi":"5.6","nrind":"HIGH","fast":null,"dtc":"2024-04-11","dy":"14","visit":"C1D15","visitnum":"3.0","epoch":"TREATMENT","spec":null,"method":null},{"seq":"19","testcd":"HGB","test":"Hemoglobin","cat":"HEMATOLOGY","orres":"151.72","orresu":"g/L","stresc":"151.72","stresn":"151.72","stresu":"g/L","stnrlo":"130","stnrhi":"175","nrind":"NORMAL","fast":null,"dtc":"2024-04-11","dy":"14","visit":"C1D15","visitnum":"3.0","epoch":"TREATMENT","spec":null,"method":null},{"seq":"20","testcd":"PLAT","test":"Platelets","cat":"HEMATOLOGY","orres":"251.05","orresu":"10^9/L","stresc":"251.05","stresn":"251.05","stresu":"10^9/L","stnrlo":"150","stnrhi":"400","nrind":"NORMAL","fast":null,"dtc":"2024-04-11","dy":"14","visit":"C1D15","visitnum":"3.0","epoch":"TREATMENT","spec":null,"method":null},{"seq":"21","testcd":"WBC","test":"Leukocytes","cat":"HEMATOLOGY","orres":"6.22","orresu":"10^9/L","stresc":"6.22","stresn":"6.22","stresu":"10^9/L","stnrlo":"4.0","stnrhi":"11.0","nrind":"NORMAL","fast":null,"dtc":"2024-04-11","dy":"14","visit":"C1D15","visitnum":"3.0","epoch":"TREATMENT","spec":null,"method":null},{"seq":"22","testcd":"ALT","test":"Alanine Aminotransferase","cat":"CHEMISTRY","orres":"31.17","orresu":"U/L","stresc":"31.17","stresn":"31.17","stresu":"U/L","stnrlo":"7","stnrhi":"56","nrind":"NORMAL","fast":null,"dtc":"2024-06-21","dy":"85","visit":"C4D1","visitnum":"6.0","epoch":"TREATMENT","spec":null,"method":null},{"seq":"23","testcd":"AST","test":"Aspartate Aminotransferase","cat":"CHEMISTRY","orres":"14.41","orresu":"U/L","stresc":"14.41","stresn":"14.41","stresu":"U/L","stnrlo":"10","stnrhi":"40","nrind":"NORMAL","fast":null,"dtc":"2024-06-21","dy":"85","visit":"C4D1","visitnum":"6.0","epoch":"TREATMENT","spec":null,"method":null},{"seq":"24","testcd":"CREAT","test":"Creatinine","cat":"CHEMISTRY","orres":"68.2","orresu":"umol/L","stresc":"68.2","stresn":"68.2","stresu":"umol/L","stnrlo":"62","stnrhi":"106","nrind":"NORMAL","fast":null,"dtc":"2024-06-21","dy":"85","visit":"C4D1","visitnum":"6.0","epoch":"TREATMENT","spec":null,"method":null},{"seq":"25","testcd":"GLUC","test":"Glucose","cat":"CHEMISTRY","orres":"5.89","orresu":"mmol/L","stresc":"5.89","stresn":"5.89","stresu":"mmol/L","stnrlo":"3.9","stnrhi":"5.6","nrind":"HIGH","fast":null,"dtc":"2024-06-21","dy":"85","visit":"C4D1","visitnum":"6.0","epoch":"TREATMENT","spec":null,"method":null},{"seq":"26","testcd":"HGB","test":"Hemoglobin","cat":"HEMATOLOGY","orres":"151.13","orresu":"g/L","stresc":"151.13","stresn":"151.13","stresu":"g/L","stnrlo":"130","stnrhi":"175","nrind":"NORMAL","fast":null,"dtc":"2024-06-21","dy":"85","visit":"C4D1","visitnum":"6.0","epoch":"TREATMENT","spec":null,"method":null},{"seq":"27","testcd":"PLAT","test":"Platelets","cat":"HEMATOLOGY","orres":"254.24","orresu":"10^9/L","stresc":"254.24","stresn":"254.24","stresu":"10^9/L","stnrlo":"150","stnrhi":"400","nrind":"NORMAL","fast":null,"dtc":"2024-06-21","dy":"85","visit":"C4D1","visitnum":"6.0","epoch":"TREATMENT","spec":null,"method":null},{"seq":"28","testcd":"WBC","test":"Leukocytes","cat":"HEMATOLOGY","orres":"5.46","orresu":"10^9/L","stresc":"5.46","stresn":"5.46","stresu":"10^9/L","stnrlo":"4.0","stnrhi":"11.0","nrind":"NORMAL","fast":null,"dtc":"2024-06-21","dy":"85","visit":"C4D1","visitnum":"6.0","epoch":"TREATMENT","spec":null,"method":null},{"seq":"29","testcd":"ALT","test":"Alanine Aminotransferase","cat":"CHEMISTRY","orres":"75.06","orresu":"U/L","stresc":"75.06","stresn":"75.06","stresu":"U/L","stnrlo":"7","stnrhi":"56","nrind":"HIGH","fast":null,"dtc":"2024-09-17","dy":"173","visit":"EOT","visitnum":"8.0","epoch":"TREATMENT","spec":null,"method":null},{"seq":"30","testcd":"AST","test":"Aspartate Aminotransferase","cat":"CHEMISTRY","orres":"35.93","orresu":"U/L","stresc":"35.93","stresn":"35.93","stresu":"U/L","stnrlo":"10","stnrhi":"40","nrind":"NORMAL","fast":null,"dtc":"2024-09-17","dy":"173","visit":"EOT","visitnum":"8.0","epoch":"TREATMENT","spec":null,"method":null},{"seq":"31","testcd":"CREAT","test":"Creatinine","cat":"CHEMISTRY","orres":"68.38","orresu":"umol/L","stresc":"68.38","stresn":"68.38","stresu":"umol/L","stnrlo":"62","stnrhi":"106","nrind":"NORMAL","fast":null,"dtc":"2024-09-17","dy":"173","visit":"EOT","visitnum":"8.0","epoch":"TREATMENT","spec":null,"method":null},{"seq":"32","testcd":"GLUC","test":"Glucose","cat":"CHEMISTRY","orres":"6.04","orresu":"mmol/L","stresc":"6.04","stresn":"6.04","stresu":"mmol/L","stnrlo":"3.9","stnrhi":"5.6","nrind":"HIGH","fast":null,"dtc":"2024-09-17","dy":"173","visit":"EOT","visitnum":"8.0","epoch":"TREATMENT","spec":null,"method":null},{"seq":"33","testcd":"HGB","test":"Hemoglobin","cat":"HEMATOLOGY","orres":"151.35","orresu":"g/L","stresc":"151.35","stresn":"151.35","stresu":"g/L","stnrlo":"130","stnrhi":"175","nrind":"NORMAL","fast":null,"dtc":"2024-09-17","dy":"173","visit":"EOT","visitnum":"8.0","epoch":"TREATMENT","spec":null,"method":null},{"seq":"34","testcd":"PLAT","test":"Platelets","cat":"HEMATOLOGY","orres":"271.13","orresu":"10^9/L","stresc":"271.13","stresn":"271.13","stresu":"10^9/L","stnrlo":"150","stnrhi":"400","nrind":"NORMAL","fast":null,"dtc":"2024-09-17","dy":"173","visit":"EOT","visitnum":"8.0","epoch":"TREATMENT","spec":null,"method":null},{"seq":"35","testcd":"WBC","test":"Leukocytes","cat":"HEMATOLOGY","orres":"5.2","orresu":"10^9/L","stresc":"5.2","stresn":"5.2","stresu":"10^9/L","stnrlo":"4.0","stnrhi":"11.0","nrind":"NORMAL","fast":null,"dtc":"2024-09-17","dy":"173","visit":"EOT","visitnum":"8.0","epoch":"TREATMENT","spec":null,"method":null},{"seq":"36","testcd":"ALT","test":"Alanine Aminotransferase","cat":"CHEMISTRY","orres":"34.28","orresu":"U/L","stresc":"34.28","stresn":"34.28","stresu":"U/L","stnrlo":"7","stnrhi":"56","nrind":"NORMAL","fast":null,"dtc":"2024-10-07","dy":"193","visit":"FOLLOW-UP","visitnum":"9.0","epoch":"FOLLOW-UP","spec":null,"method":null},{"seq":"37","testcd":"AST","test":"Aspartate Aminotransferase","cat":"CHEMISTRY","orres":"16.01","orresu":"U/L","stresc":"16.01","stresn":"16.01","stresu":"U/L","stnrlo":"10","stnrhi":"40","nrind":"NORMAL","fast":null,"dtc":"2024-10-07","dy":"193","visit":"FOLLOW-UP","visitnum":"9.0","epoch":"FOLLOW-UP","spec":null,"method":null},{"seq":"38","testcd":"CREAT","test":"Creatinine","cat":"CHEMISTRY","orres":"66.94","orresu":"umol/L","stresc":"66.94","stresn":"66.94","stresu":"umol/L","stnrlo":"62","stnrhi":"106","nrind":"NORMAL","fast":null,"dtc":"2024-10-07","dy":"193","visit":"FOLLOW-UP","visitnum":"9.0","epoch":"FOLLOW-UP","spec":null,"method":null},{"seq":"39","testcd":"GLUC","test":"Glucose","cat":"CHEMISTRY","orres":"5.89","orresu":"mmol/L","stresc":"5.89","stresn":"5.89","stresu":"mmol/L","stnrlo":"3.9","stnrhi":"5.6","nrind":"HIGH","fast":null,"dtc":"2024-10-07","dy":"193","visit":"FOLLOW-UP","visitnum":"9.0","epoch":"FOLLOW-UP","spec":null,"method":null},{"seq":"40","testcd":"HGB","test":"Hemoglobin","cat":"HEMATOLOGY","orres":"153.79","orresu":"g/L","stresc":"153.79","stresn":"153.79","stresu":"g/L","stnrlo":"130","stnrhi":"175","nrind":"NORMAL","fast":null,"dtc":"2024-10-07","dy":"193","visit":"FOLLOW-UP","visitnum":"9.0","epoch":"FOLLOW-UP","spec":null,"method":null},{"seq":"41","testcd":"PLAT","test":"Platelets","cat":"HEMATOLOGY","orres":"253.6","orresu":"10^9/L","stresc":"253.6","stresn":"253.6","stresu":"10^9/L","stnrlo":"150","stnrhi":"400","nrind":"NORMAL","fast":null,"dtc":"2024-10-07","dy":"193","visit":"FOLLOW-UP","visitnum":"9.0","epoch":"FOLLOW-UP","spec":null,"method":null},{"seq":"42","testcd":"WBC","test":"Leukocytes","cat":"HEMATOLOGY","orres":"5.87","orresu":"10^9/L","stresc":"5.87","stresn":"5.87","stresu":"10^9/L","stnrlo":"4.0","stnrhi":"11.0","nrind":"NORMAL","fast":null,"dtc":"2024-10-07","dy":"193","visit":"FOLLOW-UP","visitnum":"9.0","epoch":"FOLLOW-UP","spec":null,"method":null}]},"section_9_vital_signs":{"summary":{"total_records":72},"trends":{"BMI":[{"visit":"SCREENING","visitnum":"1.0","dtc":"2024-02-08","value":"20.4","unit":"kg/m2"},{"visit":"C1D1","visitnum":"2.0","dtc":"2024-03-29","value":"19.8","unit":"kg/m2"},{"visit":"C1D15","visitnum":"3.0","dtc":"2024-04-11","value":"18.9","unit":"kg/m2"},{"visit":"C2D1","visitnum":"4.0","dtc":"2024-04-25","value":"18.8","unit":"kg/m2"},{"visit":"C3D1","visitnum":"5.0","dtc":"2024-05-27","value":"18.2","unit":"kg/m2"},{"visit":"C4D1","visitnum":"6.0","dtc":"2024-06-21","value":"17.5","unit":"kg/m2"},{"visit":"C6D1","visitnum":"7.0","dtc":"2024-08-22","value":"17.2","unit":"kg/m2"},{"visit":"EOT","visitnum":"8.0","dtc":"2024-09-17","value":"16.3","unit":"kg/m2"},{"visit":"FOLLOW-UP","visitnum":"9.0","dtc":"2024-10-07","value":"16.0","unit":"kg/m2"}],"DIABP":[{"visit":"SCREENING","visitnum":"1.0","dtc":"2024-02-08","value":"86.8","unit":"mmHg"},{"visit":"C1D1","visitnum":"2.0","dtc":"2024-03-29","value":"87.1","unit":"mmHg"},{"visit":"C1D15","visitnum":"3.0","dtc":"2024-04-11","value":"89.0","unit":"mmHg"},{"visit":"C2D1","visitnum":"4.0","dtc":"2024-04-25","value":"87.8","unit":"mmHg"},{"visit":"C3D1","visitnum":"5.0","dtc":"2024-05-27","value":"88.6","unit":"mmHg"},{"visit":"C4D1","visitnum":"6.0","dtc":"2024-06-21","value":"86.7","unit":"mmHg"},{"visit":"C6D1","visitnum":"7.0","dtc":"2024-08-22","value":"87.3","unit":"mmHg"},{"visit":"EOT","visitnum":"8.0","dtc":"2024-09-17","value":"87.4","unit":"mmHg"},{"visit":"FOLLOW-UP","visitnum":"9.0","dtc":"2024-10-07","value":"88.8","unit":"mmHg"}],"HEIGHT":[{"visit":"SCREENING","visitnum":"1.0","dtc":"2024-02-08","value":"174.4","unit":"cm"},{"visit":"C1D1","visitnum":"2.0","dtc":"2024-03-29","value":"174.6","unit":"cm"},{"visit":"C1D15","visitnum":"3.0","dtc":"2024-04-11","value":"174.4","unit":"cm"},{"visit":"C2D1","visitnum":"4.0","dtc":"2024-04-25","value":"175.5","unit":"cm"},{"visit":"C3D1","visitnum":"5.0","dtc":"2024-05-27","value":"176.2","unit":"cm"},{"visit":"C4D1","visitnum":"6.0","dtc":"2024-06-21","value":"175.7","unit":"cm"},{"visit":"C6D1","visitnum":"7.0","dtc":"2024-08-22","value":"175.3","unit":"cm"},{"visit":"EOT","visitnum":"8.0","dtc":"2024-09-17","value":"175.1","unit":"cm"},{"visit":"FOLLOW-UP","visitnum":"9.0","dtc":"2024-10-07","value":"175.2","unit":"cm"}],"PULSE":[{"visit":"SCREENING","visitnum":"1.0","dtc":"2024-02-08","value":"78.4","unit":"beats/min"},{"visit":"C1D1","visitnum":"2.0","dtc":"2024-03-29","value":"72.2","unit":"beats/min"},{"visit":"C1D15","visitnum":"3.0","dtc":"2024-04-11","value":"72.1","unit":"beats/min"},{"visit":"C2D1","visitnum":"4.0","dtc":"2024-04-25","value":"74.6","unit":"beats/min"},{"visit":"C3D1","visitnum":"5.0","dtc":"2024-05-27","value":"78.2","unit":"beats/min"},{"visit":"C4D1","visitnum":"6.0","dtc":"2024-06-21","value":"77.4","unit":"beats/min"},{"visit":"C6D1","visitnum":"7.0","dtc":"2024-08-22","value":"73.8","unit":"beats/min"},{"visit":"EOT","visitnum":"8.0","dtc":"2024-09-17","value":"80.1","unit":"beats/min"},{"visit":"FOLLOW-UP","visitnum":"9.0","dtc":"2024-10-07","value":"81.8","unit":"beats/min"}],"RESP":[{"visit":"SCREENING","visitnum":"1.0","dtc":"2024-02-08","value":"16.6","unit":"breaths/min"},{"visit":"C1D1","visitnum":"2.0","dtc":"2024-03-29","value":"15.6","unit":"breaths/min"},{"visit":"C1D15","visitnum":"3.0","dtc":"2024-04-11","value":"16.0","unit":"breaths/min"},{"visit":"C2D1","visitnum":"4.0","dtc":"2024-04-25","value":"16.5","unit":"breaths/min"},{"visit":"C3D1","visitnum":"5.0","dtc":"2024-05-27","value":"16.5","unit":"breaths/min"},{"visit":"C4D1","visitnum":"6.0","dtc":"2024-06-21","value":"15.8","unit":"breaths/min"},{"visit":"C6D1","visitnum":"7.0","dtc":"2024-08-22","value":"16.4","unit":"breaths/min"},{"visit":"EOT","visitnum":"8.0","dtc":"2024-09-17","value":"16.4","unit":"breaths/min"},{"visit":"FOLLOW-UP","visitnum":"9.0","dtc":"2024-10-07","value":"17.0","unit":"breaths/min"}],"SYSBP":[{"visit":"SCREENING","visitnum":"1.0","dtc":"2024-02-08","value":"127.6","unit":"mmHg"},{"visit":"C1D1","visitnum":"2.0","dtc":"2024-03-29","value":"125.5","unit":"mmHg"},{"visit":"C1D15","visitnum":"3.0","dtc":"2024-04-11","value":"128.4","unit":"mmHg"},{"visit":"C2D1","visitnum":"4.0","dtc":"2024-04-25","value":"127.2","unit":"mmHg"},{"visit":"C3D1","visitnum":"5.0","dtc":"2024-05-27","value":"128.7","unit":"mmHg"},{"visit":"C4D1","visitnum":"6.0","dtc":"2024-06-21","value":"126.1","unit":"mmHg"},{"visit":"C6D1","visitnum":"7.0","dtc":"2024-08-22","value":"125.1","unit":"mmHg"},{"visit":"EOT","visitnum":"8.0","dtc":"2024-09-17","value":"125.4","unit":"mmHg"},{"visit":"FOLLOW-UP","visitnum":"9.0","dtc":"2024-10-07","value":"129.3","unit":"mmHg"}],"TEMP":[{"visit":"SCREENING","visitnum":"1.0","dtc":"2024-02-08","value":"37.3","unit":"C"},{"visit":"C1D1","visitnum":"2.0","dtc":"2024-03-29","value":"36.9","unit":"C"},{"visit":"C1D15","visitnum":"3.0","dtc":"2024-04-11","value":"36.9","unit":"C"},{"visit":"C2D1","visitnum":"4.0","dtc":"2024-04-25","value":"36.8","unit":"C"},{"visit":"C3D1","visitnum":"5.0","dtc":"2024-05-27","value":"37.1","unit":"C"},{"visit":"C4D1","visitnum":"6.0","dtc":"2024-06-21","value":"37.1","unit":"C"},{"visit":"C6D1","visitnum":"7.0","dtc":"2024-08-22","value":"37.1","unit":"C"},{"visit":"EOT","visitnum":"8.0","dtc":"2024-09-17","value":"37.0","unit":"C"},{"visit":"FOLLOW-UP","visitnum":"9.0","dtc":"2024-10-07","value":"37.2","unit":"C"}],"WEIGHT":[{"visit":"SCREENING","visitnum":"1.0","dtc":"2024-02-08","value":"62.1","unit":"kg"},{"visit":"C1D1","visitnum":"2.0","dtc":"2024-03-29","value":"60.3","unit":"kg"},{"visit":"C1D15","visitnum":"3.0","dtc":"2024-04-11","value":"57.4","unit":"kg"},{"visit":"C2D1","visitnum":"4.0","dtc":"2024-04-25","value":"57.9","unit":"kg"},{"visit":"C3D1","visitnum":"5.0","dtc":"2024-05-27","value":"56.4","unit":"kg"},{"visit":"C4D1","visitnum":"6.0","dtc":"2024-06-21","value":"54.1","unit":"kg"},{"visit":"C6D1","visitnum":"7.0","dtc":"2024-08-22","value":"52.9","unit":"kg"},{"visit":"EOT","visitnum":"8.0","dtc":"2024-09-17","value":"50.1","unit":"kg"},{"visit":"FOLLOW-UP","visitnum":"9.0","dtc":"2024-10-07","value":"49.2","unit":"kg"}]},"results":[{"seq":"1","testcd":"BMI","test":"BMI","cat":null,"orres":"20.4","orresu":"kg/m2","stresc":"20.4","stresn":"20.4","stresu":"kg/m2","stnrlo":null,"stnrhi":null,"nrind":null,"pos":null,"loc":null,"dtc":"2024-02-08","dy":"-50","visit":"SCREENING","visitnum":"1.0","epoch":"SCREENING"},{"seq":"2","testcd":"DIABP","test":"Diastolic Blood Pressure","cat":null,"orres":"86.8","orresu":"mmHg","stresc":"86.8","stresn":"86.8","stresu":"mmHg","stnrlo":null,"stnrhi":null,"nrind":null,"pos":null,"loc":null,"dtc":"2024-02-08","dy":"-50","visit":"SCREENING","visitnum":"1.0","epoch":"SCREENING"},{"seq":"3","testcd":"HEIGHT","test":"Height","cat":null,"orres":"174.4","orresu":"cm","stresc":"174.4","stresn":"174.4","stresu":"cm","stnrlo":null,"stnrhi":null,"nrind":null,"pos":null,"loc":null,"dtc":"2024-02-08","dy":"-50","visit":"SCREENING","visitnum":"1.0","epoch":"SCREENING"},{"seq":"4","testcd":"PULSE","test":"Pulse Rate","cat":null,"orres":"78.4","orresu":"beats/min","stresc":"78.4","stresn":"78.4","stresu":"beats/min","stnrlo":null,"stnrhi":null,"nrind":null,"pos":null,"loc":null,"dtc":"2024-02-08","dy":"-50","visit":"SCREENING","visitnum":"1.0","epoch":"SCREENING"},{"seq":"5","testcd":"RESP","test":"Respiratory Rate","cat":null,"orres":"16.6","orresu":"breaths/min","stresc":"16.6","stresn":"16.6","stresu":"breaths/min","stnrlo":null,"stnrhi":null,"nrind":null,"pos":null,"loc":null,"dtc":"2024-02-08","dy":"-50","visit":"SCREENING","visitnum":"1.0","epoch":"SCREENING"},{"seq":"6","testcd":"SYSBP","test":"Systolic Blood Pressure","cat":null,"orres":"127.6","orresu":"mmHg","stresc":"127.6","stresn":"127.6","stresu":"mmHg","stnrlo":null,"stnrhi":null,"nrind":null,"pos":null,"loc":null,"dtc":"2024-02-08","dy":"-50","visit":"SCREENING","visitnum":"1.0","epoch":"SCREENING"},{"seq":"7","testcd":"TEMP","test":"Temperature","cat":null,"orres":"37.3","orresu":"C","stresc":"37.3","stresn":"37.3","stresu":"C","stnrlo":null,"stnrhi":null,"nrind":null,"pos":null,"loc":null,"dtc":"2024-02-08","dy":"-50","visit":"SCREENING","visitnum":"1.0","epoch":"SCREENING"},{"seq":"8","testcd":"WEIGHT","test":"Weight","cat":null,"orres":"62.1","orresu":"kg","stresc":"62.1","stresn":"62.1","stresu":"kg","stnrlo":null,"stnrhi":null,"nrind":null,"pos":null,"loc":null,"dtc":"2024-02-08","dy":"-50","visit":"SCREENING","visitnum":"1.0","epoch":"SCREENING"},{"seq":"9","testcd":"BMI","test":"BMI","cat":null,"orres":"19.8","orresu":"kg/m2","stresc":"19.8","stresn":"19.8","stresu":"kg/m2","stnrlo":null,"stnrhi":null,"nrind":null,"pos":null,"loc":null,"dtc":"2024-03-29","dy":"1","visit":"C1D1","visitnum":"2.0","epoch":"TREATMENT"},{"seq":"10","testcd":"DIABP","test":"Diastolic Blood Pressure","cat":null,"orres":"87.1","orresu":"mmHg","stresc":"87.1","stresn":"87.1","stresu":"mmHg","stnrlo":null,"stnrhi":null,"nrind":null,"pos":null,"loc":null,"dtc":"2024-03-29","dy":"1","visit":"C1D1","visitnum":"2.0","epoch":"TREATMENT"},{"seq":"11","testcd":"HEIGHT","test":"Height","cat":null,"orres":"174.6","orresu":"cm","stresc":"174.6","stresn":"174.6","stresu":"cm","stnrlo":null,"stnrhi":null,"nrind":null,"pos":null,"loc":null,"dtc":"2024-03-29","dy":"1","visit":"C1D1","visitnum":"2.0","epoch":"TREATMENT"},{"seq":"12","testcd":"PULSE","test":"Pulse Rate","cat":null,"orres":"72.2","orresu":"beats/min","stresc":"72.2","stresn":"72.2","stresu":"beats/min","stnrlo":null,"stnrhi":null,"nrind":null,"pos":null,"loc":null,"dtc":"2024-03-29","dy":"1","visit":"C1D1","visitnum":"2.0","epoch":"TREATMENT"},{"seq":"13","testcd":"RESP","test":"Respiratory Rate","cat":null,"orres":"15.6","orresu":"breaths/min","stresc":"15.6","stresn":"15.6","stresu":"breaths/min","stnrlo":null,"stnrhi":null,"nrind":null,"pos":null,"loc":null,"dtc":"2024-03-29","dy":"1","visit":"C1D1","visitnum":"2.0","epoch":"TREATMENT"},{"seq":"14","testcd":"SYSBP","test":"Systolic Blood Pressure","cat":null,"orres":"125.5","orresu":"mmHg","stresc":"125.5","stresn":"125.5","stresu":"mmHg","stnrlo":null,"stnrhi":null,"nrind":null,"pos":null,"loc":null,"dtc":"2024-03-29","dy":"1","visit":"C1D1","visitnum":"2.0","epoch":"TREATMENT"},{"seq":"15","testcd":"TEMP","test":"Temperature","cat":null,"orres":"36.9","orresu":"C","stresc":"36.9","stresn":"36.9","stresu":"C","stnrlo":null,"stnrhi":null,"nrind":null,"pos":null,"loc":null,"dtc":"2024-03-29","dy":"1","visit":"C1D1","visitnum":"2.0","epoch":"TREATMENT"},{"seq":"16","testcd":"WEIGHT","test":"Weight","cat":null,"orres":"60.3","orresu":"kg","stresc":"60.3","stresn":"60.3","stresu":"kg","stnrlo":null,"stnrhi":null,"nrind":null,"pos":null,"loc":null,"dtc":"2024-03-29","dy":"1","visit":"C1D1","visitnum":"2.0","epoch":"TREATMENT"},{"seq":"17","testcd":"BMI","test":"BMI","cat":null,"orres":"18.9","orresu":"kg/m2","stresc":"18.9","stresn":"18.9","stresu":"kg/m2","stnrlo":null,"stnrhi":null,"nrind":null,"pos":null,"loc":null,"dtc":"2024-04-11","dy":"14","visit":"C1D15","visitnum":"3.0","epoch":"TREATMENT"},{"seq":"18","testcd":"DIABP","test":"Diastolic Blood Pressure","cat":null,"orres":"89.0","orresu":"mmHg","stresc":"89.0","stresn":"89.0","stresu":"mmHg","stnrlo":null,"stnrhi":null,"nrind":null,"pos":null,"loc":null,"dtc":"2024-04-11","dy":"14","visit":"C1D15","visitnum":"3.0","epoch":"TREATMENT"},{"seq":"19","testcd":"HEIGHT","test":"Height","cat":null,"orres":"174.4","orresu":"cm","stresc":"174.4","stresn":"174.4","stresu":"cm","stnrlo":null,"stnrhi":null,"nrind":null,"pos":null,"loc":null,"dtc":"2024-04-11","dy":"14","visit":"C1D15","visitnum":"3.0","epoch":"TREATMENT"},{"seq":"20","testcd":"PULSE","test":"Pulse Rate","cat":null,"orres":"72.1","orresu":"beats/min","stresc":"72.1","stresn":"72.1","stresu":"beats/min","stnrlo":null,"stnrhi":null,"nrind":null,"pos":null,"loc":null,"dtc":"2024-04-11","dy":"14","visit":"C1D15","visitnum":"3.0","epoch":"TREATMENT"},{"seq":"21","testcd":"RESP","test":"Respiratory Rate","cat":null,"orres":"16.0","orresu":"breaths/min","stresc":"16.0","stresn":"16.0","stresu":"breaths/min","stnrlo":null,"stnrhi":null,"nrind":null,"pos":null,"loc":null,"dtc":"2024-04-11","dy":"14","visit":"C1D15","visitnum":"3.0","epoch":"TREATMENT"},{"seq":"22","testcd":"SYSBP","test":"Systolic Blood Pressure","cat":null,"orres":"128.4","orresu":"mmHg","stresc":"128.4","stresn":"128.4","stresu":"mmHg","stnrlo":null,"stnrhi":null,"nrind":null,"pos":null,"loc":null,"dtc":"2024-04-11","dy":"14","visit":"C1D15","visitnum":"3.0","epoch":"TREATMENT"},{"seq":"23","testcd":"TEMP","test":"Temperature","cat":null,"orres":"36.9","orresu":"C","stresc":"36.9","stresn":"36.9","stresu":"C","stnrlo":null,"stnrhi":null,"nrind":null,"pos":null,"loc":null,"dtc":"2024-04-11","dy":"14","visit":"C1D15","visitnum":"3.0","epoch":"TREATMENT"},{"seq":"24","testcd":"WEIGHT","test":"Weight","cat":null,"orres":"57.4","orresu":"kg","stresc":"57.4","stresn":"57.4","stresu":"kg","stnrlo":null,"stnrhi":null,"nrind":null,"pos":null,"loc":null,"dtc":"2024-04-11","dy":"14","visit":"C1D15","visitnum":"3.0","epoch":"TREATMENT"},{"seq":"25","testcd":"BMI","test":"BMI","cat":null,"orres":"18.8","orresu":"kg/m2","stresc":"18.8","stresn":"18.8","stresu":"kg/m2","stnrlo":null,"stnrhi":null,"nrind":null,"pos":null,"loc":null,"dtc":"2024-04-25","dy":"28","visit":"C2D1","visitnum":"4.0","epoch":"TREATMENT"},{"seq":"26","testcd":"DIABP","test":"Diastolic Blood Pressure","cat":null,"orres":"87.8","orresu":"mmHg","stresc":"87.8","stresn":"87.8","stresu":"mmHg","stnrlo":null,"stnrhi":null,"nrind":null,"pos":null,"loc":null,"dtc":"2024-04-25","dy":"28","visit":"C2D1","visitnum":"4.0","epoch":"TREATMENT"},{"seq":"27","testcd":"HEIGHT","test":"Height","cat":null,"orres":"175.5","orresu":"cm","stresc":"175.5","stresn":"175.5","stresu":"cm","stnrlo":null,"stnrhi":null,"nrind":null,"pos":null,"loc":null,"dtc":"2024-04-25","dy":"28","visit":"C2D1","visitnum":"4.0","epoch":"TREATMENT"},{"seq":"28","testcd":"PULSE","test":"Pulse Rate","cat":null,"orres":"74.6","orresu":"beats/min","stresc":"74.6","stresn":"74.6","stresu":"beats/min","stnrlo":null,"stnrhi":null,"nrind":null,"pos":null,"loc":null,"dtc":"2024-04-25","dy":"28","visit":"C2D1","visitnum":"4.0","epoch":"TREATMENT"},{"seq":"29","testcd":"RESP","test":"Respiratory Rate","cat":null,"orres":"16.5","orresu":"breaths/min","stresc":"16.5","stresn":"16.5","stresu":"breaths/min","stnrlo":null,"stnrhi":null,"nrind":null,"pos":null,"loc":null,"dtc":"2024-04-25","dy":"28","visit":"C2D1","visitnum":"4.0","epoch":"TREATMENT"},{"seq":"30","testcd":"SYSBP","test":"Systolic Blood Pressure","cat":null,"orres":"127.2","orresu":"mmHg","stresc":"127.2","stresn":"127.2","stresu":"mmHg","stnrlo":null,"stnrhi":null,"nrind":null,"pos":null,"loc":null,"dtc":"2024-04-25","dy":"28","visit":"C2D1","visitnum":"4.0","epoch":"TREATMENT"},{"seq":"31","testcd":"TEMP","test":"Temperature","cat":null,"orres":"36.8","orresu":"C","stresc":"36.8","stresn":"36.8","stresu":"C","stnrlo":null,"stnrhi":null,"nrind":null,"pos":null,"loc":null,"dtc":"2024-04-25","dy":"28","visit":"C2D1","visitnum":"4.0","epoch":"TREATMENT"},{"seq":"32","testcd":"WEIGHT","test":"Weight","cat":null,"orres":"57.9","orresu":"kg","stresc":"57.9","stresn":"57.9","stresu":"kg","stnrlo":null,"stnrhi":null,"nrind":null,"pos":null,"loc":null,"dtc":"2024-04-25","dy":"28","visit":"C2D1","visitnum":"4.0","epoch":"TREATMENT"},{"seq":"33","testcd":"BMI","test":"BMI","cat":null,"orres":"18.2","orresu":"kg/m2","stresc":"18.2","stresn":"18.2","stresu":"kg/m2","stnrlo":null,"stnrhi":null,"nrind":null,"pos":null,"loc":null,"dtc":"2024-05-27","dy":"60","visit":"C3D1","visitnum":"5.0","epoch":"TREATMENT"},{"seq":"34","testcd":"DIABP","test":"Diastolic Blood Pressure","cat":null,"orres":"88.6","orresu":"mmHg","stresc":"88.6","stresn":"88.6","stresu":"mmHg","stnrlo":null,"stnrhi":null,"nrind":null,"pos":null,"loc":null,"dtc":"2024-05-27","dy":"60","visit":"C3D1","visitnum":"5.0","epoch":"TREATMENT"},{"seq":"35","testcd":"HEIGHT","test":"Height","cat":null,"orres":"176.2","orresu":"cm","stresc":"176.2","stresn":"176.2","stresu":"cm","stnrlo":null,"stnrhi":null,"nrind":null,"pos":null,"loc":null,"dtc":"2024-05-27","dy":"60","visit":"C3D1","visitnum":"5.0","epoch":"TREATMENT"},{"seq":"36","testcd":"PULSE","test":"Pulse Rate","cat":null,"orres":"78.2","orresu":"beats/min","stresc":"78.2","stresn":"78.2","stresu":"beats/min","stnrlo":null,"stnrhi":null,"nrind":null,"pos":null,"loc":null,"dtc":"2024-05-27","dy":"60","visit":"C3D1","visitnum":"5.0","epoch":"TREATMENT"},{"seq":"37","testcd":"RESP","test":"Respiratory Rate","cat":null,"orres":"16.5","orresu":"breaths/min","stresc":"16.5","stresn":"16.5","stresu":"breaths/min","stnrlo":null,"stnrhi":null,"nrind":null,"pos":null,"loc":null,"dtc":"2024-05-27","dy":"60","visit":"C3D1","visitnum":"5.0","epoch":"TREATMENT"},{"seq":"38","testcd":"SYSBP","test":"Systolic Blood Pressure","cat":null,"orres":"128.7","orresu":"mmHg","stresc":"128.7","stresn":"128.7","stresu":"mmHg","stnrlo":null,"stnrhi":null,"nrind":null,"pos":null,"loc":null,"dtc":"2024-05-27","dy":"60","visit":"C3D1","visitnum":"5.0","epoch":"TREATMENT"},{"seq":"39","testcd":"TEMP","test":"Temperature","cat":null,"orres":"37.1","orresu":"C","stresc":"37.1","stresn":"37.1","stresu":"C","stnrlo":null,"stnrhi":null,"nrind":null,"pos":null,"loc":null,"dtc":"2024-05-27","dy":"60","visit":"C3D1","visitnum":"5.0","epoch":"TREATMENT"},{"seq":"40","testcd":"WEIGHT","test":"Weight","cat":null,"orres":"56.4","orresu":"kg","stresc":"56.4","stresn":"56.4","stresu":"kg","stnrlo":null,"stnrhi":null,"nrind":null,"pos":null,"loc":null,"dtc":"2024-05-27","dy":"60","visit":"C3D1","visitnum":"5.0","epoch":"TREATMENT"},{"seq":"41","testcd":"BMI","test":"BMI","cat":null,"orres":"17.5","orresu":"kg/m2","stresc":"17.5","stresn":"17.5","stresu":"kg/m2","stnrlo":null,"stnrhi":null,"nrind":null,"pos":null,"loc":null,"dtc":"2024-06-21","dy":"85","visit":"C4D1","visitnum":"6.0","epoch":"TREATMENT"},{"seq":"42","testcd":"DIABP","test":"Diastolic Blood Pressure","cat":null,"orres":"86.7","orresu":"mmHg","stresc":"86.7","stresn":"86.7","stresu":"mmHg","stnrlo":null,"stnrhi":null,"nrind":null,"pos":null,"loc":null,"dtc":"2024-06-21","dy":"85","visit":"C4D1","visitnum":"6.0","epoch":"TREATMENT"},{"seq":"43","testcd":"HEIGHT","test":"Height","cat":null,"orres":"175.7","orresu":"cm","stresc":"175.7","stresn":"175.7","stresu":"cm","stnrlo":null,"stnrhi":null,"nrind":null,"pos":null,"loc":null,"dtc":"2024-06-21","dy":"85","visit":"C4D1","visitnum":"6.0","epoch":"TREATMENT"},{"seq":"44","testcd":"PULSE","test":"Pulse Rate","cat":null,"orres":"77.4","orresu":"beats/min","stresc":"77.4","stresn":"77.4","stresu":"beats/min","stnrlo":null,"stnrhi":null,"nrind":null,"pos":null,"loc":null,"dtc":"2024-06-21","dy":"85","visit":"C4D1","visitnum":"6.0","epoch":"TREATMENT"},{"seq":"45","testcd":"RESP","test":"Respiratory Rate","cat":null,"orres":"15.8","orresu":"breaths/min","stresc":"15.8","stresn":"15.8","stresu":"breaths/min","stnrlo":null,"stnrhi":null,"nrind":null,"pos":null,"loc":null,"dtc":"2024-06-21","dy":"85","visit":"C4D1","visitnum":"6.0","epoch":"TREATMENT"},{"seq":"46","testcd":"SYSBP","test":"Systolic Blood Pressure","cat":null,"orres":"126.1","orresu":"mmHg","stresc":"126.1","stresn":"126.1","stresu":"mmHg","stnrlo":null,"stnrhi":null,"nrind":null,"pos":null,"loc":null,"dtc":"2024-06-21","dy":"85","visit":"C4D1","visitnum":"6.0","epoch":"TREATMENT"},{"seq":"47","testcd":"TEMP","test":"Temperature","cat":null,"orres":"37.1","orresu":"C","stresc":"37.1","stresn":"37.1","stresu":"C","stnrlo":null,"stnrhi":null,"nrind":null,"pos":null,"loc":null,"dtc":"2024-06-21","dy":"85","visit":"C4D1","visitnum":"6.0","epoch":"TREATMENT"},{"seq":"48","testcd":"WEIGHT","test":"Weight","cat":null,"orres":"54.1","orresu":"kg","stresc":"54.1","stresn":"54.1","stresu":"kg","stnrlo":null,"stnrhi":null,"nrind":null,"pos":null,"loc":null,"dtc":"2024-06-21","dy":"85","visit":"C4D1","visitnum":"6.0","epoch":"TREATMENT"},{"seq":"49","testcd":"BMI","test":"BMI","cat":null,"orres":"17.2","orresu":"kg/m2","stresc":"17.2","stresn":"17.2","stresu":"kg/m2","stnrlo":null,"stnrhi":null,"nrind":null,"pos":null,"loc":null,"dtc":"2024-08-22","dy":"147","visit":"C6D1","visitnum":"7.0","epoch":"TREATMENT"},{"seq":"50","testcd":"DIABP","test":"Diastolic Blood Pressure","cat":null,"orres":"87.3","orresu":"mmHg","stresc":"87.3","stresn":"87.3","stresu":"mmHg","stnrlo":null,"stnrhi":null,"nrind":null,"pos":null,"loc":null,"dtc":"2024-08-22","dy":"147","visit":"C6D1","visitnum":"7.0","epoch":"TREATMENT"},{"seq":"51","testcd":"HEIGHT","test":"Height","cat":null,"orres":"175.3","orresu":"cm","stresc":"175.3","stresn":"175.3","stresu":"cm","stnrlo":null,"stnrhi":null,"nrind":null,"pos":null,"loc":null,"dtc":"2024-08-22","dy":"147","visit":"C6D1","visitnum":"7.0","epoch":"TREATMENT"},{"seq":"52","testcd":"PULSE","test":"Pulse Rate","cat":null,"orres":"73.8","orresu":"beats/min","stresc":"73.8","stresn":"73.8","stresu":"beats/min","stnrlo":null,"stnrhi":null,"nrind":null,"pos":null,"loc":null,"dtc":"2024-08-22","dy":"147","visit":"C6D1","visitnum":"7.0","epoch":"TREATMENT"},{"seq":"53","testcd":"RESP","test":"Respiratory Rate","cat":null,"orres":"16.4","orresu":"breaths/min","stresc":"16.4","stresn":"16.4","stresu":"breaths/min","stnrlo":null,"stnrhi":null,"nrind":null,"pos":null,"loc":null,"dtc":"2024-08-22","dy":"147","visit":"C6D1","visitnum":"7.0","epoch":"TREATMENT"},{"seq":"54","testcd":"SYSBP","test":"Systolic Blood Pressure","cat":null,"orres":"125.1","orresu":"mmHg","stresc":"125.1","stresn":"125.1","stresu":"mmHg","stnrlo":null,"stnrhi":null,"nrind":null,"pos":null,"loc":null,"dtc":"2024-08-22","dy":"147","visit":"C6D1","visitnum":"7.0","epoch":"TREATMENT"},{"seq":"55","testcd":"TEMP","test":"Temperature","cat":null,"orres":"37.1","orresu":"C","stresc":"37.1","stresn":"37.1","stresu":"C","stnrlo":null,"stnrhi":null,"nrind":null,"pos":null,"loc":null,"dtc":"2024-08-22","dy":"147","visit":"C6D1","visitnum":"7.0","epoch":"TREATMENT"},{"seq":"56","testcd":"WEIGHT","test":"Weight","cat":null,"orres":"52.9","orresu":"kg","stresc":"52.9","stresn":"52.9","stresu":"kg","stnrlo":null,"stnrhi":null,"nrind":null,"pos":null,"loc":null,"dtc":"2024-08-22","dy":"147","visit":"C6D1","visitnum":"7.0","epoch":"TREATMENT"},{"seq":"57","testcd":"BMI","test":"BMI","cat":null,"orres":"16.3","orresu":"kg/m2","stresc":"16.3","stresn":"16.3","stresu":"kg/m2","stnrlo":null,"stnrhi":null,"nrind":null,"pos":null,"loc":null,"dtc":"2024-09-17","dy":"173","visit":"EOT","visitnum":"8.0","epoch":"TREATMENT"},{"seq":"58","testcd":"DIABP","test":"Diastolic Blood Pressure","cat":null,"orres":"87.4","orresu":"mmHg","stresc":"87.4","stresn":"87.4","stresu":"mmHg","stnrlo":null,"stnrhi":null,"nrind":null,"pos":null,"loc":null,"dtc":"2024-09-17","dy":"173","visit":"EOT","visitnum":"8.0","epoch":"TREATMENT"},{"seq":"59","testcd":"HEIGHT","test":"Height","cat":null,"orres":"175.1","orresu":"cm","stresc":"175.1","stresn":"175.1","stresu":"cm","stnrlo":null,"stnrhi":null,"nrind":null,"pos":null,"loc":null,"dtc":"2024-09-17","dy":"173","visit":"EOT","visitnum":"8.0","epoch":"TREATMENT"},{"seq":"60","testcd":"PULSE","test":"Pulse Rate","cat":null,"orres":"80.1","orresu":"beats/min","stresc":"80.1","stresn":"80.1","stresu":"beats/min","stnrlo":null,"stnrhi":null,"nrind":null,"pos":null,"loc":null,"dtc":"2024-09-17","dy":"173","visit":"EOT","visitnum":"8.0","epoch":"TREATMENT"},{"seq":"61","testcd":"RESP","test":"Respiratory Rate","cat":null,"orres":"16.4","orresu":"breaths/min","stresc":"16.4","stresn":"16.4","stresu":"breaths/min","stnrlo":null,"stnrhi":null,"nrind":null,"pos":null,"loc":null,"dtc":"2024-09-17","dy":"173","visit":"EOT","visitnum":"8.0","epoch":"TREATMENT"},{"seq":"62","testcd":"SYSBP","test":"Systolic Blood Pressure","cat":null,"orres":"125.4","orresu":"mmHg","stresc":"125.4","stresn":"125.4","stresu":"mmHg","stnrlo":null,"stnrhi":null,"nrind":null,"pos":null,"loc":null,"dtc":"2024-09-17","dy":"173","visit":"EOT","visitnum":"8.0","epoch":"TREATMENT"},{"seq":"63","testcd":"TEMP","test":"Temperature","cat":null,"orres":"37.0","orresu":"C","stresc":"37.0","stresn":"37.0","stresu":"C","stnrlo":null,"stnrhi":null,"nrind":null,"pos":null,"loc":null,"dtc":"2024-09-17","dy":"173","visit":"EOT","visitnum":"8.0","epoch":"TREATMENT"},{"seq":"64","testcd":"WEIGHT","test":"Weight","cat":null,"orres":"50.1","orresu":"kg","stresc":"50.1","stresn":"50.1","stresu":"kg","stnrlo":null,"stnrhi":null,"nrind":null,"pos":null,"loc":null,"dtc":"2024-09-17","dy":"173","visit":"EOT","visitnum":"8.0","epoch":"TREATMENT"},{"seq":"65","testcd":"BMI","test":"BMI","cat":null,"orres":"16.0","orresu":"kg/m2","stresc":"16.0","stresn":"16.0","stresu":"kg/m2","stnrlo":null,"stnrhi":null,"nrind":null,"pos":null,"loc":null,"dtc":"2024-10-07","dy":"193","visit":"FOLLOW-UP","visitnum":"9.0","epoch":"FOLLOW-UP"},{"seq":"66","testcd":"DIABP","test":"Diastolic Blood Pressure","cat":null,"orres":"88.8","orresu":"mmHg","stresc":"88.8","stresn":"88.8","stresu":"mmHg","stnrlo":null,"stnrhi":null,"nrind":null,"pos":null,"loc":null,"dtc":"2024-10-07","dy":"193","visit":"FOLLOW-UP","visitnum":"9.0","epoch":"FOLLOW-UP"},{"seq":"67","testcd":"HEIGHT","test":"Height","cat":null,"orres":"175.2","orresu":"cm","stresc":"175.2","stresn":"175.2","stresu":"cm","stnrlo":null,"stnrhi":null,"nrind":null,"pos":null,"loc":null,"dtc":"2024-10-07","dy":"193","visit":"FOLLOW-UP","visitnum":"9.0","epoch":"FOLLOW-UP"},{"seq":"68","testcd":"PULSE","test":"Pulse Rate","cat":null,"orres":"81.8","orresu":"beats/min","stresc":"81.8","stresn":"81.8","stresu":"beats/min","stnrlo":null,"stnrhi":null,"nrind":null,"pos":null,"loc":null,"dtc":"2024-10-07","dy":"193","visit":"FOLLOW-UP","visitnum":"9.0","epoch":"FOLLOW-UP"},{"seq":"69","testcd":"RESP","test":"Respiratory Rate","cat":null,"orres":"17.0","orresu":"breaths/min","stresc":"17.0","stresn":"17.0","stresu":"breaths/min","stnrlo":null,"stnrhi":null,"nrind":null,"pos":null,"loc":null,"dtc":"2024-10-07","dy":"193","visit":"FOLLOW-UP","visitnum":"9.0","epoch":"FOLLOW-UP"},{"seq":"70","testcd":"SYSBP","test":"Systolic Blood Pressure","cat":null,"orres":"129.3","orresu":"mmHg","stresc":"129.3","stresn":"129.3","stresu":"mmHg","stnrlo":null,"stnrhi":null,"nrind":null,"pos":null,"loc":null,"dtc":"2024-10-07","dy":"193","visit":"FOLLOW-UP","visitnum":"9.0","epoch":"FOLLOW-UP"},{"seq":"71","testcd":"TEMP","test":"Temperature","cat":null,"orres":"37.2","orresu":"C","stresc":"37.2","stresn":"37.2","stresu":"C","stnrlo":null,"stnrhi":null,"nrind":null,"pos":null,"loc":null,"dtc":"2024-10-07","dy":"193","visit":"FOLLOW-UP","visitnum":"9.0","epoch":"FOLLOW-UP"},{"seq":"72","testcd":"WEIGHT","test":"Weight","cat":null,"orres":"49.2","orresu":"kg","stresc":"49.2","stresn":"49.2","stresu":"kg","stnrlo":null,"stnrhi":null,"nrind":null,"pos":null,"loc":null,"dtc":"2024-10-07","dy":"193","visit":"FOLLOW-UP","visitnum":"9.0","epoch":"FOLLOW-UP"}]},"section_10_questionnaires_and_scores":{"questionnaires":[],"findings_about":[{"seq":"1","testcd":"LDIAM","test":"Longest Diameter","cat":"TUMOR ASSESSMENT","orres":"34.2","stresc":"34.2","stresn":"34.2","dtc":"2024-03-21","visit":"SCREENING"},{"seq":"2","testcd":"SAXIS","test":"Short Axis","cat":"TUMOR ASSESSMENT","orres":"15.0","stresc":"15.0","stresn":"15.0","dtc":"2024-03-21","visit":"SCREENING"},{"seq":"3","testcd":"LDIAM","test":"Longest Diameter","cat":"TUMOR ASSESSMENT","orres":"16.6","stresc":"16.6","stresn":"16.6","dtc":"2024-03-21","visit":"SCREENING"},{"seq":"4","testcd":"SAXIS","test":"Short Axis","cat":"TUMOR ASSESSMENT","orres":"4.9","stresc":"4.9","stresn":"4.9","dtc":"2024-03-21","visit":"SCREENING"},{"seq":"5","testcd":"LDIAM","test":"Longest Diameter","cat":"TUMOR ASSESSMENT","orres":"49.0","stresc":"49.0","stresn":"49.0","dtc":"2024-03-21","visit":"SCREENING"},{"seq":"6","testcd":"SAXIS","test":"Short Axis","cat":"TUMOR ASSESSMENT","orres":"10.7","stresc":"10.7","stresn":"10.7","dtc":"2024-03-21","visit":"SCREENING"},{"seq":"7","testcd":"LDIAM","test":"Longest Diameter","cat":"TUMOR ASSESSMENT","orres":"64.1","stresc":"64.1","stresn":"64.1","dtc":"2024-03-21","visit":"SCREENING"},{"seq":"8","testcd":"SAXIS","test":"Short Axis","cat":"TUMOR ASSESSMENT","orres":"21.9","stresc":"21.9","stresn":"21.9","dtc":"2024-03-21","visit":"SCREENING"},{"seq":"9","testcd":"LDIAM","test":"Longest Diameter","cat":"TUMOR ASSESSMENT","orres":"37.7","stresc":"37.7","stresn":"37.7","dtc":"2024-03-21","visit":"SCREENING"},{"seq":"10","testcd":"SAXIS","test":"Short Axis","cat":"TUMOR ASSESSMENT","orres":"3","stresc":"3","stresn":"3.0","dtc":"2024-03-21","visit":"SCREENING"},{"seq":"11","testcd":"LDIAM","test":"Longest Diameter","cat":"TUMOR ASSESSMENT","orres":"36.2","stresc":"36.2","stresn":"36.2","dtc":"2024-03-29","visit":"C1D1"},{"seq":"12","testcd":"SAXIS","test":"Short Axis","cat":"TUMOR ASSESSMENT","orres":"15.1","stresc":"15.1","stresn":"15.1","dtc":"2024-03-29","visit":"C1D1"},{"seq":"13","testcd":"LDIAM","test":"Longest Diameter","cat":"TUMOR ASSESSMENT","orres":"16.1","stresc":"16.1","stresn":"16.1","dtc":"2024-03-29","visit":"C1D1"},{"seq":"14","testcd":"SAXIS","test":"Short Axis","cat":"TUMOR ASSESSMENT","orres":"6.1","stresc":"6.1","stresn":"6.1","dtc":"2024-03-29","visit":"C1D1"},{"seq":"15","testcd":"LDIAM","test":"Longest Diameter","cat":"TUMOR ASSESSMENT","orres":"47.1","stresc":"47.1","stresn":"47.1","dtc":"2024-03-29","visit":"C1D1"},{"seq":"16","testcd":"SAXIS","test":"Short Axis","cat":"TUMOR ASSESSMENT","orres":"10.2","stresc":"10.2","stresn":"10.2","dtc":"2024-03-29","visit":"C1D1"},{"seq":"17","testcd":"LDIAM","test":"Longest Diameter","cat":"TUMOR ASSESSMENT","orres":"59.3","stresc":"59.3","stresn":"59.3","dtc":"2024-03-29","visit":"C1D1"},{"seq":"18","testcd":"SAXIS","test":"Short Axis","cat":"TUMOR ASSESSMENT","orres":"20.7","stresc":"20.7","stresn":"20.7","dtc":"2024-03-29","visit":"C1D1"},{"seq":"19","testcd":"LDIAM","test":"Longest Diameter","cat":"TUMOR ASSESSMENT","orres":"37.1","stresc":"37.1","stresn":"37.1","dtc":"2024-03-29","visit":"C1D1"},{"seq":"20","testcd":"SAXIS","test":"Short Axis","cat":"TUMOR ASSESSMENT","orres":"3","stresc":"3","stresn":"3.0","dtc":"2024-03-29","visit":"C1D1"},{"seq":"21","testcd":"LDIAM","test":"Longest Diameter","cat":"TUMOR ASSESSMENT","orres":"29.0","stresc":"29.0","stresn":"29.0","dtc":"2024-04-12","visit":"C1D15"},{"seq":"22","testcd":"SAXIS","test":"Short Axis","cat":"TUMOR ASSESSMENT","orres":"13.0","stresc":"13.0","stresn":"13.0","dtc":"2024-04-12","visit":"C1D15"},{"seq":"23","testcd":"LDIAM","test":"Longest Diameter","cat":"TUMOR ASSESSMENT","orres":"16.4","stresc":"16.4","stresn":"16.4","dtc":"2024-04-12","visit":"C1D15"},{"seq":"24","testcd":"SAXIS","test":"Short Axis","cat":"TUMOR ASSESSMENT","orres":"4.7","stresc":"4.7","stresn":"4.7","dtc":"2024-04-12","visit":"C1D15"},{"seq":"25","testcd":"LDIAM","test":"Longest Diameter","cat":"TUMOR ASSESSMENT","orres":"43.9","stresc":"43.9","stresn":"43.9","dtc":"2024-04-12","visit":"C1D15"},{"seq":"26","testcd":"SAXIS","test":"Short Axis","cat":"TUMOR ASSESSMENT","orres":"9.6","stresc":"9.6","stresn":"9.6","dtc":"2024-04-12","visit":"C1D15"},{"seq":"27","testcd":"LDIAM","test":"Longest Diameter","cat":"TUMOR ASSESSMENT","orres":"55.3","stresc":"55.3","stresn":"55.3","dtc":"2024-04-12","visit":"C1D15"},{"seq":"28","testcd":"SAXIS","test":"Short Axis","cat":"TUMOR ASSESSMENT","orres":"19.2","stresc":"19.2","stresn":"19.2","dtc":"2024-04-12","visit":"C1D15"},{"seq":"29","testcd":"LDIAM","test":"Longest Diameter","cat":"TUMOR ASSESSMENT","orres":"35.1","stresc":"35.1","stresn":"35.1","dtc":"2024-04-12","visit":"C1D15"},{"seq":"30","testcd":"SAXIS","test":"Short Axis","cat":"TUMOR ASSESSMENT","orres":"3.5","stresc":"3.5","stresn":"3.5","dtc":"2024-04-12","visit":"C1D15"},{"seq":"31","testcd":"LDIAM","test":"Longest Diameter","cat":"TUMOR ASSESSMENT","orres":"29.2","stresc":"29.2","stresn":"29.2","dtc":"2024-04-26","visit":"C2D1"},{"seq":"32","testcd":"SAXIS","test":"Short Axis","cat":"TUMOR ASSESSMENT","orres":"12.6","stresc":"12.6","stresn":"12.6","dtc":"2024-04-26","visit":"C2D1"},{"seq":"33","testcd":"LDIAM","test":"Longest Diameter","cat":"TUMOR ASSESSMENT","orres":"12.8","stresc":"12.8","stresn":"12.8","dtc":"2024-04-26","visit":"C2D1"},{"seq":"34","testcd":"SAXIS","test":"Short Axis","cat":"TUMOR ASSESSMENT","orres":"4.1","stresc":"4.1","stresn":"4.1","dtc":"2024-04-26","visit":"C2D1"},{"seq":"35","testcd":"LDIAM","test":"Longest Diameter","cat":"TUMOR ASSESSMENT","orres":"40.5","stresc":"40.5","stresn":"40.5","dtc":"2024-04-26","visit":"C2D1"},{"seq":"36","testcd":"SAXIS","test":"Short Axis","cat":"TUMOR ASSESSMENT","orres":"9.2","stresc":"9.2","stresn":"9.2","dtc":"2024-04-26","visit":"C2D1"},{"seq":"37","testcd":"LDIAM","test":"Longest Diameter","cat":"TUMOR ASSESSMENT","orres":"52.5","stresc":"52.5","stresn":"52.5","dtc":"2024-04-26","visit":"C2D1"},{"seq":"38","testcd":"SAXIS","test":"Short Axis","cat":"TUMOR ASSESSMENT","orres":"18.0","stresc":"18.0","stresn":"18.0","dtc":"2024-04-26","visit":"C2D1"},{"seq":"39","testcd":"LDIAM","test":"Longest Diameter","cat":"TUMOR ASSESSMENT","orres":"30.7","stresc":"30.7","stresn":"30.7","dtc":"2024-04-26","visit":"C2D1"},{"seq":"40","testcd":"SAXIS","test":"Short Axis","cat":"TUMOR ASSESSMENT","orres":"3","stresc":"3","stresn":"3.0","dtc":"2024-04-26","visit":"C2D1"},{"seq":"41","testcd":"LDIAM","test":"Longest Diameter","cat":"TUMOR ASSESSMENT","orres":"27.4","stresc":"27.4","stresn":"27.4","dtc":"2024-05-24","visit":"C3D1"},{"seq":"42","testcd":"SAXIS","test":"Short Axis","cat":"TUMOR ASSESSMENT","orres":"10.8","stresc":"10.8","stresn":"10.8","dtc":"2024-05-24","visit":"C3D1"},{"seq":"43","testcd":"LDIAM","test":"Longest Diameter","cat":"TUMOR ASSESSMENT","orres":"12.8","stresc":"12.8","stresn":"12.8","dtc":"2024-05-24","visit":"C3D1"},{"seq":"44","testcd":"SAXIS","test":"Short Axis","cat":"TUMOR ASSESSMENT","orres":"3.9","stresc":"3.9","stresn":"3.9","dtc":"2024-05-24","visit":"C3D1"},{"seq":"45","testcd":"LDIAM","test":"Longest Diameter","cat":"TUMOR ASSESSMENT","orres":"36.6","stresc":"36.6","stresn":"36.6","dtc":"2024-05-24","visit":"C3D1"},{"seq":"46","testcd":"SAXIS","test":"Short Axis","cat":"TUMOR ASSESSMENT","orres":"8.6","stresc":"8.6","stresn":"8.6","dtc":"2024-05-24","visit":"C3D1"},{"seq":"47","testcd":"LDIAM","test":"Longest Diameter","cat":"TUMOR ASSESSMENT","orres":"45.1","stresc":"45.1","stresn":"45.1","dtc":"2024-05-24","visit":"C3D1"},{"seq":"48","testcd":"SAXIS","test":"Short Axis","cat":"TUMOR ASSESSMENT","orres":"16.5","stresc":"16.5","stresn":"16.5","dtc":"2024-05-24","visit":"C3D1"},{"seq":"49","testcd":"LDIAM","test":"Longest Diameter","cat":"TUMOR ASSESSMENT","orres":"29.5","stresc":"29.5","stresn":"29.5","dtc":"2024-05-24","visit":"C3D1"},{"seq":"50","testcd":"SAXIS","test":"Short Axis","cat":"TUMOR ASSESSMENT","orres":"3","stresc":"3","stresn":"3.0","dtc":"2024-05-24","visit":"C3D1"},{"seq":"51","testcd":"LDIAM","test":"Longest Diameter","cat":"TUMOR ASSESSMENT","orres":"24.2","stresc":"24.2","stresn":"24.2","dtc":"2024-06-21","visit":"C4D1"},{"seq":"52","testcd":"SAXIS","test":"Short Axis","cat":"TUMOR ASSESSMENT","orres":"10.6","stresc":"10.6","stresn":"10.6","dtc":"2024-06-21","visit":"C4D1"},{"seq":"53","testcd":"LDIAM","test":"Longest Diameter","cat":"TUMOR ASSESSMENT","orres":"10.0","stresc":"10.0","stresn":"10.0","dtc":"2024-06-21","visit":"C4D1"},{"seq":"54","testcd":"SAXIS","test":"Short Axis","cat":"TUMOR ASSESSMENT","orres":"3.6","stresc":"3.6","stresn":"3.6","dtc":"2024-06-21","visit":"C4D1"},{"seq":"55","testcd":"LDIAM","test":"Longest Diameter","cat":"TUMOR ASSESSMENT","orres":"34.4","stresc":"34.4","stresn":"34.4","dtc":"2024-06-21","visit":"C4D1"},{"seq":"56","testcd":"SAXIS","test":"Short Axis","cat":"TUMOR ASSESSMENT","orres":"8.3","stresc":"8.3","stresn":"8.3","dtc":"2024-06-21","visit":"C4D1"},{"seq":"57","testcd":"LDIAM","test":"Longest Diameter","cat":"TUMOR ASSESSMENT","orres":"44.3","stresc":"44.3","stresn":"44.3","dtc":"2024-06-21","visit":"C4D1"},{"seq":"58","testcd":"SAXIS","test":"Short Axis","cat":"TUMOR ASSESSMENT","orres":"15.4","stresc":"15.4","stresn":"15.4","dtc":"2024-06-21","visit":"C4D1"},{"seq":"59","testcd":"LDIAM","test":"Longest Diameter","cat":"TUMOR ASSESSMENT","orres":"27.6","stresc":"27.6","stresn":"27.6","dtc":"2024-06-21","visit":"C4D1"},{"seq":"60","testcd":"SAXIS","test":"Short Axis","cat":"TUMOR ASSESSMENT","orres":"3","stresc":"3","stresn":"3.0","dtc":"2024-06-21","visit":"C4D1"},{"seq":"61","testcd":"LDIAM","test":"Longest Diameter","cat":"TUMOR ASSESSMENT","orres":"23.0","stresc":"23.0","stresn":"23.0","dtc":"2024-08-16","visit":"C6D1"},{"seq":"62","testcd":"SAXIS","test":"Short Axis","cat":"TUMOR ASSESSMENT","orres":"9.1","stresc":"9.1","stresn":"9.1","dtc":"2024-08-16","visit":"C6D1"},{"seq":"63","testcd":"LDIAM","test":"Longest Diameter","cat":"TUMOR ASSESSMENT","orres":"9.9","stresc":"9.9","stresn":"9.9","dtc":"2024-08-16","visit":"C6D1"},{"seq":"64","testcd":"SAXIS","test":"Short Axis","cat":"TUMOR ASSESSMENT","orres":"3","stresc":"3","stresn":"3.0","dtc":"2024-08-16","visit":"C6D1"},{"seq":"65","testcd":"LDIAM","test":"Longest Diameter","cat":"TUMOR ASSESSMENT","orres":"33.0","stresc":"33.0","stresn":"33.0","dtc":"2024-08-16","visit":"C6D1"},{"seq":"66","testcd":"SAXIS","test":"Short Axis","cat":"TUMOR ASSESSMENT","orres":"7.5","stresc":"7.5","stresn":"7.5","dtc":"2024-08-16","visit":"C6D1"},{"seq":"67","testcd":"LDIAM","test":"Longest Diameter","cat":"TUMOR ASSESSMENT","orres":"41.3","stresc":"41.3","stresn":"41.3","dtc":"2024-08-16","visit":"C6D1"},{"seq":"68","testcd":"SAXIS","test":"Short Axis","cat":"TUMOR ASSESSMENT","orres":"14.6","stresc":"14.6","stresn":"14.6","dtc":"2024-08-16","visit":"C6D1"},{"seq":"69","testcd":"LDIAM","test":"Longest Diameter","cat":"TUMOR ASSESSMENT","orres":"23.6","stresc":"23.6","stresn":"23.6","dtc":"2024-08-16","visit":"C6D1"},{"seq":"70","testcd":"SAXIS","test":"Short Axis","cat":"TUMOR ASSESSMENT","orres":"3","stresc":"3","stresn":"3.0","dtc":"2024-08-16","visit":"C6D1"},{"seq":"71","testcd":"LDIAM","test":"Longest Diameter","cat":"TUMOR ASSESSMENT","orres":"20.0","stresc":"20.0","stresn":"20.0","dtc":"2024-09-13","visit":"EOT"},{"seq":"72","testcd":"SAXIS","test":"Short Axis","cat":"TUMOR ASSESSMENT","orres":"9.5","stresc":"9.5","stresn":"9.5","dtc":"2024-09-13","visit":"EOT"},{"seq":"73","testcd":"LDIAM","test":"Longest Diameter","cat":"TUMOR ASSESSMENT","orres":"10.8","stresc":"10.8","stresn":"10.8","dtc":"2024-09-13","visit":"EOT"},{"seq":"74","testcd":"SAXIS","test":"Short Axis","cat":"TUMOR ASSESSMENT","orres":"3","stresc":"3","stresn":"3.0","dtc":"2024-09-13","visit":"EOT"},{"seq":"75","testcd":"LDIAM","test":"Longest Diameter","cat":"TUMOR ASSESSMENT","orres":"30.0","stresc":"30.0","stresn":"30.0","dtc":"2024-09-13","visit":"EOT"},{"seq":"76","testcd":"SAXIS","test":"Short Axis","cat":"TUMOR ASSESSMENT","orres":"5.7","stresc":"5.7","stresn":"5.7","dtc":"2024-09-13","visit":"EOT"},{"seq":"77","testcd":"LDIAM","test":"Longest Diameter","cat":"TUMOR ASSESSMENT","orres":"39.2","stresc":"39.2","stresn":"39.2","dtc":"2024-09-13","visit":"EOT"},{"seq":"78","testcd":"SAXIS","test":"Short Axis","cat":"TUMOR ASSESSMENT","orres":"13.0","stresc":"13.0","stresn":"13.0","dtc":"2024-09-13","visit":"EOT"},{"seq":"79","testcd":"LDIAM","test":"Longest Diameter","cat":"TUMOR ASSESSMENT","orres":"23.5","stresc":"23.5","stresn":"23.5","dtc":"2024-09-13","visit":"EOT"},{"seq":"80","testcd":"SAXIS","test":"Short Axis","cat":"TUMOR ASSESSMENT","orres":"3","stresc":"3","stresn":"3.0","dtc":"2024-09-13","visit":"EOT"}]},"section_11_protocol_deviations":{"deviations":[{"seq":"1","term":"Missed TEPOTINIB dose on 2024-04-15","decod":"MISSED DOSE","cat":"MINOR","scat":"DOSING","start_dtc":"2024-04-15","end_dtc":null,"visit":null},{"seq":"2","term":"Missed TEPOTINIB dose on 2024-04-17","decod":"MISSED DOSE","cat":"MINOR","scat":"DOSING","start_dtc":"2024-04-17","end_dtc":null,"visit":null},{"seq":"3","term":"Missed TEPOTINIB dose on 2024-04-18","decod":"MISSED DOSE","cat":"MINOR","scat":"DOSING","start_dtc":"2024-04-18","end_dtc":null,"visit":null},{"seq":"4","term":"Missed TEPOTINIB dose on 2024-04-29","decod":"MISSED DOSE","cat":"MINOR","scat":"DOSING","start_dtc":"2024-04-29","end_dtc":null,"visit":null},{"seq":"5","term":"Missed TEPOTINIB dose on 2024-05-02","decod":"MISSED DOSE","cat":"MINOR","scat":"DOSING","start_dtc":"2024-05-02","end_dtc":null,"visit":null},{"seq":"6","term":"Missed TEPOTINIB dose on 2024-05-10","decod":"MISSED DOSE","cat":"MINOR","scat":"DOSING","start_dtc":"2024-05-10","end_dtc":null,"visit":null},{"seq":"7","term":"Missed TEPOTINIB dose on 2024-05-14","decod":"MISSED DOSE","cat":"MINOR","scat":"DOSING","start_dtc":"2024-05-14","end_dtc":null,"visit":null},{"seq":"8","term":"Missed TEPOTINIB dose on 2024-05-16","decod":"MISSED DOSE","cat":"MINOR","scat":"DOSING","start_dtc":"2024-05-16","end_dtc":null,"visit":null},{"seq":"9","term":"Missed TEPOTINIB dose on 2024-05-19","decod":"MISSED DOSE","cat":"MINOR","scat":"DOSING","start_dtc":"2024-05-19","end_dtc":null,"visit":null},{"seq":"10","term":"Missed TEPOTINIB dose on 2024-05-25","decod":"MISSED DOSE","cat":"MINOR","scat":"DOSING","start_dtc":"2024-05-25","end_dtc":null,"visit":null},{"seq":"11","term":"Missed TEPOTINIB dose on 2024-06-07","decod":"MISSED DOSE","cat":"MINOR","scat":"DOSING","start_dtc":"2024-06-07","end_dtc":null,"visit":null},{"seq":"12","term":"Missed TEPOTINIB dose on 2024-06-13","decod":"MISSED DOSE","cat":"MINOR","scat":"DOSING","start_dtc":"2024-06-13","end_dtc":null,"visit":null},{"seq":"13","term":"Missed TEPOTINIB dose on 2024-06-17","decod":"MISSED DOSE","cat":"MINOR","scat":"DOSING","start_dtc":"2024-06-17","end_dtc":null,"visit":null},{"seq":"14","term":"Visit C6D1 occurred 6 days late (Day 147 vs planned Day 141)","decod":"VISIT OCCURRED OUTSIDE VISIT WINDOW","cat":"MINOR","scat":"VISIT WINDOW","start_dtc":"2024-08-22","end_dtc":null,"visit":null},{"seq":"15","term":"Visit FOLLOW-UP occurred 6 days early (Day 193 vs planned Day 199)","decod":"VISIT OCCURRED OUTSIDE VISIT WINDOW","cat":"MINOR","scat":"VISIT WINDOW","start_dtc":"2024-10-07","end_dtc":null,"visit":null}],"total":15},"section_12_disposition":{"completion_status":"COMPLETED","disposition_records":[{"seq":"1","term":"INFORMED CONSENT OBTAINED","decod":"INFORMED CONSENT OBTAINED","cat":"PROTOCOL MILESTONE","scat":null,"dtc":"2024-03-21","dy":null,"visit":null,"epoch":"SCREENING"},{"seq":"2","term":"RANDOMIZED","decod":"RANDOMIZED","cat":"PROTOCOL MILESTONE","scat":null,"dtc":"2024-03-29","dy":null,"visit":null,"epoch":"TREATMENT"},{"seq":"3","term":"COMPLETED","decod":"COMPLETED","cat":"DISPOSITION EVENT","scat":null,"dtc":"2024-11-09","dy":null,"visit":null,"epoch":"FOLLOW-UP"}],"death":null},"section_13_hospitalizations":{"items":[{"seq":"1","term":"Oedema peripheral","decod":"Oedema peripheral","cat":"EMERGENCY ROOM VISIT","start_dtc":"2024-04-12","end_dtc":"2024-04-28","epoch":"TREATMENT"},{"seq":"2","term":"Nausea","decod":"Nausea","cat":"HOSPITALIZATION","start_dtc":"2024-04-30","end_dtc":"2024-05-14","epoch":"TREATMENT"},{"seq":"3","term":"Oedema peripheral","decod":"Oedema peripheral","cat":"HOSPITALIZATION","start_dtc":"2024-06-19","end_dtc":"2024-07-01","epoch":"TREATMENT"}],"total":3},"section_14_substance_use":{"items":[{"seq":"1","substance":"ALCOHOL","decod":"ALCOHOL","cat":"ALCOHOL","scat":null,"usage":"Y","dose":"10.0","dosu":"DRINKS/WEEK","freq":"QW","start_dtc":"2023-03-22","end_dtc":null},{"seq":"2","substance":"COFFEE","decod":"COFFEE","cat":"CAFFEINE","scat":null,"usage":"N","dose":null,"dosu":null,"freq":null,"start_dtc":null,"end_dtc":null},{"seq":"3","substance":"CIGARETTES","decod":"CIGARETTES","cat":"TOBACCO","scat":"CIGARETTES","usage":"N","dose":null,"dosu":null,"freq":null,"start_dtc":null,"end_dtc":null}],"total":3},"section_15_subject_status":{"items":[{"seq":"1","testcd":"SURVSTAT","test":"Survival Status","orres":"ALIVE","stresc":"ALIVE","dtc":"2024-10-13","visit":"FOLLOW-UP","epoch":"FOLLOW-UP"}],"total":1}}