{"subject_id":"VISION-NSCLC-SITE003-0057","study_id":"VISION-NSCLC","generated_at":"2026-06-09T04:14:30.853210+00:00","sdtmig_version":"3.4","flags":{"has_serious_ae":true,"has_fatal_ae":false,"has_protocol_deviation":true,"n_protocol_deviations":10,"n_adverse_events":1,"n_concomitant_meds":1,"max_ae_severity":"SEVERE","screen_failure":false,"discontinued_early":false,"discontinuation_reason":null,"death":false,"exposure_days":137},"timeline":[{"dtc":"2024-03-20","dy":"-11","event":"INFORMED CONSENT OBTAINED","domain":"DS","category":"milestone"},{"dtc":"2024-03-21","dy":"-10","event":"VISIT: SCREENING","domain":"SV","category":"visit"},{"dtc":"2024-03-31","dy":"1","event":"RANDOMIZED","domain":"DS","category":"milestone"},{"dtc":"2024-03-31","dy":"1","event":"FIRST DOSE: TEPOTINIB","domain":"EX","category":"exposure"},{"dtc":"2024-03-31","dy":"1","event":"VISIT: C1D1","domain":"SV","category":"visit"},{"dtc":"2024-04-16","dy":"17","event":"VISIT: C1D15","domain":"SV","category":"visit"},{"dtc":"2024-04-29","dy":"30","event":"VISIT: C2D1","domain":"SV","category":"visit"},{"dtc":"2024-05-21","dy":"52","event":"DEVIATION: MISSED DOSE","domain":"DV","category":"deviation"},{"dtc":"2024-05-22","dy":"53","event":"DEVIATION: MISSED DOSE","domain":"DV","category":"deviation"},{"dtc":"2024-05-24","dy":"55","event":"VISIT: C3D1","domain":"SV","category":"visit"},{"dtc":"2024-06-23","dy":"85","event":"DEVIATION: MISSED DOSE","domain":"DV","category":"deviation"},{"dtc":"2024-06-26","dy":"88","event":"VISIT: C4D1","domain":"SV","category":"visit"},{"dtc":"2024-06-27","dy":"89","event":"DEVIATION: MISSED DOSE","domain":"DV","category":"deviation"},{"dtc":"2024-07-03","dy":"95","event":"DEVIATION: MISSED DOSE","domain":"DV","category":"deviation"},{"dtc":"2024-07-23","dy":"115","event":"DEVIATION: MISSED DOSE","domain":"DV","category":"deviation"},{"dtc":"2024-07-25","dy":"117","event":"DEVIATION: MISSED DOSE","domain":"DV","category":"deviation"},{"dtc":"2024-07-26","dy":"118","event":"DEVIATION: MISSED DOSE","domain":"DV","category":"deviation"},{"dtc":"2024-08-15","dy":"138","event":"AE: Oedema peripheral (SEVERE) [SERIOUS]","domain":"AE","category":"adverse_event"},{"dtc":"2024-08-15","dy":"138","event":"CM START: FUROSEMIDE","domain":"CM","category":"concomitant_med"},{"dtc":"2024-08-19","dy":"142","event":"DEVIATION: VISIT OCCURRED OUTSIDE VISIT WINDOW","domain":"DV","category":"deviation"},{"dtc":"2024-08-19","dy":"142","event":"VISIT: C6D1","domain":"SV","category":"visit"},{"dtc":"2024-09-16","dy":"170","event":"VISIT: EOT","domain":"SV","category":"visit"},{"dtc":"2024-10-16","dy":"200","event":"DEVIATION: VISIT OCCURRED OUTSIDE VISIT WINDOW","domain":"DV","category":"deviation"},{"dtc":"2024-10-16","dy":"200","event":"VISIT: FOLLOW-UP","domain":"SV","category":"visit"},{"dtc":"2024-11-11","dy":"226","event":"COMPLETED","domain":"DS","category":"milestone"}],"section_1_demographics":{"usubjid":"VISION-NSCLC-SITE003-0057","subjid":"0057","siteid":"SITE003","age":"40","ageu":"YEARS","sex":"M","race":"BLACK OR AFRICAN AMERICAN","ethnicity":"NOT HISPANIC OR LATINO","country":"USA","arm":"Tepotinib 500mg QD","armcd":"TEP500","actarm":"Tepotinib 500mg QD","actarmcd":"TEP500","randomization_date":null,"informed_consent_date":"2024-03-20","reference_start_date":"2024-03-31","reference_end_date":"2024-11-11","screen_failure":false,"death_flag":null,"death_date":null,"subject_characteristics":[{"testcd":"ALCUSE","test":"Alcohol Use","orres":"NON-DRINKER","stresc":"NON-DRINKER","visit":null,"dtc":"2024-03-20"},{"testcd":"BMI","test":"Body Mass Index","orres":"27.7","stresc":"27.7","visit":null,"dtc":"2024-03-20"},{"testcd":"DURDIS","test":"Duration of Disease","orres":"85 months","stresc":"85","visit":null,"dtc":"2024-03-20"},{"testcd":"TOBPKYR","test":"Tobacco Pack-Years","orres":"29","stresc":"29","visit":null,"dtc":"2024-03-20"},{"testcd":"TOBUSE","test":"Tobacco Use","orres":"FORMER SMOKER","stresc":"FORMER SMOKER","visit":null,"dtc":"2024-03-20"}]},"section_2_medical_history":{"items":[{"seq":"1","term":"ASTHMA","decod":"ASTHMA","cat":"RESPIRATORY","scat":null,"presp":null,"occur":null,"status":null,"onset_dtc":"2023-03-21","end_dtc":null,"visit":null},{"seq":"2","term":"DEPRESSION","decod":"DEPRESSION","cat":"PSYCHIATRIC","scat":null,"presp":null,"occur":null,"status":null,"onset_dtc":"2020-03","end_dtc":null,"visit":null},{"seq":"3","term":"DIABETES MELLITUS TYPE 2","decod":"DIABETES MELLITUS TYPE 2","cat":"ENDOCRINE","scat":null,"presp":null,"occur":null,"status":null,"onset_dtc":"2018-03-22","end_dtc":"2023-02-02","visit":null},{"seq":"4","term":"HYPERLIPIDEMIA","decod":"HYPERLIPIDEMIA","cat":"METABOLIC","scat":null,"presp":null,"occur":null,"status":null,"onset_dtc":"2017-03-22","end_dtc":"2022-10-19","visit":null}]},"section_3_inclusion_exclusion":{"criteria":[]},"section_4_trial_participation":{"visits":[{"visitnum":"1.0","visit":"SCREENING","start_dtc":"2024-03-21","end_dtc":"2024-03-21","updes":null},{"visitnum":"2.0","visit":"C1D1","start_dtc":"2024-03-31","end_dtc":"2024-03-31","updes":null},{"visitnum":"3.0","visit":"C1D15","start_dtc":"2024-04-16","end_dtc":"2024-04-16","updes":null},{"visitnum":"4.0","visit":"C2D1","start_dtc":"2024-04-29","end_dtc":"2024-04-29","updes":null},{"visitnum":"5.0","visit":"C3D1","start_dtc":"2024-05-24","end_dtc":"2024-05-24","updes":null},{"visitnum":"6.0","visit":"C4D1","start_dtc":"2024-06-26","end_dtc":"2024-06-26","updes":null},{"visitnum":"7.0","visit":"C6D1","start_dtc":"2024-08-19","end_dtc":"2024-08-19","updes":null},{"visitnum":"8.0","visit":"EOT","start_dtc":"2024-09-16","end_dtc":"2024-09-16","updes":null},{"visitnum":"9.0","visit":"FOLLOW-UP","start_dtc":"2024-10-16","end_dtc":"2024-10-16","updes":null}],"epochs":[{"seq":"1","etcd":"SCRN","element":"Screening","start_dtc":"2024-03-03","end_dtc":"2024-03-31","updes":null},{"seq":"2","etcd":"TRT","element":"Treatment","start_dtc":"2024-03-31","end_dtc":"2024-09-15","updes":null},{"seq":"3","etcd":"FU","element":"Follow-up","start_dtc":"2024-09-15","end_dtc":"2024-10-14","updes":null}],"visit_count":9},"section_5_concomitant_medications":{"medications":[{"seq":"1","trt":"FUROSEMIDE","decod":"FUROSEMIDE","cat":"CONCOMITANT","dose":"20.0","doseu":null,"dosef":"QD","route":"ORAL","indication":"OEDEMA PERIPHERAL","start_dtc":"2024-08-15","end_dtc":"2024-09-07","ongoing":null,"visit":null}]},"section_6_exposure":{"exposure_as_administered":[{"seq":"1","trt":"TEPOTINIB","dose":"500.0","doseu":null,"dosef":"QD","route":"ORAL","lot":null,"start_dtc":"2024-03-31","end_dtc":"2024-08-15","start_dy":"1","end_dy":"138","epoch":"TREATMENT","visit":null}],"exposure_as_collected":[{"seq":"1","trt":"TEPOTINIB","dose":"500.0","doseu":null,"dosef":"QD","route":"ORAL","start_dtc":"2024-03-31","end_dtc":"2024-03-31","visit":"C1D1"},{"seq":"2","trt":"TEPOTINIB","dose":"500.0","doseu":null,"dosef":"QD","route":"ORAL","start_dtc":"2024-04-01","end_dtc":"2024-04-01","visit":"C1D1"},{"seq":"3","trt":"TEPOTINIB","dose":"500.0","doseu":null,"dosef":"QD","route":"ORAL","start_dtc":"2024-04-02","end_dtc":"2024-04-02","visit":"C1D1"},{"seq":"4","trt":"TEPOTINIB","dose":"500.0","doseu":null,"dosef":"QD","route":"ORAL","start_dtc":"2024-04-03","end_dtc":"2024-04-03","visit":"C1D1"},{"seq":"5","trt":"TEPOTINIB","dose":"500.0","doseu":null,"dosef":"QD","route":"ORAL","start_dtc":"2024-04-04","end_dtc":"2024-04-04","visit":null},{"seq":"6","trt":"TEPOTINIB","dose":"500.0","doseu":null,"dosef":"QD","route":"ORAL","start_dtc":"2024-04-05","end_dtc":"2024-04-05","visit":null},{"seq":"7","trt":"TEPOTINIB","dose":"500.0","doseu":null,"dosef":"QD","route":"ORAL","start_dtc":"2024-04-06","end_dtc":"2024-04-06","visit":null},{"seq":"8","trt":"TEPOTINIB","dose":"500.0","doseu":null,"dosef":"QD","route":"ORAL","start_dtc":"2024-04-07","end_dtc":"2024-04-07","visit":null},{"seq":"9","trt":"TEPOTINIB","dose":"500.0","doseu":null,"dosef":"QD","route":"ORAL","start_dtc":"2024-04-08","end_dtc":"2024-04-08","visit":null},{"seq":"10","trt":"TEPOTINIB","dose":"500.0","doseu":null,"dosef":"QD","route":"ORAL","start_dtc":"2024-04-09","end_dtc":"2024-04-09","visit":null},{"seq":"11","trt":"TEPOTINIB","dose":"500.0","doseu":null,"dosef":"QD","route":"ORAL","start_dtc":"2024-04-10","end_dtc":"2024-04-10","visit":null},{"seq":"12","trt":"TEPOTINIB","dose":"500.0","doseu":null,"dosef":"QD","route":"ORAL","start_dtc":"2024-04-11","end_dtc":"2024-04-11","visit":"C1D15"},{"seq":"13","trt":"TEPOTINIB","dose":"500.0","doseu":null,"dosef":"QD","route":"ORAL","start_dtc":"2024-04-12","end_dtc":"2024-04-12","visit":"C1D15"},{"seq":"14","trt":"TEPOTINIB","dose":"500.0","doseu":null,"dosef":"QD","route":"ORAL","start_dtc":"2024-04-13","end_dtc":"2024-04-13","visit":"C1D15"},{"seq":"15","trt":"TEPOTINIB","dose":"500.0","doseu":null,"dosef":"QD","route":"ORAL","start_dtc":"2024-04-14","end_dtc":"2024-04-14","visit":"C1D15"},{"seq":"16","trt":"TEPOTINIB","dose":"500.0","doseu":null,"dosef":"QD","route":"ORAL","start_dtc":"2024-04-15","end_dtc":"2024-04-15","visit":"C1D15"},{"seq":"17","trt":"TEPOTINIB","dose":"500.0","doseu":null,"dosef":"QD","route":"ORAL","start_dtc":"2024-04-16","end_dtc":"2024-04-16","visit":"C1D15"},{"seq":"18","trt":"TEPOTINIB","dose":"500.0","doseu":null,"dosef":"QD","route":"ORAL","start_dtc":"2024-04-17","end_dtc":"2024-04-17","visit":"C1D15"},{"seq":"19","trt":"TEPOTINIB","dose":"500.0","doseu":null,"dosef":"QD","route":"ORAL","start_dtc":"2024-04-18","end_dtc":"2024-04-18","visit":null},{"seq":"20","trt":"TEPOTINIB","dose":"500.0","doseu":null,"dosef":"QD","route":"ORAL","start_dtc":"2024-04-19","end_dtc":"2024-04-19","visit":null},{"seq":"21","trt":"TEPOTINIB","dose":"500.0","doseu":null,"dosef":"QD","route":"ORAL","start_dtc":"2024-04-20","end_dtc":"2024-04-20","visit":null},{"seq":"22","trt":"TEPOTINIB","dose":"500.0","doseu":null,"dosef":"QD","route":"ORAL","start_dtc":"2024-04-21","end_dtc":"2024-04-21","visit":null},{"seq":"23","trt":"TEPOTINIB","dose":"500.0","doseu":null,"dosef":"QD","route":"ORAL","start_dtc":"2024-04-22","end_dtc":"2024-04-22","visit":null},{"seq":"24","trt":"TEPOTINIB","dose":"500.0","doseu":null,"dosef":"QD","route":"ORAL","start_dtc":"2024-04-23","end_dtc":"2024-04-23","visit":null},{"seq":"25","trt":"TEPOTINIB","dose":"500.0","doseu":null,"dosef":"QD","route":"ORAL","start_dtc":"2024-04-24","end_dtc":"2024-04-24","visit":null},{"seq":"26","trt":"TEPOTINIB","dose":"500.0","doseu":null,"dosef":"QD","route":"ORAL","start_dtc":"2024-04-25","end_dtc":"2024-04-25","visit":"C2D1"},{"seq":"27","trt":"TEPOTINIB","dose":"500.0","doseu":null,"dosef":"QD","route":"ORAL","start_dtc":"2024-04-26","end_dtc":"2024-04-26","visit":"C2D1"},{"seq":"28","trt":"TEPOTINIB","dose":"500.0","doseu":null,"dosef":"QD","route":"ORAL","start_dtc":"2024-04-27","end_dtc":"2024-04-27","visit":"C2D1"},{"seq":"29","trt":"TEPOTINIB","dose":"500.0","doseu":null,"dosef":"QD","route":"ORAL","start_dtc":"2024-04-28","end_dtc":"2024-04-28","visit":"C2D1"},{"seq":"30","trt":"TEPOTINIB","dose":"500.0","doseu":null,"dosef":"QD","route":"ORAL","start_dtc":"2024-04-29","end_dtc":"2024-04-29","visit":"C2D1"},{"seq":"31","trt":"TEPOTINIB","dose":"500.0","doseu":null,"dosef":"QD","route":"ORAL","start_dtc":"2024-04-30","end_dtc":"2024-04-30","visit":"C2D1"},{"seq":"32","trt":"TEPOTINIB","dose":"500.0","doseu":null,"dosef":"QD","route":"ORAL","start_dtc":"2024-05-01","end_dtc":"2024-05-01","visit":"C2D1"},{"seq":"33","trt":"TEPOTINIB","dose":"500.0","doseu":null,"dosef":"QD","route":"ORAL","start_dtc":"2024-05-02","end_dtc":"2024-05-02","visit":null},{"seq":"34","trt":"TEPOTINIB","dose":"500.0","doseu":null,"dosef":"QD","route":"ORAL","start_dtc":"2024-05-03","end_dtc":"2024-05-03","visit":null},{"seq":"35","trt":"TEPOTINIB","dose":"500.0","doseu":null,"dosef":"QD","route":"ORAL","start_dtc":"2024-05-04","end_dtc":"2024-05-04","visit":null},{"seq":"36","trt":"TEPOTINIB","dose":"500.0","doseu":null,"dosef":"QD","route":"ORAL","start_dtc":"2024-05-05","end_dtc":"2024-05-05","visit":null},{"seq":"37","trt":"TEPOTINIB","dose":"500.0","doseu":null,"dosef":"QD","route":"ORAL","start_dtc":"2024-05-06","end_dtc":"2024-05-06","visit":null},{"seq":"38","trt":"TEPOTINIB","dose":"500.0","doseu":null,"dosef":"QD","route":"ORAL","start_dtc":"2024-05-07","end_dtc":"2024-05-07","visit":null},{"seq":"39","trt":"TEPOTINIB","dose":"500.0","doseu":null,"dosef":"QD","route":"ORAL","start_dtc":"2024-05-08","end_dtc":"2024-05-08","visit":null},{"seq":"40","trt":"TEPOTINIB","dose":"500.0","doseu":null,"dosef":"QD","route":"ORAL","start_dtc":"2024-05-09","end_dtc":"2024-05-09","visit":null},{"seq":"41","trt":"TEPOTINIB","dose":"500.0","doseu":null,"dosef":"QD","route":"ORAL","start_dtc":"2024-05-10","end_dtc":"2024-05-10","visit":null},{"seq":"42","trt":"TEPOTINIB","dose":"500.0","doseu":null,"dosef":"QD","route":"ORAL","start_dtc":"2024-05-11","end_dtc":"2024-05-11","visit":null},{"seq":"43","trt":"TEPOTINIB","dose":"500.0","doseu":null,"dosef":"QD","route":"ORAL","start_dtc":"2024-05-12","end_dtc":"2024-05-12","visit":null},{"seq":"44","trt":"TEPOTINIB","dose":"500.0","doseu":null,"dosef":"QD","route":"ORAL","start_dtc":"2024-05-13","end_dtc":"2024-05-13","visit":null},{"seq":"45","trt":"TEPOTINIB","dose":"500.0","doseu":null,"dosef":"QD","route":"ORAL","start_dtc":"2024-05-14","end_dtc":"2024-05-14","visit":null},{"seq":"46","trt":"TEPOTINIB","dose":"500.0","doseu":null,"dosef":"QD","route":"ORAL","start_dtc":"2024-05-15","end_dtc":"2024-05-15","visit":null},{"seq":"47","trt":"TEPOTINIB","dose":"500.0","doseu":null,"dosef":"QD","route":"ORAL","start_dtc":"2024-05-16","end_dtc":"2024-05-16","visit":null},{"seq":"48","trt":"TEPOTINIB","dose":"500.0","doseu":null,"dosef":"QD","route":"ORAL","start_dtc":"2024-05-17","end_dtc":"2024-05-17","visit":null},{"seq":"49","trt":"TEPOTINIB","dose":"500.0","doseu":null,"dosef":"QD","route":"ORAL","start_dtc":"2024-05-18","end_dtc":"2024-05-18","visit":null},{"seq":"50","trt":"TEPOTINIB","dose":"500.0","doseu":null,"dosef":"QD","route":"ORAL","start_dtc":"2024-05-19","end_dtc":"2024-05-19","visit":null},{"seq":"51","trt":"TEPOTINIB","dose":"500.0","doseu":null,"dosef":"QD","route":"ORAL","start_dtc":"2024-05-20","end_dtc":"2024-05-20","visit":null},{"seq":"52","trt":"TEPOTINIB","dose":null,"doseu":null,"dosef":"QD","route":"ORAL","start_dtc":"2024-05-21","end_dtc":"2024-05-21","visit":null},{"seq":"53","trt":"TEPOTINIB","dose":null,"doseu":null,"dosef":"QD","route":"ORAL","start_dtc":"2024-05-22","end_dtc":"2024-05-22","visit":null},{"seq":"54","trt":"TEPOTINIB","dose":"500.0","doseu":null,"dosef":"QD","route":"ORAL","start_dtc":"2024-05-23","end_dtc":"2024-05-23","visit":"C3D1"},{"seq":"55","trt":"TEPOTINIB","dose":"500.0","doseu":null,"dosef":"QD","route":"ORAL","start_dtc":"2024-05-24","end_dtc":"2024-05-24","visit":"C3D1"},{"seq":"56","trt":"TEPOTINIB","dose":"500.0","doseu":null,"dosef":"QD","route":"ORAL","start_dtc":"2024-05-25","end_dtc":"2024-05-25","visit":"C3D1"},{"seq":"57","trt":"TEPOTINIB","dose":"500.0","doseu":null,"dosef":"QD","route":"ORAL","start_dtc":"2024-05-26","end_dtc":"2024-05-26","visit":"C3D1"},{"seq":"58","trt":"TEPOTINIB","dose":"500.0","doseu":null,"dosef":"QD","route":"ORAL","start_dtc":"2024-05-27","end_dtc":"2024-05-27","visit":"C3D1"},{"seq":"59","trt":"TEPOTINIB","dose":"500.0","doseu":null,"dosef":"QD","route":"ORAL","start_dtc":"2024-05-28","end_dtc":"2024-05-28","visit":"C3D1"},{"seq":"60","trt":"TEPOTINIB","dose":"500.0","doseu":null,"dosef":"QD","route":"ORAL","start_dtc":"2024-05-29","end_dtc":"2024-05-29","visit":"C3D1"},{"seq":"61","trt":"TEPOTINIB","dose":"500.0","doseu":null,"dosef":"QD","route":"ORAL","start_dtc":"2024-05-30","end_dtc":"2024-05-30","visit":null},{"seq":"62","trt":"TEPOTINIB","dose":"500.0","doseu":null,"dosef":"QD","route":"ORAL","start_dtc":"2024-05-31","end_dtc":"2024-05-31","visit":null},{"seq":"63","trt":"TEPOTINIB","dose":"500.0","doseu":null,"dosef":"QD","route":"ORAL","start_dtc":"2024-06-01","end_dtc":"2024-06-01","visit":null},{"seq":"64","trt":"TEPOTINIB","dose":"500.0","doseu":null,"dosef":"QD","route":"ORAL","start_dtc":"2024-06-02","end_dtc":"2024-06-02","visit":null},{"seq":"65","trt":"TEPOTINIB","dose":"500.0","doseu":null,"dosef":"QD","route":"ORAL","start_dtc":"2024-06-03","end_dtc":"2024-06-03","visit":null},{"seq":"66","trt":"TEPOTINIB","dose":"500.0","doseu":null,"dosef":"QD","route":"ORAL","start_dtc":"2024-06-04","end_dtc":"2024-06-04","visit":null},{"seq":"67","trt":"TEPOTINIB","dose":"500.0","doseu":null,"dosef":"QD","route":"ORAL","start_dtc":"2024-06-05","end_dtc":"2024-06-05","visit":null},{"seq":"68","trt":"TEPOTINIB","dose":"500.0","doseu":null,"dosef":"QD","route":"ORAL","start_dtc":"2024-06-06","end_dtc":"2024-06-06","visit":null},{"seq":"69","trt":"TEPOTINIB","dose":"500.0","doseu":null,"dosef":"QD","route":"ORAL","start_dtc":"2024-06-07","end_dtc":"2024-06-07","visit":null},{"seq":"70","trt":"TEPOTINIB","dose":"500.0","doseu":null,"dosef":"QD","route":"ORAL","start_dtc":"2024-06-08","end_dtc":"2024-06-08","visit":null},{"seq":"71","trt":"TEPOTINIB","dose":"500.0","doseu":null,"dosef":"QD","route":"ORAL","start_dtc":"2024-06-09","end_dtc":"2024-06-09","visit":null},{"seq":"72","trt":"TEPOTINIB","dose":"500.0","doseu":null,"dosef":"QD","route":"ORAL","start_dtc":"2024-06-10","end_dtc":"2024-06-10","visit":null},{"seq":"73","trt":"TEPOTINIB","dose":"500.0","doseu":null,"dosef":"QD","route":"ORAL","start_dtc":"2024-06-11","end_dtc":"2024-06-11","visit":null},{"seq":"74","trt":"TEPOTINIB","dose":"500.0","doseu":null,"dosef":"QD","route":"ORAL","start_dtc":"2024-06-12","end_dtc":"2024-06-12","visit":null},{"seq":"75","trt":"TEPOTINIB","dose":"500.0","doseu":null,"dosef":"QD","route":"ORAL","start_dtc":"2024-06-13","end_dtc":"2024-06-13","visit":null},{"seq":"76","trt":"TEPOTINIB","dose":"500.0","doseu":null,"dosef":"QD","route":"ORAL","start_dtc":"2024-06-14","end_dtc":"2024-06-14","visit":null},{"seq":"77","trt":"TEPOTINIB","dose":"500.0","doseu":null,"dosef":"QD","route":"ORAL","start_dtc":"2024-06-15","end_dtc":"2024-06-15","visit":null},{"seq":"78","trt":"TEPOTINIB","dose":"500.0","doseu":null,"dosef":"QD","route":"ORAL","start_dtc":"2024-06-16","end_dtc":"2024-06-16","visit":null},{"seq":"79","trt":"TEPOTINIB","dose":"500.0","doseu":null,"dosef":"QD","route":"ORAL","start_dtc":"2024-06-17","end_dtc":"2024-06-17","visit":null},{"seq":"80","trt":"TEPOTINIB","dose":"500.0","doseu":null,"dosef":"QD","route":"ORAL","start_dtc":"2024-06-18","end_dtc":"2024-06-18","visit":null},{"seq":"81","trt":"TEPOTINIB","dose":"500.0","doseu":null,"dosef":"QD","route":"ORAL","start_dtc":"2024-06-19","end_dtc":"2024-06-19","visit":null},{"seq":"82","trt":"TEPOTINIB","dose":"500.0","doseu":null,"dosef":"QD","route":"ORAL","start_dtc":"2024-06-20","end_dtc":"2024-06-20","visit":"C4D1"},{"seq":"83","trt":"TEPOTINIB","dose":"500.0","doseu":null,"dosef":"QD","route":"ORAL","start_dtc":"2024-06-21","end_dtc":"2024-06-21","visit":"C4D1"},{"seq":"84","trt":"TEPOTINIB","dose":"500.0","doseu":null,"dosef":"QD","route":"ORAL","start_dtc":"2024-06-22","end_dtc":"2024-06-22","visit":"C4D1"},{"seq":"85","trt":"TEPOTINIB","dose":null,"doseu":null,"dosef":"QD","route":"ORAL","start_dtc":"2024-06-23","end_dtc":"2024-06-23","visit":"C4D1"},{"seq":"86","trt":"TEPOTINIB","dose":"500.0","doseu":null,"dosef":"QD","route":"ORAL","start_dtc":"2024-06-24","end_dtc":"2024-06-24","visit":"C4D1"},{"seq":"87","trt":"TEPOTINIB","dose":"500.0","doseu":null,"dosef":"QD","route":"ORAL","start_dtc":"2024-06-25","end_dtc":"2024-06-25","visit":"C4D1"},{"seq":"88","trt":"TEPOTINIB","dose":"500.0","doseu":null,"dosef":"QD","route":"ORAL","start_dtc":"2024-06-26","end_dtc":"2024-06-26","visit":"C4D1"},{"seq":"89","trt":"TEPOTINIB","dose":null,"doseu":null,"dosef":"QD","route":"ORAL","start_dtc":"2024-06-27","end_dtc":"2024-06-27","visit":null},{"seq":"90","trt":"TEPOTINIB","dose":"500.0","doseu":null,"dosef":"QD","route":"ORAL","start_dtc":"2024-06-28","end_dtc":"2024-06-28","visit":null},{"seq":"91","trt":"TEPOTINIB","dose":"500.0","doseu":null,"dosef":"QD","route":"ORAL","start_dtc":"2024-06-29","end_dtc":"2024-06-29","visit":null},{"seq":"92","trt":"TEPOTINIB","dose":"500.0","doseu":null,"dosef":"QD","route":"ORAL","start_dtc":"2024-06-30","end_dtc":"2024-06-30","visit":null},{"seq":"93","trt":"TEPOTINIB","dose":"500.0","doseu":null,"dosef":"QD","route":"ORAL","start_dtc":"2024-07-01","end_dtc":"2024-07-01","visit":null},{"seq":"94","trt":"TEPOTINIB","dose":"500.0","doseu":null,"dosef":"QD","route":"ORAL","start_dtc":"2024-07-02","end_dtc":"2024-07-02","visit":null},{"seq":"95","trt":"TEPOTINIB","dose":null,"doseu":null,"dosef":"QD","route":"ORAL","start_dtc":"2024-07-03","end_dtc":"2024-07-03","visit":null},{"seq":"96","trt":"TEPOTINIB","dose":"500.0","doseu":null,"dosef":"QD","route":"ORAL","start_dtc":"2024-07-04","end_dtc":"2024-07-04","visit":null},{"seq":"97","trt":"TEPOTINIB","dose":"500.0","doseu":null,"dosef":"QD","route":"ORAL","start_dtc":"2024-07-05","end_dtc":"2024-07-05","visit":null},{"seq":"98","trt":"TEPOTINIB","dose":"500.0","doseu":null,"dosef":"QD","route":"ORAL","start_dtc":"2024-07-06","end_dtc":"2024-07-06","visit":null},{"seq":"99","trt":"TEPOTINIB","dose":"500.0","doseu":null,"dosef":"QD","route":"ORAL","start_dtc":"2024-07-07","end_dtc":"2024-07-07","visit":null},{"seq":"100","trt":"TEPOTINIB","dose":"500.0","doseu":null,"dosef":"QD","route":"ORAL","start_dtc":"2024-07-08","end_dtc":"2024-07-08","visit":null},{"seq":"101","trt":"TEPOTINIB","dose":"500.0","doseu":null,"dosef":"QD","route":"ORAL","start_dtc":"2024-07-09","end_dtc":"2024-07-09","visit":null},{"seq":"102","trt":"TEPOTINIB","dose":"500.0","doseu":null,"dosef":"QD","route":"ORAL","start_dtc":"2024-07-10","end_dtc":"2024-07-10","visit":null},{"seq":"103","trt":"TEPOTINIB","dose":"500.0","doseu":null,"dosef":"QD","route":"ORAL","start_dtc":"2024-07-11","end_dtc":"2024-07-11","visit":null},{"seq":"104","trt":"TEPOTINIB","dose":"500.0","doseu":null,"dosef":"QD","route":"ORAL","start_dtc":"2024-07-12","end_dtc":"2024-07-12","visit":null},{"seq":"105","trt":"TEPOTINIB","dose":"500.0","doseu":null,"dosef":"QD","route":"ORAL","start_dtc":"2024-07-13","end_dtc":"2024-07-13","visit":null},{"seq":"106","trt":"TEPOTINIB","dose":"500.0","doseu":null,"dosef":"QD","route":"ORAL","start_dtc":"2024-07-14","end_dtc":"2024-07-14","visit":null},{"seq":"107","trt":"TEPOTINIB","dose":"500.0","doseu":null,"dosef":"QD","route":"ORAL","start_dtc":"2024-07-15","end_dtc":"2024-07-15","visit":null},{"seq":"108","trt":"TEPOTINIB","dose":"500.0","doseu":null,"dosef":"QD","route":"ORAL","start_dtc":"2024-07-16","end_dtc":"2024-07-16","visit":null},{"seq":"109","trt":"TEPOTINIB","dose":"500.0","doseu":null,"dosef":"QD","route":"ORAL","start_dtc":"2024-07-17","end_dtc":"2024-07-17","visit":null},{"seq":"110","trt":"TEPOTINIB","dose":"500.0","doseu":null,"dosef":"QD","route":"ORAL","start_dtc":"2024-07-18","end_dtc":"2024-07-18","visit":null},{"seq":"111","trt":"TEPOTINIB","dose":"500.0","doseu":null,"dosef":"QD","route":"ORAL","start_dtc":"2024-07-19","end_dtc":"2024-07-19","visit":null},{"seq":"112","trt":"TEPOTINIB","dose":"500.0","doseu":null,"dosef":"QD","route":"ORAL","start_dtc":"2024-07-20","end_dtc":"2024-07-20","visit":null},{"seq":"113","trt":"TEPOTINIB","dose":"500.0","doseu":null,"dosef":"QD","route":"ORAL","start_dtc":"2024-07-21","end_dtc":"2024-07-21","visit":null},{"seq":"114","trt":"TEPOTINIB","dose":"500.0","doseu":null,"dosef":"QD","route":"ORAL","start_dtc":"2024-07-22","end_dtc":"2024-07-22","visit":null},{"seq":"115","trt":"TEPOTINIB","dose":null,"doseu":null,"dosef":"QD","route":"ORAL","start_dtc":"2024-07-23","end_dtc":"2024-07-23","visit":null},{"seq":"116","trt":"TEPOTINIB","dose":"500.0","doseu":null,"dosef":"QD","route":"ORAL","start_dtc":"2024-07-24","end_dtc":"2024-07-24","visit":null},{"seq":"117","trt":"TEPOTINIB","dose":null,"doseu":null,"dosef":"QD","route":"ORAL","start_dtc":"2024-07-25","end_dtc":"2024-07-25","visit":null},{"seq":"118","trt":"TEPOTINIB","dose":null,"doseu":null,"dosef":"QD","route":"ORAL","start_dtc":"2024-07-26","end_dtc":"2024-07-26","visit":null},{"seq":"119","trt":"TEPOTINIB","dose":"500.0","doseu":null,"dosef":"QD","route":"ORAL","start_dtc":"2024-07-27","end_dtc":"2024-07-27","visit":null},{"seq":"120","trt":"TEPOTINIB","dose":"500.0","doseu":null,"dosef":"QD","route":"ORAL","start_dtc":"2024-07-28","end_dtc":"2024-07-28","visit":null},{"seq":"121","trt":"TEPOTINIB","dose":"500.0","doseu":null,"dosef":"QD","route":"ORAL","start_dtc":"2024-07-29","end_dtc":"2024-07-29","visit":null},{"seq":"122","trt":"TEPOTINIB","dose":"500.0","doseu":null,"dosef":"QD","route":"ORAL","start_dtc":"2024-07-30","end_dtc":"2024-07-30","visit":null},{"seq":"123","trt":"TEPOTINIB","dose":"500.0","doseu":null,"dosef":"QD","route":"ORAL","start_dtc":"2024-07-31","end_dtc":"2024-07-31","visit":null},{"seq":"124","trt":"TEPOTINIB","dose":"500.0","doseu":null,"dosef":"QD","route":"ORAL","start_dtc":"2024-08-01","end_dtc":"2024-08-01","visit":null},{"seq":"125","trt":"TEPOTINIB","dose":"500.0","doseu":null,"dosef":"QD","route":"ORAL","start_dtc":"2024-08-02","end_dtc":"2024-08-02","visit":null},{"seq":"126","trt":"TEPOTINIB","dose":"500.0","doseu":null,"dosef":"QD","route":"ORAL","start_dtc":"2024-08-03","end_dtc":"2024-08-03","visit":null},{"seq":"127","trt":"TEPOTINIB","dose":"500.0","doseu":null,"dosef":"QD","route":"ORAL","start_dtc":"2024-08-04","end_dtc":"2024-08-04","visit":null},{"seq":"128","trt":"TEPOTINIB","dose":"500.0","doseu":null,"dosef":"QD","route":"ORAL","start_dtc":"2024-08-05","end_dtc":"2024-08-05","visit":null},{"seq":"129","trt":"TEPOTINIB","dose":"500.0","doseu":null,"dosef":"QD","route":"ORAL","start_dtc":"2024-08-06","end_dtc":"2024-08-06","visit":null},{"seq":"130","trt":"TEPOTINIB","dose":"500.0","doseu":null,"dosef":"QD","route":"ORAL","start_dtc":"2024-08-07","end_dtc":"2024-08-07","visit":null},{"seq":"131","trt":"TEPOTINIB","dose":"500.0","doseu":null,"dosef":"QD","route":"ORAL","start_dtc":"2024-08-08","end_dtc":"2024-08-08","visit":null},{"seq":"132","trt":"TEPOTINIB","dose":"500.0","doseu":null,"dosef":"QD","route":"ORAL","start_dtc":"2024-08-09","end_dtc":"2024-08-09","visit":null},{"seq":"133","trt":"TEPOTINIB","dose":"500.0","doseu":null,"dosef":"QD","route":"ORAL","start_dtc":"2024-08-10","end_dtc":"2024-08-10","visit":null},{"seq":"134","trt":"TEPOTINIB","dose":"500.0","doseu":null,"dosef":"QD","route":"ORAL","start_dtc":"2024-08-11","end_dtc":"2024-08-11","visit":null},{"seq":"135","trt":"TEPOTINIB","dose":"500.0","doseu":null,"dosef":"QD","route":"ORAL","start_dtc":"2024-08-12","end_dtc":"2024-08-12","visit":null},{"seq":"136","trt":"TEPOTINIB","dose":"500.0","doseu":null,"dosef":"QD","route":"ORAL","start_dtc":"2024-08-13","end_dtc":"2024-08-13","visit":null},{"seq":"137","trt":"TEPOTINIB","dose":"500.0","doseu":null,"dosef":"QD","route":"ORAL","start_dtc":"2024-08-14","end_dtc":"2024-08-14","visit":null},{"seq":"138","trt":"TEPOTINIB","dose":"500.0","doseu":null,"dosef":"QD","route":"ORAL","start_dtc":"2024-08-15","end_dtc":"2024-08-15","visit":"C6D1"}]},"section_7_adverse_events":{"summary":{"total_aes":1,"serious_aes":1,"fatal_aes":0,"by_severity":{"SEVERE":1},"by_soc":{"General disorders and administration site conditions":1}},"events":[{"seq":"1","term":"OEDEMA PERIPHERAL","decod":"Oedema peripheral","llt":"Oedema peripheral","hlt":"Oedema NEC","hlgt":"Oedema NEC","soc":"General disorders and administration site conditions","bodsys":"General disorders and administration site conditions","severity":"SEVERE","serious":"Y","causality":"NOT RELATED","action_taken":"DOSE NOT CHANGED","outcome":"RECOVERED/RESOLVED","fatal":"N","hospitalization":"N","life_threatening":"N","onset_dtc":"2024-08-15","end_dtc":"2024-09-12","onset_dy":"138","end_dy":"166","duration":null,"epoch":"TREATMENT","visit":null,"supplemental":{}}]},"section_8_laboratory_results":{"summary":{"total_records":63,"abnormal_count":10,"abnormal_pct":15.9},"shift_summary":[{"testcd":"ALT","baseline_value":49.31,"baseline_nrind":"NORMAL","worst_post_baseline_value":50.53,"worst_post_baseline_nrind":"NORMAL","worst_visit":"C4D1"},{"testcd":"AST","baseline_value":10.25,"baseline_nrind":"NORMAL","worst_post_baseline_value":13.26,"worst_post_baseline_nrind":"NORMAL","worst_visit":"C2D1"},{"testcd":"CREAT","baseline_value":68.94,"baseline_nrind":"NORMAL","worst_post_baseline_value":71.86,"worst_post_baseline_nrind":"NORMAL","worst_visit":"C2D1"},{"testcd":"GLUC","baseline_value":6.19,"baseline_nrind":"HIGH","worst_post_baseline_value":6.21,"worst_post_baseline_nrind":"HIGH","worst_visit":"C4D1"},{"testcd":"HGB","baseline_value":152.0,"baseline_nrind":"NORMAL","worst_post_baseline_value":151.57,"worst_post_baseline_nrind":"NORMAL","worst_visit":"C6D1"},{"testcd":"PLAT","baseline_value":278.67,"baseline_nrind":"NORMAL","worst_post_baseline_value":297.74,"worst_post_baseline_nrind":"NORMAL","worst_visit":"C2D1"},{"testcd":"WBC","baseline_value":7.2,"baseline_nrind":"NORMAL","worst_post_baseline_value":7.44,"worst_post_baseline_nrind":"NORMAL","worst_visit":"EOT"}],"results":[{"seq":"1","testcd":"ALT","test":"Alanine Aminotransferase","cat":"CHEMISTRY","orres":"49.31","orresu":"U/L","stresc":"49.31","stresn":"49.31","stresu":"U/L","stnrlo":"7","stnrhi":"56","nrind":"NORMAL","fast":null,"dtc":"2024-03-21","dy":"-10","visit":"SCREENING","visitnum":"1.0","epoch":"SCREENING","spec":null,"method":null},{"seq":"2","testcd":"AST","test":"Aspartate Aminotransferase","cat":"CHEMISTRY","orres":"10.25","orresu":"U/L","stresc":"10.25","stresn":"10.25","stresu":"U/L","stnrlo":"10","stnrhi":"40","nrind":"NORMAL","fast":null,"dtc":"2024-03-21","dy":"-10","visit":"SCREENING","visitnum":"1.0","epoch":"SCREENING","spec":null,"method":null},{"seq":"3","testcd":"CREAT","test":"Creatinine","cat":"CHEMISTRY","orres":"68.94","orresu":"umol/L","stresc":"68.94","stresn":"68.94","stresu":"umol/L","stnrlo":"62","stnrhi":"106","nrind":"NORMAL","fast":null,"dtc":"2024-03-21","dy":"-10","visit":"SCREENING","visitnum":"1.0","epoch":"SCREENING","spec":null,"method":null},{"seq":"4","testcd":"GLUC","test":"Glucose","cat":"CHEMISTRY","orres":"6.19","orresu":"mmol/L","stresc":"6.19","stresn":"6.19","stresu":"mmol/L","stnrlo":"3.9","stnrhi":"5.6","nrind":"HIGH","fast":null,"dtc":"2024-03-21","dy":"-10","visit":"SCREENING","visitnum":"1.0","epoch":"SCREENING","spec":null,"method":null},{"seq":"5","testcd":"HGB","test":"Hemoglobin","cat":"HEMATOLOGY","orres":"152.0","orresu":"g/L","stresc":"152.0","stresn":"152.0","stresu":"g/L","stnrlo":"130","stnrhi":"175","nrind":"NORMAL","fast":null,"dtc":"2024-03-21","dy":"-10","visit":"SCREENING","visitnum":"1.0","epoch":"SCREENING","spec":null,"method":null},{"seq":"6","testcd":"PLAT","test":"Platelets","cat":"HEMATOLOGY","orres":"278.67","orresu":"10^9/L","stresc":"278.67","stresn":"278.67","stresu":"10^9/L","stnrlo":"150","stnrhi":"400","nrind":"NORMAL","fast":null,"dtc":"2024-03-21","dy":"-10","visit":"SCREENING","visitnum":"1.0","epoch":"SCREENING","spec":null,"method":null},{"seq":"7","testcd":"WBC","test":"Leukocytes","cat":"HEMATOLOGY","orres":"7.2","orresu":"10^9/L","stresc":"7.2","stresn":"7.2","stresu":"10^9/L","stnrlo":"4.0","stnrhi":"11.0","nrind":"NORMAL","fast":null,"dtc":"2024-03-21","dy":"-10","visit":"SCREENING","visitnum":"1.0","epoch":"SCREENING","spec":null,"method":null},{"seq":"8","testcd":"ALT","test":"Alanine Aminotransferase","cat":"CHEMISTRY","orres":"49.76","orresu":"U/L","stresc":"49.76","stresn":"49.76","stresu":"U/L","stnrlo":"7","stnrhi":"56","nrind":"NORMAL","fast":null,"dtc":"2024-03-31","dy":"1","visit":"C1D1","visitnum":"2.0","epoch":"TREATMENT","spec":null,"method":null},{"seq":"9","testcd":"AST","test":"Aspartate Aminotransferase","cat":"CHEMISTRY","orres":"11.21","orresu":"U/L","stresc":"11.21","stresn":"11.21","stresu":"U/L","stnrlo":"10","stnrhi":"40","nrind":"NORMAL","fast":null,"dtc":"2024-03-31","dy":"1","visit":"C1D1","visitnum":"2.0","epoch":"TREATMENT","spec":null,"method":null},{"seq":"10","testcd":"CREAT","test":"Creatinine","cat":"CHEMISTRY","orres":"69.47","orresu":"umol/L","stresc":"69.47","stresn":"69.47","stresu":"umol/L","stnrlo":"62","stnrhi":"106","nrind":"NORMAL","fast":null,"dtc":"2024-03-31","dy":"1","visit":"C1D1","visitnum":"2.0","epoch":"TREATMENT","spec":null,"method":null},{"seq":"11","testcd":"GLUC","test":"Glucose","cat":"CHEMISTRY","orres":"6.13","orresu":"mmol/L","stresc":"6.13","stresn":"6.13","stresu":"mmol/L","stnrlo":"3.9","stnrhi":"5.6","nrind":"HIGH","fast":null,"dtc":"2024-03-31","dy":"1","visit":"C1D1","visitnum":"2.0","epoch":"TREATMENT","spec":null,"method":null},{"seq":"12","testcd":"HGB","test":"Hemoglobin","cat":"HEMATOLOGY","orres":"154.43","orresu":"g/L","stresc":"154.43","stresn":"154.43","stresu":"g/L","stnrlo":"130","stnrhi":"175","nrind":"NORMAL","fast":null,"dtc":"2024-03-31","dy":"1","visit":"C1D1","visitnum":"2.0","epoch":"TREATMENT","spec":null,"method":null},{"seq":"13","testcd":"PLAT","test":"Platelets","cat":"HEMATOLOGY","orres":"286.42","orresu":"10^9/L","stresc":"286.42","stresn":"286.42","stresu":"10^9/L","stnrlo":"150","stnrhi":"400","nrind":"NORMAL","fast":null,"dtc":"2024-03-31","dy":"1","visit":"C1D1","visitnum":"2.0","epoch":"TREATMENT","spec":null,"method":null},{"seq":"14","testcd":"WBC","test":"Leukocytes","cat":"HEMATOLOGY","orres":null,"orresu":null,"stresc":null,"stresn":null,"stresu":null,"stnrlo":null,"stnrhi":null,"nrind":null,"fast":null,"dtc":"2024-03-31","dy":"1","visit":"C1D1","visitnum":"2.0","epoch":"TREATMENT","spec":null,"method":null},{"seq":"15","testcd":"ALT","test":"Alanine Aminotransferase","cat":"CHEMISTRY","orres":"49.08","orresu":"U/L","stresc":"49.08","stresn":"49.08","stresu":"U/L","stnrlo":"7","stnrhi":"56","nrind":"NORMAL","fast":null,"dtc":"2024-04-16","dy":"17","visit":"C1D15","visitnum":"3.0","epoch":"TREATMENT","spec":null,"method":null},{"seq":"16","testcd":"AST","test":"Aspartate Aminotransferase","cat":"CHEMISTRY","orres":"12.87","orresu":"U/L","stresc":"12.87","stresn":"12.87","stresu":"U/L","stnrlo":"10","stnrhi":"40","nrind":"NORMAL","fast":null,"dtc":"2024-04-16","dy":"17","visit":"C1D15","visitnum":"3.0","epoch":"TREATMENT","spec":null,"method":null},{"seq":"17","testcd":"CREAT","test":"Creatinine","cat":"CHEMISTRY","orres":"70.19","orresu":"umol/L","stresc":"70.19","stresn":"70.19","stresu":"umol/L","stnrlo":"62","stnrhi":"106","nrind":"NORMAL","fast":null,"dtc":"2024-04-16","dy":"17","visit":"C1D15","visitnum":"3.0","epoch":"TREATMENT","spec":null,"method":null},{"seq":"18","testcd":"GLUC","test":"Glucose","cat":"CHEMISTRY","orres":"6.16","orresu":"mmol/L","stresc":"6.16","stresn":"6.16","stresu":"mmol/L","stnrlo":"3.9","stnrhi":"5.6","nrind":"HIGH","fast":null,"dtc":"2024-04-16","dy":"17","visit":"C1D15","visitnum":"3.0","epoch":"TREATMENT","spec":null,"method":null},{"seq":"19","testcd":"HGB","test":"Hemoglobin","cat":"HEMATOLOGY","orres":"152.75","orresu":"g/L","stresc":"152.75","stresn":"152.75","stresu":"g/L","stnrlo":"130","stnrhi":"175","nrind":"NORMAL","fast":null,"dtc":"2024-04-16","dy":"17","visit":"C1D15","visitnum":"3.0","epoch":"TREATMENT","spec":null,"method":null},{"seq":"20","testcd":"PLAT","test":"Platelets","cat":"HEMATOLOGY","orres":"286.13","orresu":"10^9/L","stresc":"286.13","stresn":"286.13","stresu":"10^9/L","stnrlo":"150","stnrhi":"400","nrind":"NORMAL","fast":null,"dtc":"2024-04-16","dy":"17","visit":"C1D15","visitnum":"3.0","epoch":"TREATMENT","spec":null,"method":null},{"seq":"21","testcd":"WBC","test":"Leukocytes","cat":"HEMATOLOGY","orres":"7.19","orresu":"10^9/L","stresc":"7.19","stresn":"7.19","stresu":"10^9/L","stnrlo":"4.0","stnrhi":"11.0","nrind":"NORMAL","fast":null,"dtc":"2024-04-16","dy":"17","visit":"C1D15","visitnum":"3.0","epoch":"TREATMENT","spec":null,"method":null},{"seq":"22","testcd":"ALT","test":"Alanine Aminotransferase","cat":"CHEMISTRY","orres":"48.18","orresu":"U/L","stresc":"48.18","stresn":"48.18","stresu":"U/L","stnrlo":"7","stnrhi":"56","nrind":"NORMAL","fast":null,"dtc":"2024-04-29","dy":"30","visit":"C2D1","visitnum":"4.0","epoch":"TREATMENT","spec":null,"method":null},{"seq":"23","testcd":"AST","test":"Aspartate Aminotransferase","cat":"CHEMISTRY","orres":"13.26","orresu":"U/L","stresc":"13.26","stresn":"13.26","stresu":"U/L","stnrlo":"10","stnrhi":"40","nrind":"NORMAL","fast":null,"dtc":"2024-04-29","dy":"30","visit":"C2D1","visitnum":"4.0","epoch":"TREATMENT","spec":null,"method":null},{"seq":"24","testcd":"CREAT","test":"Creatinine","cat":"CHEMISTRY","orres":"71.86","orresu":"umol/L","stresc":"71.86","stresn":"71.86","stresu":"umol/L","stnrlo":"62","stnrhi":"106","nrind":"NORMAL","fast":null,"dtc":"2024-04-29","dy":"30","visit":"C2D1","visitnum":"4.0","epoch":"TREATMENT","spec":null,"method":null},{"seq":"25","testcd":"GLUC","test":"Glucose","cat":"CHEMISTRY","orres":"6.12","orresu":"mmol/L","stresc":"6.12","stresn":"6.12","stresu":"mmol/L","stnrlo":"3.9","stnrhi":"5.6","nrind":"HIGH","fast":null,"dtc":"2024-04-29","dy":"30","visit":"C2D1","visitnum":"4.0","epoch":"TREATMENT","spec":null,"method":null},{"seq":"26","testcd":"HGB","test":"Hemoglobin","cat":"HEMATOLOGY","orres":"153.51","orresu":"g/L","stresc":"153.51","stresn":"153.51","stresu":"g/L","stnrlo":"130","stnrhi":"175","nrind":"NORMAL","fast":null,"dtc":"2024-04-29","dy":"30","visit":"C2D1","visitnum":"4.0","epoch":"TREATMENT","spec":null,"method":null},{"seq":"27","testcd":"PLAT","test":"Platelets","cat":"HEMATOLOGY","orres":"297.74","orresu":"10^9/L","stresc":"297.74","stresn":"297.74","stresu":"10^9/L","stnrlo":"150","stnrhi":"400","nrind":"NORMAL","fast":null,"dtc":"2024-04-29","dy":"30","visit":"C2D1","visitnum":"4.0","epoch":"TREATMENT","spec":null,"method":null},{"seq":"28","testcd":"WBC","test":"Leukocytes","cat":"HEMATOLOGY","orres":"7.02","orresu":"10^9/L","stresc":"7.02","stresn":"7.02","stresu":"10^9/L","stnrlo":"4.0","stnrhi":"11.0","nrind":"NORMAL","fast":null,"dtc":"2024-04-29","dy":"30","visit":"C2D1","visitnum":"4.0","epoch":"TREATMENT","spec":null,"method":null},{"seq":"29","testcd":"ALT","test":"Alanine Aminotransferase","cat":"CHEMISTRY","orres":"50.02","orresu":"U/L","stresc":"50.02","stresn":"50.02","stresu":"U/L","stnrlo":"7","stnrhi":"56","nrind":"NORMAL","fast":null,"dtc":"2024-05-24","dy":"55","visit":"C3D1","visitnum":"5.0","epoch":"TREATMENT","spec":null,"method":null},{"seq":"30","testcd":"AST","test":"Aspartate Aminotransferase","cat":"CHEMISTRY","orres":"11.31","orresu":"U/L","stresc":"11.31","stresn":"11.31","stresu":"U/L","stnrlo":"10","stnrhi":"40","nrind":"NORMAL","fast":null,"dtc":"2024-05-24","dy":"55","visit":"C3D1","visitnum":"5.0","epoch":"TREATMENT","spec":null,"method":null},{"seq":"31","testcd":"CREAT","test":"Creatinine","cat":"CHEMISTRY","orres":"71.43","orresu":"umol/L","stresc":"71.43","stresn":"71.43","stresu":"umol/L","stnrlo":"62","stnrhi":"106","nrind":"NORMAL","fast":null,"dtc":"2024-05-24","dy":"55","visit":"C3D1","visitnum":"5.0","epoch":"TREATMENT","spec":null,"method":null},{"seq":"32","testcd":"GLUC","test":"Glucose","cat":"CHEMISTRY","orres":"6.18","orresu":"mmol/L","stresc":"6.18","stresn":"6.18","stresu":"mmol/L","stnrlo":"3.9","stnrhi":"5.6","nrind":"HIGH","fast":null,"dtc":"2024-05-24","dy":"55","visit":"C3D1","visitnum":"5.0","epoch":"TREATMENT","spec":null,"method":null},{"seq":"33","testcd":"HGB","test":"Hemoglobin","cat":"HEMATOLOGY","orres":"153.68","orresu":"g/L","stresc":"153.68","stresn":"153.68","stresu":"g/L","stnrlo":"130","stnrhi":"175","nrind":"NORMAL","fast":null,"dtc":"2024-05-24","dy":"55","visit":"C3D1","visitnum":"5.0","epoch":"TREATMENT","spec":null,"method":null},{"seq":"34","testcd":"PLAT","test":"Platelets","cat":"HEMATOLOGY","orres":"293.3","orresu":"10^9/L","stresc":"293.3","stresn":"293.3","stresu":"10^9/L","stnrlo":"150","stnrhi":"400","nrind":"NORMAL","fast":null,"dtc":"2024-05-24","dy":"55","visit":"C3D1","visitnum":"5.0","epoch":"TREATMENT","spec":null,"method":null},{"seq":"35","testcd":"WBC","test":"Leukocytes","cat":"HEMATOLOGY","orres":"7.16","orresu":"10^9/L","stresc":"7.16","stresn":"7.16","stresu":"10^9/L","stnrlo":"4.0","stnrhi":"11.0","nrind":"NORMAL","fast":null,"dtc":"2024-05-24","dy":"55","visit":"C3D1","visitnum":"5.0","epoch":"TREATMENT","spec":null,"method":null},{"seq":"36","testcd":"ALT","test":"Alanine Aminotransferase","cat":"CHEMISTRY","orres":"50.53","orresu":"U/L","stresc":"50.53","stresn":"50.53","stresu":"U/L","stnrlo":"7","stnrhi":"56","nrind":"NORMAL","fast":null,"dtc":"2024-06-26","dy":"88","visit":"C4D1","visitnum":"6.0","epoch":"TREATMENT","spec":null,"method":null},{"seq":"37","testcd":"AST","test":"Aspartate Aminotransferase","cat":"CHEMISTRY","orres":"9.65","orresu":"U/L","stresc":"9.65","stresn":"9.65","stresu":"U/L","stnrlo":"10","stnrhi":"40","nrind":"LOW","fast":null,"dtc":"2024-06-26","dy":"88","visit":"C4D1","visitnum":"6.0","epoch":"TREATMENT","spec":null,"method":null},{"seq":"38","testcd":"CREAT","test":"Creatinine","cat":"CHEMISTRY","orres":"71.02","orresu":"umol/L","stresc":"71.02","stresn":"71.02","stresu":"umol/L","stnrlo":"62","stnrhi":"106","nrind":"NORMAL","fast":null,"dtc":"2024-06-26","dy":"88","visit":"C4D1","visitnum":"6.0","epoch":"TREATMENT","spec":null,"method":null},{"seq":"39","testcd":"GLUC","test":"Glucose","cat":"CHEMISTRY","orres":"6.21","orresu":"mmol/L","stresc":"6.21","stresn":"6.21","stresu":"mmol/L","stnrlo":"3.9","stnrhi":"5.6","nrind":"HIGH","fast":null,"dtc":"2024-06-26","dy":"88","visit":"C4D1","visitnum":"6.0","epoch":"TREATMENT","spec":null,"method":null},{"seq":"40","testcd":"HGB","test":"Hemoglobin","cat":"HEMATOLOGY","orres":"152.1","orresu":"g/L","stresc":"152.1","stresn":"152.1","stresu":"g/L","stnrlo":"130","stnrhi":"175","nrind":"NORMAL","fast":null,"dtc":"2024-06-26","dy":"88","visit":"C4D1","visitnum":"6.0","epoch":"TREATMENT","spec":null,"method":null},{"seq":"41","testcd":"PLAT","test":"Platelets","cat":"HEMATOLOGY","orres":"283.27","orresu":"10^9/L","stresc":"283.27","stresn":"283.27","stresu":"10^9/L","stnrlo":"150","stnrhi":"400","nrind":"NORMAL","fast":null,"dtc":"2024-06-26","dy":"88","visit":"C4D1","visitnum":"6.0","epoch":"TREATMENT","spec":null,"method":null},{"seq":"42","testcd":"WBC","test":"Leukocytes","cat":"HEMATOLOGY","orres":"6.37","orresu":"10^9/L","stresc":"6.37","stresn":"6.37","stresu":"10^9/L","stnrlo":"4.0","stnrhi":"11.0","nrind":"NORMAL","fast":null,"dtc":"2024-06-26","dy":"88","visit":"C4D1","visitnum":"6.0","epoch":"TREATMENT","spec":null,"method":null},{"seq":"43","testcd":"ALT","test":"Alanine Aminotransferase","cat":"CHEMISTRY","orres":"49.37","orresu":"U/L","stresc":"49.37","stresn":"49.37","stresu":"U/L","stnrlo":"7","stnrhi":"56","nrind":"NORMAL","fast":null,"dtc":"2024-08-19","dy":"142","visit":"C6D1","visitnum":"7.0","epoch":"TREATMENT","spec":null,"method":null},{"seq":"44","testcd":"AST","test":"Aspartate Aminotransferase","cat":"CHEMISTRY","orres":"10.26","orresu":"U/L","stresc":"10.26","stresn":"10.26","stresu":"U/L","stnrlo":"10","stnrhi":"40","nrind":"NORMAL","fast":null,"dtc":"2024-08-19","dy":"142","visit":"C6D1","visitnum":"7.0","epoch":"TREATMENT","spec":null,"method":null},{"seq":"45","testcd":"CREAT","test":"Creatinine","cat":"CHEMISTRY","orres":"71.02","orresu":"umol/L","stresc":"71.02","stresn":"71.02","stresu":"umol/L","stnrlo":"62","stnrhi":"106","nrind":"NORMAL","fast":null,"dtc":"2024-08-19","dy":"142","visit":"C6D1","visitnum":"7.0","epoch":"TREATMENT","spec":null,"method":null},{"seq":"46","testcd":"GLUC","test":"Glucose","cat":"CHEMISTRY","orres":"6.13","orresu":"mmol/L","stresc":"6.13","stresn":"6.13","stresu":"mmol/L","stnrlo":"3.9","stnrhi":"5.6","nrind":"HIGH","fast":null,"dtc":"2024-08-19","dy":"142","visit":"C6D1","visitnum":"7.0","epoch":"TREATMENT","spec":null,"method":null},{"seq":"47","testcd":"HGB","test":"Hemoglobin","cat":"HEMATOLOGY","orres":"151.57","orresu":"g/L","stresc":"151.57","stresn":"151.57","stresu":"g/L","stnrlo":"130","stnrhi":"175","nrind":"NORMAL","fast":null,"dtc":"2024-08-19","dy":"142","visit":"C6D1","visitnum":"7.0","epoch":"TREATMENT","spec":null,"method":null},{"seq":"48","testcd":"PLAT","test":"Platelets","cat":"HEMATOLOGY","orres":"282.91","orresu":"10^9/L","stresc":"282.91","stresn":"282.91","stresu":"10^9/L","stnrlo":"150","stnrhi":"400","nrind":"NORMAL","fast":null,"dtc":"2024-08-19","dy":"142","visit":"C6D1","visitnum":"7.0","epoch":"TREATMENT","spec":null,"method":null},{"seq":"49","testcd":"WBC","test":"Leukocytes","cat":"HEMATOLOGY","orres":"6.65","orresu":"10^9/L","stresc":"6.65","stresn":"6.65","stresu":"10^9/L","stnrlo":"4.0","stnrhi":"11.0","nrind":"NORMAL","fast":null,"dtc":"2024-08-19","dy":"142","visit":"C6D1","visitnum":"7.0","epoch":"TREATMENT","spec":null,"method":null},{"seq":"50","testcd":"ALT","test":"Alanine Aminotransferase","cat":"CHEMISTRY","orres":"49.07","orresu":"U/L","stresc":"49.07","stresn":"49.07","stresu":"U/L","stnrlo":"7","stnrhi":"56","nrind":"NORMAL","fast":null,"dtc":"2024-09-16","dy":"170","visit":"EOT","visitnum":"8.0","epoch":"TREATMENT","spec":null,"method":null},{"seq":"51","testcd":"AST","test":"Aspartate Aminotransferase","cat":"CHEMISTRY","orres":"10.91","orresu":"U/L","stresc":"10.91","stresn":"10.91","stresu":"U/L","stnrlo":"10","stnrhi":"40","nrind":"NORMAL","fast":null,"dtc":"2024-09-16","dy":"170","visit":"EOT","visitnum":"8.0","epoch":"TREATMENT","spec":null,"method":null},{"seq":"52","testcd":"CREAT","test":"Creatinine","cat":"CHEMISTRY","orres":"68.38","orresu":"umol/L","stresc":"68.38","stresn":"68.38","stresu":"umol/L","stnrlo":"62","stnrhi":"106","nrind":"NORMAL","fast":null,"dtc":"2024-09-16","dy":"170","visit":"EOT","visitnum":"8.0","epoch":"TREATMENT","spec":null,"method":null},{"seq":"53","testcd":"GLUC","test":"Glucose","cat":"CHEMISTRY","orres":"6.14","orresu":"mmol/L","stresc":"6.14","stresn":"6.14","stresu":"mmol/L","stnrlo":"3.9","stnrhi":"5.6","nrind":"HIGH","fast":null,"dtc":"2024-09-16","dy":"170","visit":"EOT","visitnum":"8.0","epoch":"TREATMENT","spec":null,"method":null},{"seq":"54","testcd":"HGB","test":"Hemoglobin","cat":"HEMATOLOGY","orres":"153.91","orresu":"g/L","stresc":"153.91","stresn":"153.91","stresu":"g/L","stnrlo":"130","stnrhi":"175","nrind":"NORMAL","fast":null,"dtc":"2024-09-16","dy":"170","visit":"EOT","visitnum":"8.0","epoch":"TREATMENT","spec":null,"method":null},{"seq":"55","testcd":"PLAT","test":"Platelets","cat":"HEMATOLOGY","orres":"286.7","orresu":"10^9/L","stresc":"286.7","stresn":"286.7","stresu":"10^9/L","stnrlo":"150","stnrhi":"400","nrind":"NORMAL","fast":null,"dtc":"2024-09-16","dy":"170","visit":"EOT","visitnum":"8.0","epoch":"TREATMENT","spec":null,"method":null},{"seq":"56","testcd":"WBC","test":"Leukocytes","cat":"HEMATOLOGY","orres":"7.44","orresu":"10^9/L","stresc":"7.44","stresn":"7.44","stresu":"10^9/L","stnrlo":"4.0","stnrhi":"11.0","nrind":"NORMAL","fast":null,"dtc":"2024-09-16","dy":"170","visit":"EOT","visitnum":"8.0","epoch":"TREATMENT","spec":null,"method":null},{"seq":"57","testcd":"ALT","test":"Alanine Aminotransferase","cat":"CHEMISTRY","orres":"49.25","orresu":"U/L","stresc":"49.25","stresn":"49.25","stresu":"U/L","stnrlo":"7","stnrhi":"56","nrind":"NORMAL","fast":null,"dtc":"2024-10-16","dy":"200","visit":"FOLLOW-UP","visitnum":"9.0","epoch":"FOLLOW-UP","spec":null,"method":null},{"seq":"58","testcd":"AST","test":"Aspartate Aminotransferase","cat":"CHEMISTRY","orres":"10.06","orresu":"U/L","stresc":"10.06","stresn":"10.06","stresu":"U/L","stnrlo":"10","stnrhi":"40","nrind":"NORMAL","fast":null,"dtc":"2024-10-16","dy":"200","visit":"FOLLOW-UP","visitnum":"9.0","epoch":"FOLLOW-UP","spec":null,"method":null},{"seq":"59","testcd":"CREAT","test":"Creatinine","cat":"CHEMISTRY","orres":"67.15","orresu":"umol/L","stresc":"67.15","stresn":"67.15","stresu":"umol/L","stnrlo":"62","stnrhi":"106","nrind":"NORMAL","fast":null,"dtc":"2024-10-16","dy":"200","visit":"FOLLOW-UP","visitnum":"9.0","epoch":"FOLLOW-UP","spec":null,"method":null},{"seq":"60","testcd":"GLUC","test":"Glucose","cat":"CHEMISTRY","orres":"6.04","orresu":"mmol/L","stresc":"6.04","stresn":"6.04","stresu":"mmol/L","stnrlo":"3.9","stnrhi":"5.6","nrind":"HIGH","fast":null,"dtc":"2024-10-16","dy":"200","visit":"FOLLOW-UP","visitnum":"9.0","epoch":"FOLLOW-UP","spec":null,"method":null},{"seq":"61","testcd":"HGB","test":"Hemoglobin","cat":"HEMATOLOGY","orres":null,"orresu":null,"stresc":null,"stresn":null,"stresu":null,"stnrlo":null,"stnrhi":null,"nrind":null,"fast":null,"dtc":"2024-10-16","dy":"200","visit":"FOLLOW-UP","visitnum":"9.0","epoch":"FOLLOW-UP","spec":null,"method":null},{"seq":"62","testcd":"PLAT","test":"Platelets","cat":"HEMATOLOGY","orres":null,"orresu":null,"stresc":null,"stresn":null,"stresu":null,"stnrlo":null,"stnrhi":null,"nrind":null,"fast":null,"dtc":"2024-10-16","dy":"200","visit":"FOLLOW-UP","visitnum":"9.0","epoch":"FOLLOW-UP","spec":null,"method":null},{"seq":"63","testcd":"WBC","test":"Leukocytes","cat":"HEMATOLOGY","orres":"7.1","orresu":"10^9/L","stresc":"7.1","stresn":"7.1","stresu":"10^9/L","stnrlo":"4.0","stnrhi":"11.0","nrind":"NORMAL","fast":null,"dtc":"2024-10-16","dy":"200","visit":"FOLLOW-UP","visitnum":"9.0","epoch":"FOLLOW-UP","spec":null,"method":null}]},"section_9_vital_signs":{"summary":{"total_records":64},"trends":{"BMI":[{"visit":"SCREENING","visitnum":"1.0","dtc":"2024-03-21","value":"27.7","unit":"kg/m2"},{"visit":"C1D1","visitnum":"2.0","dtc":"2024-03-31","value":"28.0","unit":"kg/m2"},{"visit":"C1D15","visitnum":"3.0","dtc":"2024-04-16","value":"28.4","unit":"kg/m2"},{"visit":"C3D1","visitnum":"5.0","dtc":"2024-05-24","value":"28.3","unit":"kg/m2"},{"visit":"C4D1","visitnum":"6.0","dtc":"2024-06-26","value":"28.2","unit":"kg/m2"},{"visit":"C6D1","visitnum":"7.0","dtc":"2024-08-19","value":"28.2","unit":"kg/m2"},{"visit":"EOT","visitnum":"8.0","dtc":"2024-09-16","value":"28.7","unit":"kg/m2"},{"visit":"FOLLOW-UP","visitnum":"9.0","dtc":"2024-10-16","value":"28.6","unit":"kg/m2"}],"DIABP":[{"visit":"SCREENING","visitnum":"1.0","dtc":"2024-03-21","value":"77.9","unit":"mmHg"},{"visit":"C1D1","visitnum":"2.0","dtc":"2024-03-31","value":"77.5","unit":"mmHg"},{"visit":"C1D15","visitnum":"3.0","dtc":"2024-04-16","value":"76.7","unit":"mmHg"},{"visit":"C3D1","visitnum":"5.0","dtc":"2024-05-24","value":"76.2","unit":"mmHg"},{"visit":"C4D1","visitnum":"6.0","dtc":"2024-06-26","value":"77.0","unit":"mmHg"},{"visit":"C6D1","visitnum":"7.0","dtc":"2024-08-19","value":"77.7","unit":"mmHg"},{"visit":"EOT","visitnum":"8.0","dtc":"2024-09-16","value":"79.0","unit":"mmHg"},{"visit":"FOLLOW-UP","visitnum":"9.0","dtc":"2024-10-16","value":"80.7","unit":"mmHg"}],"HEIGHT":[{"visit":"SCREENING","visitnum":"1.0","dtc":"2024-03-21","value":"172.6","unit":"cm"},{"visit":"C1D1","visitnum":"2.0","dtc":"2024-03-31","value":"172.8","unit":"cm"},{"visit":"C1D15","visitnum":"3.0","dtc":"2024-04-16","value":"173.0","unit":"cm"},{"visit":"C3D1","visitnum":"5.0","dtc":"2024-05-24","value":"173.5","unit":"cm"},{"visit":"C4D1","visitnum":"6.0","dtc":"2024-06-26","value":"172.9","unit":"cm"},{"visit":"C6D1","visitnum":"7.0","dtc":"2024-08-19","value":"172.6","unit":"cm"},{"visit":"EOT","visitnum":"8.0","dtc":"2024-09-16","value":"173.5","unit":"cm"},{"visit":"FOLLOW-UP","visitnum":"9.0","dtc":"2024-10-16","value":"173.5","unit":"cm"}],"PULSE":[{"visit":"SCREENING","visitnum":"1.0","dtc":"2024-03-21","value":"72.0","unit":"beats/min"},{"visit":"C1D1","visitnum":"2.0","dtc":"2024-03-31","value":"68.6","unit":"beats/min"},{"visit":"C1D15","visitnum":"3.0","dtc":"2024-04-16","value":"69.5","unit":"beats/min"},{"visit":"C3D1","visitnum":"5.0","dtc":"2024-05-24","value":"65.8","unit":"beats/min"},{"visit":"C4D1","visitnum":"6.0","dtc":"2024-06-26","value":"65.5","unit":"beats/min"},{"visit":"C6D1","visitnum":"7.0","dtc":"2024-08-19","value":"60.1","unit":"beats/min"},{"visit":"EOT","visitnum":"8.0","dtc":"2024-09-16","value":"63.3","unit":"beats/min"},{"visit":"FOLLOW-UP","visitnum":"9.0","dtc":"2024-10-16","value":"62.1","unit":"beats/min"}],"RESP":[{"visit":"SCREENING","visitnum":"1.0","dtc":"2024-03-21","value":"13.7","unit":"breaths/min"},{"visit":"C1D1","visitnum":"2.0","dtc":"2024-03-31","value":"14.0","unit":"breaths/min"},{"visit":"C1D15","visitnum":"3.0","dtc":"2024-04-16","value":"14.3","unit":"breaths/min"},{"visit":"C3D1","visitnum":"5.0","dtc":"2024-05-24","value":"15.5","unit":"breaths/min"},{"visit":"C4D1","visitnum":"6.0","dtc":"2024-06-26","value":"16.1","unit":"breaths/min"},{"visit":"C6D1","visitnum":"7.0","dtc":"2024-08-19","value":"15.4","unit":"breaths/min"},{"visit":"EOT","visitnum":"8.0","dtc":"2024-09-16","value":"15.0","unit":"breaths/min"},{"visit":"FOLLOW-UP","visitnum":"9.0","dtc":"2024-10-16","value":"13.9","unit":"breaths/min"}],"SYSBP":[{"visit":"SCREENING","visitnum":"1.0","dtc":"2024-03-21","value":"112.4","unit":"mmHg"},{"visit":"C1D1","visitnum":"2.0","dtc":"2024-03-31","value":"112.4","unit":"mmHg"},{"visit":"C1D15","visitnum":"3.0","dtc":"2024-04-16","value":"110.0","unit":"mmHg"},{"visit":"C3D1","visitnum":"5.0","dtc":"2024-05-24","value":"109.5","unit":"mmHg"},{"visit":"C4D1","visitnum":"6.0","dtc":"2024-06-26","value":"108.4","unit":"mmHg"},{"visit":"C6D1","visitnum":"7.0","dtc":"2024-08-19","value":"110.1","unit":"mmHg"},{"visit":"EOT","visitnum":"8.0","dtc":"2024-09-16","value":"111.7","unit":"mmHg"},{"visit":"FOLLOW-UP","visitnum":"9.0","dtc":"2024-10-16","value":"115.0","unit":"mmHg"}],"TEMP":[{"visit":"SCREENING","visitnum":"1.0","dtc":"2024-03-21","value":"36.8","unit":"C"},{"visit":"C1D1","visitnum":"2.0","dtc":"2024-03-31","value":"37.0","unit":"C"},{"visit":"C1D15","visitnum":"3.0","dtc":"2024-04-16","value":"36.7","unit":"C"},{"visit":"C3D1","visitnum":"5.0","dtc":"2024-05-24","value":"36.9","unit":"C"},{"visit":"C4D1","visitnum":"6.0","dtc":"2024-06-26","value":"37.1","unit":"C"},{"visit":"C6D1","visitnum":"7.0","dtc":"2024-08-19","value":"37.0","unit":"C"},{"visit":"EOT","visitnum":"8.0","dtc":"2024-09-16","value":"36.9","unit":"C"},{"visit":"FOLLOW-UP","visitnum":"9.0","dtc":"2024-10-16","value":"36.8","unit":"C"}],"WEIGHT":[{"visit":"SCREENING","visitnum":"1.0","dtc":"2024-03-21","value":"82.5","unit":"kg"},{"visit":"C1D1","visitnum":"2.0","dtc":"2024-03-31","value":"83.7","unit":"kg"},{"visit":"C1D15","visitnum":"3.0","dtc":"2024-04-16","value":"84.9","unit":"kg"},{"visit":"C3D1","visitnum":"5.0","dtc":"2024-05-24","value":"85.2","unit":"kg"},{"visit":"C4D1","visitnum":"6.0","dtc":"2024-06-26","value":"84.2","unit":"kg"},{"visit":"C6D1","visitnum":"7.0","dtc":"2024-08-19","value":"84.1","unit":"kg"},{"visit":"EOT","visitnum":"8.0","dtc":"2024-09-16","value":"86.5","unit":"kg"},{"visit":"FOLLOW-UP","visitnum":"9.0","dtc":"2024-10-16","value":"86.0","unit":"kg"}]},"results":[{"seq":"1","testcd":"BMI","test":"BMI","cat":null,"orres":"27.7","orresu":"kg/m2","stresc":"27.7","stresn":"27.7","stresu":"kg/m2","stnrlo":null,"stnrhi":null,"nrind":null,"pos":null,"loc":null,"dtc":"2024-03-21","dy":"-10","visit":"SCREENING","visitnum":"1.0","epoch":"SCREENING"},{"seq":"2","testcd":"DIABP","test":"Diastolic Blood Pressure","cat":null,"orres":"77.9","orresu":"mmHg","stresc":"77.9","stresn":"77.9","stresu":"mmHg","stnrlo":null,"stnrhi":null,"nrind":null,"pos":null,"loc":null,"dtc":"2024-03-21","dy":"-10","visit":"SCREENING","visitnum":"1.0","epoch":"SCREENING"},{"seq":"3","testcd":"HEIGHT","test":"Height","cat":null,"orres":"172.6","orresu":"cm","stresc":"172.6","stresn":"172.6","stresu":"cm","stnrlo":null,"stnrhi":null,"nrind":null,"pos":null,"loc":null,"dtc":"2024-03-21","dy":"-10","visit":"SCREENING","visitnum":"1.0","epoch":"SCREENING"},{"seq":"4","testcd":"PULSE","test":"Pulse Rate","cat":null,"orres":"72.0","orresu":"beats/min","stresc":"72.0","stresn":"72.0","stresu":"beats/min","stnrlo":null,"stnrhi":null,"nrind":null,"pos":null,"loc":null,"dtc":"2024-03-21","dy":"-10","visit":"SCREENING","visitnum":"1.0","epoch":"SCREENING"},{"seq":"5","testcd":"RESP","test":"Respiratory Rate","cat":null,"orres":"13.7","orresu":"breaths/min","stresc":"13.7","stresn":"13.7","stresu":"breaths/min","stnrlo":null,"stnrhi":null,"nrind":null,"pos":null,"loc":null,"dtc":"2024-03-21","dy":"-10","visit":"SCREENING","visitnum":"1.0","epoch":"SCREENING"},{"seq":"6","testcd":"SYSBP","test":"Systolic Blood Pressure","cat":null,"orres":"112.4","orresu":"mmHg","stresc":"112.4","stresn":"112.4","stresu":"mmHg","stnrlo":null,"stnrhi":null,"nrind":null,"pos":null,"loc":null,"dtc":"2024-03-21","dy":"-10","visit":"SCREENING","visitnum":"1.0","epoch":"SCREENING"},{"seq":"7","testcd":"TEMP","test":"Temperature","cat":null,"orres":"36.8","orresu":"C","stresc":"36.8","stresn":"36.8","stresu":"C","stnrlo":null,"stnrhi":null,"nrind":null,"pos":null,"loc":null,"dtc":"2024-03-21","dy":"-10","visit":"SCREENING","visitnum":"1.0","epoch":"SCREENING"},{"seq":"8","testcd":"WEIGHT","test":"Weight","cat":null,"orres":"82.5","orresu":"kg","stresc":"82.5","stresn":"82.5","stresu":"kg","stnrlo":null,"stnrhi":null,"nrind":null,"pos":null,"loc":null,"dtc":"2024-03-21","dy":"-10","visit":"SCREENING","visitnum":"1.0","epoch":"SCREENING"},{"seq":"9","testcd":"BMI","test":"BMI","cat":null,"orres":"28.0","orresu":"kg/m2","stresc":"28.0","stresn":"28.0","stresu":"kg/m2","stnrlo":null,"stnrhi":null,"nrind":null,"pos":null,"loc":null,"dtc":"2024-03-31","dy":"1","visit":"C1D1","visitnum":"2.0","epoch":"TREATMENT"},{"seq":"10","testcd":"DIABP","test":"Diastolic Blood Pressure","cat":null,"orres":"77.5","orresu":"mmHg","stresc":"77.5","stresn":"77.5","stresu":"mmHg","stnrlo":null,"stnrhi":null,"nrind":null,"pos":null,"loc":null,"dtc":"2024-03-31","dy":"1","visit":"C1D1","visitnum":"2.0","epoch":"TREATMENT"},{"seq":"11","testcd":"HEIGHT","test":"Height","cat":null,"orres":"172.8","orresu":"cm","stresc":"172.8","stresn":"172.8","stresu":"cm","stnrlo":null,"stnrhi":null,"nrind":null,"pos":null,"loc":null,"dtc":"2024-03-31","dy":"1","visit":"C1D1","visitnum":"2.0","epoch":"TREATMENT"},{"seq":"12","testcd":"PULSE","test":"Pulse Rate","cat":null,"orres":"68.6","orresu":"beats/min","stresc":"68.6","stresn":"68.6","stresu":"beats/min","stnrlo":null,"stnrhi":null,"nrind":null,"pos":null,"loc":null,"dtc":"2024-03-31","dy":"1","visit":"C1D1","visitnum":"2.0","epoch":"TREATMENT"},{"seq":"13","testcd":"RESP","test":"Respiratory Rate","cat":null,"orres":"14.0","orresu":"breaths/min","stresc":"14.0","stresn":"14.0","stresu":"breaths/min","stnrlo":null,"stnrhi":null,"nrind":null,"pos":null,"loc":null,"dtc":"2024-03-31","dy":"1","visit":"C1D1","visitnum":"2.0","epoch":"TREATMENT"},{"seq":"14","testcd":"SYSBP","test":"Systolic Blood Pressure","cat":null,"orres":"112.4","orresu":"mmHg","stresc":"112.4","stresn":"112.4","stresu":"mmHg","stnrlo":null,"stnrhi":null,"nrind":null,"pos":null,"loc":null,"dtc":"2024-03-31","dy":"1","visit":"C1D1","visitnum":"2.0","epoch":"TREATMENT"},{"seq":"15","testcd":"TEMP","test":"Temperature","cat":null,"orres":"37.0","orresu":"C","stresc":"37.0","stresn":"37.0","stresu":"C","stnrlo":null,"stnrhi":null,"nrind":null,"pos":null,"loc":null,"dtc":"2024-03-31","dy":"1","visit":"C1D1","visitnum":"2.0","epoch":"TREATMENT"},{"seq":"16","testcd":"WEIGHT","test":"Weight","cat":null,"orres":"83.7","orresu":"kg","stresc":"83.7","stresn":"83.7","stresu":"kg","stnrlo":null,"stnrhi":null,"nrind":null,"pos":null,"loc":null,"dtc":"2024-03-31","dy":"1","visit":"C1D1","visitnum":"2.0","epoch":"TREATMENT"},{"seq":"17","testcd":"BMI","test":"BMI","cat":null,"orres":"28.4","orresu":"kg/m2","stresc":"28.4","stresn":"28.4","stresu":"kg/m2","stnrlo":null,"stnrhi":null,"nrind":null,"pos":null,"loc":null,"dtc":"2024-04-16","dy":"17","visit":"C1D15","visitnum":"3.0","epoch":"TREATMENT"},{"seq":"18","testcd":"DIABP","test":"Diastolic Blood Pressure","cat":null,"orres":"76.7","orresu":"mmHg","stresc":"76.7","stresn":"76.7","stresu":"mmHg","stnrlo":null,"stnrhi":null,"nrind":null,"pos":null,"loc":null,"dtc":"2024-04-16","dy":"17","visit":"C1D15","visitnum":"3.0","epoch":"TREATMENT"},{"seq":"19","testcd":"HEIGHT","test":"Height","cat":null,"orres":"173.0","orresu":"cm","stresc":"173.0","stresn":"173.0","stresu":"cm","stnrlo":null,"stnrhi":null,"nrind":null,"pos":null,"loc":null,"dtc":"2024-04-16","dy":"17","visit":"C1D15","visitnum":"3.0","epoch":"TREATMENT"},{"seq":"20","testcd":"PULSE","test":"Pulse Rate","cat":null,"orres":"69.5","orresu":"beats/min","stresc":"69.5","stresn":"69.5","stresu":"beats/min","stnrlo":null,"stnrhi":null,"nrind":null,"pos":null,"loc":null,"dtc":"2024-04-16","dy":"17","visit":"C1D15","visitnum":"3.0","epoch":"TREATMENT"},{"seq":"21","testcd":"RESP","test":"Respiratory Rate","cat":null,"orres":"14.3","orresu":"breaths/min","stresc":"14.3","stresn":"14.3","stresu":"breaths/min","stnrlo":null,"stnrhi":null,"nrind":null,"pos":null,"loc":null,"dtc":"2024-04-16","dy":"17","visit":"C1D15","visitnum":"3.0","epoch":"TREATMENT"},{"seq":"22","testcd":"SYSBP","test":"Systolic Blood Pressure","cat":null,"orres":"110.0","orresu":"mmHg","stresc":"110.0","stresn":"110.0","stresu":"mmHg","stnrlo":null,"stnrhi":null,"nrind":null,"pos":null,"loc":null,"dtc":"2024-04-16","dy":"17","visit":"C1D15","visitnum":"3.0","epoch":"TREATMENT"},{"seq":"23","testcd":"TEMP","test":"Temperature","cat":null,"orres":"36.7","orresu":"C","stresc":"36.7","stresn":"36.7","stresu":"C","stnrlo":null,"stnrhi":null,"nrind":null,"pos":null,"loc":null,"dtc":"2024-04-16","dy":"17","visit":"C1D15","visitnum":"3.0","epoch":"TREATMENT"},{"seq":"24","testcd":"WEIGHT","test":"Weight","cat":null,"orres":"84.9","orresu":"kg","stresc":"84.9","stresn":"84.9","stresu":"kg","stnrlo":null,"stnrhi":null,"nrind":null,"pos":null,"loc":null,"dtc":"2024-04-16","dy":"17","visit":"C1D15","visitnum":"3.0","epoch":"TREATMENT"},{"seq":"25","testcd":"BMI","test":"BMI","cat":null,"orres":"28.3","orresu":"kg/m2","stresc":"28.3","stresn":"28.3","stresu":"kg/m2","stnrlo":null,"stnrhi":null,"nrind":null,"pos":null,"loc":null,"dtc":"2024-05-24","dy":"55","visit":"C3D1","visitnum":"5.0","epoch":"TREATMENT"},{"seq":"26","testcd":"DIABP","test":"Diastolic Blood Pressure","cat":null,"orres":"76.2","orresu":"mmHg","stresc":"76.2","stresn":"76.2","stresu":"mmHg","stnrlo":null,"stnrhi":null,"nrind":null,"pos":null,"loc":null,"dtc":"2024-05-24","dy":"55","visit":"C3D1","visitnum":"5.0","epoch":"TREATMENT"},{"seq":"27","testcd":"HEIGHT","test":"Height","cat":null,"orres":"173.5","orresu":"cm","stresc":"173.5","stresn":"173.5","stresu":"cm","stnrlo":null,"stnrhi":null,"nrind":null,"pos":null,"loc":null,"dtc":"2024-05-24","dy":"55","visit":"C3D1","visitnum":"5.0","epoch":"TREATMENT"},{"seq":"28","testcd":"PULSE","test":"Pulse Rate","cat":null,"orres":"65.8","orresu":"beats/min","stresc":"65.8","stresn":"65.8","stresu":"beats/min","stnrlo":null,"stnrhi":null,"nrind":null,"pos":null,"loc":null,"dtc":"2024-05-24","dy":"55","visit":"C3D1","visitnum":"5.0","epoch":"TREATMENT"},{"seq":"29","testcd":"RESP","test":"Respiratory Rate","cat":null,"orres":"15.5","orresu":"breaths/min","stresc":"15.5","stresn":"15.5","stresu":"breaths/min","stnrlo":null,"stnrhi":null,"nrind":null,"pos":null,"loc":null,"dtc":"2024-05-24","dy":"55","visit":"C3D1","visitnum":"5.0","epoch":"TREATMENT"},{"seq":"30","testcd":"SYSBP","test":"Systolic Blood Pressure","cat":null,"orres":"109.5","orresu":"mmHg","stresc":"109.5","stresn":"109.5","stresu":"mmHg","stnrlo":null,"stnrhi":null,"nrind":null,"pos":null,"loc":null,"dtc":"2024-05-24","dy":"55","visit":"C3D1","visitnum":"5.0","epoch":"TREATMENT"},{"seq":"31","testcd":"TEMP","test":"Temperature","cat":null,"orres":"36.9","orresu":"C","stresc":"36.9","stresn":"36.9","stresu":"C","stnrlo":null,"stnrhi":null,"nrind":null,"pos":null,"loc":null,"dtc":"2024-05-24","dy":"55","visit":"C3D1","visitnum":"5.0","epoch":"TREATMENT"},{"seq":"32","testcd":"WEIGHT","test":"Weight","cat":null,"orres":"85.2","orresu":"kg","stresc":"85.2","stresn":"85.2","stresu":"kg","stnrlo":null,"stnrhi":null,"nrind":null,"pos":null,"loc":null,"dtc":"2024-05-24","dy":"55","visit":"C3D1","visitnum":"5.0","epoch":"TREATMENT"},{"seq":"33","testcd":"BMI","test":"BMI","cat":null,"orres":"28.2","orresu":"kg/m2","stresc":"28.2","stresn":"28.2","stresu":"kg/m2","stnrlo":null,"stnrhi":null,"nrind":null,"pos":null,"loc":null,"dtc":"2024-06-26","dy":"88","visit":"C4D1","visitnum":"6.0","epoch":"TREATMENT"},{"seq":"34","testcd":"DIABP","test":"Diastolic Blood Pressure","cat":null,"orres":"77.0","orresu":"mmHg","stresc":"77.0","stresn":"77.0","stresu":"mmHg","stnrlo":null,"stnrhi":null,"nrind":null,"pos":null,"loc":null,"dtc":"2024-06-26","dy":"88","visit":"C4D1","visitnum":"6.0","epoch":"TREATMENT"},{"seq":"35","testcd":"HEIGHT","test":"Height","cat":null,"orres":"172.9","orresu":"cm","stresc":"172.9","stresn":"172.9","stresu":"cm","stnrlo":null,"stnrhi":null,"nrind":null,"pos":null,"loc":null,"dtc":"2024-06-26","dy":"88","visit":"C4D1","visitnum":"6.0","epoch":"TREATMENT"},{"seq":"36","testcd":"PULSE","test":"Pulse Rate","cat":null,"orres":"65.5","orresu":"beats/min","stresc":"65.5","stresn":"65.5","stresu":"beats/min","stnrlo":null,"stnrhi":null,"nrind":null,"pos":null,"loc":null,"dtc":"2024-06-26","dy":"88","visit":"C4D1","visitnum":"6.0","epoch":"TREATMENT"},{"seq":"37","testcd":"RESP","test":"Respiratory Rate","cat":null,"orres":"16.1","orresu":"breaths/min","stresc":"16.1","stresn":"16.1","stresu":"breaths/min","stnrlo":null,"stnrhi":null,"nrind":null,"pos":null,"loc":null,"dtc":"2024-06-26","dy":"88","visit":"C4D1","visitnum":"6.0","epoch":"TREATMENT"},{"seq":"38","testcd":"SYSBP","test":"Systolic Blood Pressure","cat":null,"orres":"108.4","orresu":"mmHg","stresc":"108.4","stresn":"108.4","stresu":"mmHg","stnrlo":null,"stnrhi":null,"nrind":null,"pos":null,"loc":null,"dtc":"2024-06-26","dy":"88","visit":"C4D1","visitnum":"6.0","epoch":"TREATMENT"},{"seq":"39","testcd":"TEMP","test":"Temperature","cat":null,"orres":"37.1","orresu":"C","stresc":"37.1","stresn":"37.1","stresu":"C","stnrlo":null,"stnrhi":null,"nrind":null,"pos":null,"loc":null,"dtc":"2024-06-26","dy":"88","visit":"C4D1","visitnum":"6.0","epoch":"TREATMENT"},{"seq":"40","testcd":"WEIGHT","test":"Weight","cat":null,"orres":"84.2","orresu":"kg","stresc":"84.2","stresn":"84.2","stresu":"kg","stnrlo":null,"stnrhi":null,"nrind":null,"pos":null,"loc":null,"dtc":"2024-06-26","dy":"88","visit":"C4D1","visitnum":"6.0","epoch":"TREATMENT"},{"seq":"41","testcd":"BMI","test":"BMI","cat":null,"orres":"28.2","orresu":"kg/m2","stresc":"28.2","stresn":"28.2","stresu":"kg/m2","stnrlo":null,"stnrhi":null,"nrind":null,"pos":null,"loc":null,"dtc":"2024-08-19","dy":"142","visit":"C6D1","visitnum":"7.0","epoch":"TREATMENT"},{"seq":"42","testcd":"DIABP","test":"Diastolic Blood Pressure","cat":null,"orres":"77.7","orresu":"mmHg","stresc":"77.7","stresn":"77.7","stresu":"mmHg","stnrlo":null,"stnrhi":null,"nrind":null,"pos":null,"loc":null,"dtc":"2024-08-19","dy":"142","visit":"C6D1","visitnum":"7.0","epoch":"TREATMENT"},{"seq":"43","testcd":"HEIGHT","test":"Height","cat":null,"orres":"172.6","orresu":"cm","stresc":"172.6","stresn":"172.6","stresu":"cm","stnrlo":null,"stnrhi":null,"nrind":null,"pos":null,"loc":null,"dtc":"2024-08-19","dy":"142","visit":"C6D1","visitnum":"7.0","epoch":"TREATMENT"},{"seq":"44","testcd":"PULSE","test":"Pulse Rate","cat":null,"orres":"60.1","orresu":"beats/min","stresc":"60.1","stresn":"60.1","stresu":"beats/min","stnrlo":null,"stnrhi":null,"nrind":null,"pos":null,"loc":null,"dtc":"2024-08-19","dy":"142","visit":"C6D1","visitnum":"7.0","epoch":"TREATMENT"},{"seq":"45","testcd":"RESP","test":"Respiratory Rate","cat":null,"orres":"15.4","orresu":"breaths/min","stresc":"15.4","stresn":"15.4","stresu":"breaths/min","stnrlo":null,"stnrhi":null,"nrind":null,"pos":null,"loc":null,"dtc":"2024-08-19","dy":"142","visit":"C6D1","visitnum":"7.0","epoch":"TREATMENT"},{"seq":"46","testcd":"SYSBP","test":"Systolic Blood Pressure","cat":null,"orres":"110.1","orresu":"mmHg","stresc":"110.1","stresn":"110.1","stresu":"mmHg","stnrlo":null,"stnrhi":null,"nrind":null,"pos":null,"loc":null,"dtc":"2024-08-19","dy":"142","visit":"C6D1","visitnum":"7.0","epoch":"TREATMENT"},{"seq":"47","testcd":"TEMP","test":"Temperature","cat":null,"orres":"37.0","orresu":"C","stresc":"37.0","stresn":"37.0","stresu":"C","stnrlo":null,"stnrhi":null,"nrind":null,"pos":null,"loc":null,"dtc":"2024-08-19","dy":"142","visit":"C6D1","visitnum":"7.0","epoch":"TREATMENT"},{"seq":"48","testcd":"WEIGHT","test":"Weight","cat":null,"orres":"84.1","orresu":"kg","stresc":"84.1","stresn":"84.1","stresu":"kg","stnrlo":null,"stnrhi":null,"nrind":null,"pos":null,"loc":null,"dtc":"2024-08-19","dy":"142","visit":"C6D1","visitnum":"7.0","epoch":"TREATMENT"},{"seq":"49","testcd":"BMI","test":"BMI","cat":null,"orres":"28.7","orresu":"kg/m2","stresc":"28.7","stresn":"28.7","stresu":"kg/m2","stnrlo":null,"stnrhi":null,"nrind":null,"pos":null,"loc":null,"dtc":"2024-09-16","dy":"170","visit":"EOT","visitnum":"8.0","epoch":"TREATMENT"},{"seq":"50","testcd":"DIABP","test":"Diastolic Blood Pressure","cat":null,"orres":"79.0","orresu":"mmHg","stresc":"79.0","stresn":"79.0","stresu":"mmHg","stnrlo":null,"stnrhi":null,"nrind":null,"pos":null,"loc":null,"dtc":"2024-09-16","dy":"170","visit":"EOT","visitnum":"8.0","epoch":"TREATMENT"},{"seq":"51","testcd":"HEIGHT","test":"Height","cat":null,"orres":"173.5","orresu":"cm","stresc":"173.5","stresn":"173.5","stresu":"cm","stnrlo":null,"stnrhi":null,"nrind":null,"pos":null,"loc":null,"dtc":"2024-09-16","dy":"170","visit":"EOT","visitnum":"8.0","epoch":"TREATMENT"},{"seq":"52","testcd":"PULSE","test":"Pulse Rate","cat":null,"orres":"63.3","orresu":"beats/min","stresc":"63.3","stresn":"63.3","stresu":"beats/min","stnrlo":null,"stnrhi":null,"nrind":null,"pos":null,"loc":null,"dtc":"2024-09-16","dy":"170","visit":"EOT","visitnum":"8.0","epoch":"TREATMENT"},{"seq":"53","testcd":"RESP","test":"Respiratory Rate","cat":null,"orres":"15.0","orresu":"breaths/min","stresc":"15.0","stresn":"15.0","stresu":"breaths/min","stnrlo":null,"stnrhi":null,"nrind":null,"pos":null,"loc":null,"dtc":"2024-09-16","dy":"170","visit":"EOT","visitnum":"8.0","epoch":"TREATMENT"},{"seq":"54","testcd":"SYSBP","test":"Systolic Blood Pressure","cat":null,"orres":"111.7","orresu":"mmHg","stresc":"111.7","stresn":"111.7","stresu":"mmHg","stnrlo":null,"stnrhi":null,"nrind":null,"pos":null,"loc":null,"dtc":"2024-09-16","dy":"170","visit":"EOT","visitnum":"8.0","epoch":"TREATMENT"},{"seq":"55","testcd":"TEMP","test":"Temperature","cat":null,"orres":"36.9","orresu":"C","stresc":"36.9","stresn":"36.9","stresu":"C","stnrlo":null,"stnrhi":null,"nrind":null,"pos":null,"loc":null,"dtc":"2024-09-16","dy":"170","visit":"EOT","visitnum":"8.0","epoch":"TREATMENT"},{"seq":"56","testcd":"WEIGHT","test":"Weight","cat":null,"orres":"86.5","orresu":"kg","stresc":"86.5","stresn":"86.5","stresu":"kg","stnrlo":null,"stnrhi":null,"nrind":null,"pos":null,"loc":null,"dtc":"2024-09-16","dy":"170","visit":"EOT","visitnum":"8.0","epoch":"TREATMENT"},{"seq":"57","testcd":"BMI","test":"BMI","cat":null,"orres":"28.6","orresu":"kg/m2","stresc":"28.6","stresn":"28.6","stresu":"kg/m2","stnrlo":null,"stnrhi":null,"nrind":null,"pos":null,"loc":null,"dtc":"2024-10-16","dy":"200","visit":"FOLLOW-UP","visitnum":"9.0","epoch":"FOLLOW-UP"},{"seq":"58","testcd":"DIABP","test":"Diastolic Blood Pressure","cat":null,"orres":"80.7","orresu":"mmHg","stresc":"80.7","stresn":"80.7","stresu":"mmHg","stnrlo":null,"stnrhi":null,"nrind":null,"pos":null,"loc":null,"dtc":"2024-10-16","dy":"200","visit":"FOLLOW-UP","visitnum":"9.0","epoch":"FOLLOW-UP"},{"seq":"59","testcd":"HEIGHT","test":"Height","cat":null,"orres":"173.5","orresu":"cm","stresc":"173.5","stresn":"173.5","stresu":"cm","stnrlo":null,"stnrhi":null,"nrind":null,"pos":null,"loc":null,"dtc":"2024-10-16","dy":"200","visit":"FOLLOW-UP","visitnum":"9.0","epoch":"FOLLOW-UP"},{"seq":"60","testcd":"PULSE","test":"Pulse Rate","cat":null,"orres":"62.1","orresu":"beats/min","stresc":"62.1","stresn":"62.1","stresu":"beats/min","stnrlo":null,"stnrhi":null,"nrind":null,"pos":null,"loc":null,"dtc":"2024-10-16","dy":"200","visit":"FOLLOW-UP","visitnum":"9.0","epoch":"FOLLOW-UP"},{"seq":"61","testcd":"RESP","test":"Respiratory Rate","cat":null,"orres":"13.9","orresu":"breaths/min","stresc":"13.9","stresn":"13.9","stresu":"breaths/min","stnrlo":null,"stnrhi":null,"nrind":null,"pos":null,"loc":null,"dtc":"2024-10-16","dy":"200","visit":"FOLLOW-UP","visitnum":"9.0","epoch":"FOLLOW-UP"},{"seq":"62","testcd":"SYSBP","test":"Systolic Blood Pressure","cat":null,"orres":"115.0","orresu":"mmHg","stresc":"115.0","stresn":"115.0","stresu":"mmHg","stnrlo":null,"stnrhi":null,"nrind":null,"pos":null,"loc":null,"dtc":"2024-10-16","dy":"200","visit":"FOLLOW-UP","visitnum":"9.0","epoch":"FOLLOW-UP"},{"seq":"63","testcd":"TEMP","test":"Temperature","cat":null,"orres":"36.8","orresu":"C","stresc":"36.8","stresn":"36.8","stresu":"C","stnrlo":null,"stnrhi":null,"nrind":null,"pos":null,"loc":null,"dtc":"2024-10-16","dy":"200","visit":"FOLLOW-UP","visitnum":"9.0","epoch":"FOLLOW-UP"},{"seq":"64","testcd":"WEIGHT","test":"Weight","cat":null,"orres":"86.0","orresu":"kg","stresc":"86.0","stresn":"86.0","stresu":"kg","stnrlo":null,"stnrhi":null,"nrind":null,"pos":null,"loc":null,"dtc":"2024-10-16","dy":"200","visit":"FOLLOW-UP","visitnum":"9.0","epoch":"FOLLOW-UP"}]},"section_10_questionnaires_and_scores":{"questionnaires":[],"findings_about":[{"seq":"1","testcd":"LDIAM","test":"Longest Diameter","cat":"TUMOR ASSESSMENT","orres":"8.7","stresc":"8.7","stresn":"8.7","dtc":"2024-03-20","visit":"SCREENING"},{"seq":"2","testcd":"SAXIS","test":"Short Axis","cat":"TUMOR ASSESSMENT","orres":"3.5","stresc":"3.5","stresn":"3.5","dtc":"2024-03-20","visit":"SCREENING"},{"seq":"3","testcd":"LDIAM","test":"Longest Diameter","cat":"TUMOR ASSESSMENT","orres":"7.8","stresc":"7.8","stresn":"7.8","dtc":"2024-03-20","visit":"SCREENING"},{"seq":"4","testcd":"SAXIS","test":"Short Axis","cat":"TUMOR ASSESSMENT","orres":"19.0","stresc":"19.0","stresn":"19.0","dtc":"2024-03-20","visit":"SCREENING"},{"seq":"5","testcd":"LDIAM","test":"Longest Diameter","cat":"TUMOR ASSESSMENT","orres":"44.3","stresc":"44.3","stresn":"44.3","dtc":"2024-03-20","visit":"SCREENING"},{"seq":"6","testcd":"SAXIS","test":"Short Axis","cat":"TUMOR ASSESSMENT","orres":"6.4","stresc":"6.4","stresn":"6.4","dtc":"2024-03-20","visit":"SCREENING"},{"seq":"7","testcd":"LDIAM","test":"Longest Diameter","cat":"TUMOR ASSESSMENT","orres":"12.1","stresc":"12.1","stresn":"12.1","dtc":"2024-03-31","visit":"C1D1"},{"seq":"8","testcd":"SAXIS","test":"Short Axis","cat":"TUMOR ASSESSMENT","orres":"4.2","stresc":"4.2","stresn":"4.2","dtc":"2024-03-31","visit":"C1D1"},{"seq":"9","testcd":"LDIAM","test":"Longest Diameter","cat":"TUMOR ASSESSMENT","orres":"6.6","stresc":"6.6","stresn":"6.6","dtc":"2024-03-31","visit":"C1D1"},{"seq":"10","testcd":"SAXIS","test":"Short Axis","cat":"TUMOR ASSESSMENT","orres":"18.6","stresc":"18.6","stresn":"18.6","dtc":"2024-03-31","visit":"C1D1"},{"seq":"11","testcd":"LDIAM","test":"Longest Diameter","cat":"TUMOR ASSESSMENT","orres":"43.0","stresc":"43.0","stresn":"43.0","dtc":"2024-03-31","visit":"C1D1"},{"seq":"12","testcd":"SAXIS","test":"Short Axis","cat":"TUMOR ASSESSMENT","orres":"5.7","stresc":"5.7","stresn":"5.7","dtc":"2024-03-31","visit":"C1D1"},{"seq":"13","testcd":"LDIAM","test":"Longest Diameter","cat":"TUMOR ASSESSMENT","orres":"8.2","stresc":"8.2","stresn":"8.2","dtc":"2024-04-14","visit":"C1D15"},{"seq":"14","testcd":"SAXIS","test":"Short Axis","cat":"TUMOR ASSESSMENT","orres":"3","stresc":"3","stresn":"3.0","dtc":"2024-04-14","visit":"C1D15"},{"seq":"15","testcd":"LDIAM","test":"Longest Diameter","cat":"TUMOR ASSESSMENT","orres":"8.6","stresc":"8.6","stresn":"8.6","dtc":"2024-04-14","visit":"C1D15"},{"seq":"16","testcd":"SAXIS","test":"Short Axis","cat":"TUMOR ASSESSMENT","orres":"17.0","stresc":"17.0","stresn":"17.0","dtc":"2024-04-14","visit":"C1D15"},{"seq":"17","testcd":"LDIAM","test":"Longest Diameter","cat":"TUMOR ASSESSMENT","orres":"40.5","stresc":"40.5","stresn":"40.5","dtc":"2024-04-14","visit":"C1D15"},{"seq":"18","testcd":"SAXIS","test":"Short Axis","cat":"TUMOR ASSESSMENT","orres":"6.2","stresc":"6.2","stresn":"6.2","dtc":"2024-04-14","visit":"C1D15"},{"seq":"19","testcd":"LDIAM","test":"Longest Diameter","cat":"TUMOR ASSESSMENT","orres":"7.3","stresc":"7.3","stresn":"7.3","dtc":"2024-04-28","visit":"C2D1"},{"seq":"20","testcd":"SAXIS","test":"Short Axis","cat":"TUMOR ASSESSMENT","orres":"3.1","stresc":"3.1","stresn":"3.1","dtc":"2024-04-28","visit":"C2D1"},{"seq":"21","testcd":"LDIAM","test":"Longest Diameter","cat":"TUMOR ASSESSMENT","orres":"8.4","stresc":"8.4","stresn":"8.4","dtc":"2024-04-28","visit":"C2D1"},{"seq":"22","testcd":"SAXIS","test":"Short Axis","cat":"TUMOR ASSESSMENT","orres":"15.8","stresc":"15.8","stresn":"15.8","dtc":"2024-04-28","visit":"C2D1"},{"seq":"23","testcd":"LDIAM","test":"Longest Diameter","cat":"TUMOR ASSESSMENT","orres":"35.8","stresc":"35.8","stresn":"35.8","dtc":"2024-04-28","visit":"C2D1"},{"seq":"24","testcd":"SAXIS","test":"Short Axis","cat":"TUMOR ASSESSMENT","orres":"5.5","stresc":"5.5","stresn":"5.5","dtc":"2024-04-28","visit":"C2D1"},{"seq":"25","testcd":"LDIAM","test":"Longest Diameter","cat":"TUMOR ASSESSMENT","orres":"5","stresc":"5","stresn":"5.0","dtc":"2024-05-26","visit":"C3D1"},{"seq":"26","testcd":"SAXIS","test":"Short Axis","cat":"TUMOR ASSESSMENT","orres":"3","stresc":"3","stresn":"3.0","dtc":"2024-05-26","visit":"C3D1"},{"seq":"27","testcd":"LDIAM","test":"Longest Diameter","cat":"TUMOR ASSESSMENT","orres":"6.9","stresc":"6.9","stresn":"6.9","dtc":"2024-05-26","visit":"C3D1"},{"seq":"28","testcd":"SAXIS","test":"Short Axis","cat":"TUMOR ASSESSMENT","orres":"13.5","stresc":"13.5","stresn":"13.5","dtc":"2024-05-26","visit":"C3D1"},{"seq":"29","testcd":"LDIAM","test":"Longest Diameter","cat":"TUMOR ASSESSMENT","orres":"35.0","stresc":"35.0","stresn":"35.0","dtc":"2024-05-26","visit":"C3D1"},{"seq":"30","testcd":"SAXIS","test":"Short Axis","cat":"TUMOR ASSESSMENT","orres":"4.6","stresc":"4.6","stresn":"4.6","dtc":"2024-05-26","visit":"C3D1"},{"seq":"31","testcd":"LDIAM","test":"Longest Diameter","cat":"TUMOR ASSESSMENT","orres":"5","stresc":"5","stresn":"5.0","dtc":"2024-06-23","visit":"C4D1"},{"seq":"32","testcd":"SAXIS","test":"Short Axis","cat":"TUMOR ASSESSMENT","orres":"3","stresc":"3","stresn":"3.0","dtc":"2024-06-23","visit":"C4D1"},{"seq":"33","testcd":"LDIAM","test":"Longest Diameter","cat":"TUMOR ASSESSMENT","orres":"6.2","stresc":"6.2","stresn":"6.2","dtc":"2024-06-23","visit":"C4D1"},{"seq":"34","testcd":"SAXIS","test":"Short Axis","cat":"TUMOR ASSESSMENT","orres":"13.9","stresc":"13.9","stresn":"13.9","dtc":"2024-06-23","visit":"C4D1"},{"seq":"35","testcd":"LDIAM","test":"Longest Diameter","cat":"TUMOR ASSESSMENT","orres":"33.7","stresc":"33.7","stresn":"33.7","dtc":"2024-06-23","visit":"C4D1"},{"seq":"36","testcd":"SAXIS","test":"Short Axis","cat":"TUMOR ASSESSMENT","orres":"4.6","stresc":"4.6","stresn":"4.6","dtc":"2024-06-23","visit":"C4D1"},{"seq":"37","testcd":"LDIAM","test":"Longest Diameter","cat":"TUMOR ASSESSMENT","orres":"5","stresc":"5","stresn":"5.0","dtc":"2024-08-18","visit":"C6D1"},{"seq":"38","testcd":"SAXIS","test":"Short Axis","cat":"TUMOR ASSESSMENT","orres":"3","stresc":"3","stresn":"3.0","dtc":"2024-08-18","visit":"C6D1"},{"seq":"39","testcd":"LDIAM","test":"Longest Diameter","cat":"TUMOR ASSESSMENT","orres":"6.9","stresc":"6.9","stresn":"6.9","dtc":"2024-08-18","visit":"C6D1"},{"seq":"40","testcd":"SAXIS","test":"Short Axis","cat":"TUMOR ASSESSMENT","orres":"12.1","stresc":"12.1","stresn":"12.1","dtc":"2024-08-18","visit":"C6D1"},{"seq":"41","testcd":"LDIAM","test":"Longest Diameter","cat":"TUMOR ASSESSMENT","orres":"29.4","stresc":"29.4","stresn":"29.4","dtc":"2024-08-18","visit":"C6D1"},{"seq":"42","testcd":"SAXIS","test":"Short Axis","cat":"TUMOR ASSESSMENT","orres":"3.9","stresc":"3.9","stresn":"3.9","dtc":"2024-08-18","visit":"C6D1"},{"seq":"43","testcd":"LDIAM","test":"Longest Diameter","cat":"TUMOR ASSESSMENT","orres":"5","stresc":"5","stresn":"5.0","dtc":"2024-09-15","visit":"EOT"},{"seq":"44","testcd":"SAXIS","test":"Short Axis","cat":"TUMOR ASSESSMENT","orres":"3","stresc":"3","stresn":"3.0","dtc":"2024-09-15","visit":"EOT"},{"seq":"45","testcd":"LDIAM","test":"Longest Diameter","cat":"TUMOR ASSESSMENT","orres":"5","stresc":"5","stresn":"5.0","dtc":"2024-09-15","visit":"EOT"},{"seq":"46","testcd":"SAXIS","test":"Short Axis","cat":"TUMOR ASSESSMENT","orres":"11.8","stresc":"11.8","stresn":"11.8","dtc":"2024-09-15","visit":"EOT"},{"seq":"47","testcd":"LDIAM","test":"Longest Diameter","cat":"TUMOR ASSESSMENT","orres":"27.5","stresc":"27.5","stresn":"27.5","dtc":"2024-09-15","visit":"EOT"},{"seq":"48","testcd":"SAXIS","test":"Short Axis","cat":"TUMOR ASSESSMENT","orres":"4.6","stresc":"4.6","stresn":"4.6","dtc":"2024-09-15","visit":"EOT"}]},"section_11_protocol_deviations":{"deviations":[{"seq":"1","term":"Missed TEPOTINIB dose on 2024-05-21","decod":"MISSED DOSE","cat":"MINOR","scat":"DOSING","start_dtc":"2024-05-21","end_dtc":null,"visit":null},{"seq":"2","term":"Missed TEPOTINIB dose on 2024-05-22","decod":"MISSED DOSE","cat":"MINOR","scat":"DOSING","start_dtc":"2024-05-22","end_dtc":null,"visit":null},{"seq":"3","term":"Missed TEPOTINIB dose on 2024-06-23","decod":"MISSED DOSE","cat":"MINOR","scat":"DOSING","start_dtc":"2024-06-23","end_dtc":null,"visit":null},{"seq":"4","term":"Missed TEPOTINIB dose on 2024-06-27","decod":"MISSED DOSE","cat":"MINOR","scat":"DOSING","start_dtc":"2024-06-27","end_dtc":null,"visit":null},{"seq":"5","term":"Missed TEPOTINIB dose on 2024-07-03","decod":"MISSED DOSE","cat":"MINOR","scat":"DOSING","start_dtc":"2024-07-03","end_dtc":null,"visit":null},{"seq":"6","term":"Missed TEPOTINIB dose on 2024-07-23","decod":"MISSED DOSE","cat":"MINOR","scat":"DOSING","start_dtc":"2024-07-23","end_dtc":null,"visit":null},{"seq":"7","term":"Missed TEPOTINIB dose on 2024-07-25","decod":"MISSED DOSE","cat":"MINOR","scat":"DOSING","start_dtc":"2024-07-25","end_dtc":null,"visit":null},{"seq":"8","term":"Missed TEPOTINIB dose on 2024-07-26","decod":"MISSED DOSE","cat":"MINOR","scat":"DOSING","start_dtc":"2024-07-26","end_dtc":null,"visit":null},{"seq":"9","term":"Visit C6D1 occurred 1 days late (Day 142 vs planned Day 141)","decod":"VISIT OCCURRED OUTSIDE VISIT WINDOW","cat":"MINOR","scat":"VISIT WINDOW","start_dtc":"2024-08-19","end_dtc":null,"visit":null},{"seq":"10","term":"Visit FOLLOW-UP occurred 1 days late (Day 200 vs planned Day 199)","decod":"VISIT OCCURRED OUTSIDE VISIT WINDOW","cat":"MINOR","scat":"VISIT WINDOW","start_dtc":"2024-10-16","end_dtc":null,"visit":null}],"total":10},"section_12_disposition":{"completion_status":"COMPLETED","disposition_records":[{"seq":"1","term":"INFORMED CONSENT OBTAINED","decod":"INFORMED CONSENT OBTAINED","cat":"PROTOCOL MILESTONE","scat":null,"dtc":"2024-03-20","dy":null,"visit":null,"epoch":"SCREENING"},{"seq":"2","term":"RANDOMIZED","decod":"RANDOMIZED","cat":"PROTOCOL MILESTONE","scat":null,"dtc":"2024-03-31","dy":null,"visit":null,"epoch":"TREATMENT"},{"seq":"3","term":"COMPLETED","decod":"COMPLETED","cat":"DISPOSITION EVENT","scat":null,"dtc":"2024-11-11","dy":null,"visit":null,"epoch":"FOLLOW-UP"}],"death":null},"section_13_hospitalizations":{"items":[],"total":0},"section_14_substance_use":{"items":[{"seq":"1","substance":"ALCOHOL","decod":"ALCOHOL","cat":"ALCOHOL","scat":null,"usage":"N","dose":null,"dosu":null,"freq":null,"start_dtc":null,"end_dtc":null},{"seq":"2","substance":"COFFEE","decod":"COFFEE","cat":"CAFFEINE","scat":null,"usage":"Y","dose":"5.0","dosu":"CUPS/DAY","freq":"QD","start_dtc":"2006-03-25","end_dtc":null},{"seq":"3","substance":"CIGARETTES","decod":"CIGARETTES","cat":"TOBACCO","scat":"CIGARETTES","usage":"Y","dose":null,"dosu":null,"freq":null,"start_dtc":"2007-03-25","end_dtc":"2016-03-22"}],"total":3},"section_15_subject_status":{"items":[{"seq":"1","testcd":"SURVSTAT","test":"Survival Status","orres":"ALIVE","stresc":"ALIVE","dtc":"2024-10-15","visit":"FOLLOW-UP","epoch":"FOLLOW-UP"}],"total":1}}