{"subject_id":"VISION-NSCLC-SITE002-0326","study_id":"VISION-NSCLC","generated_at":"2026-06-09T04:14:22.108277+00:00","sdtmig_version":"3.4","flags":{"has_serious_ae":true,"has_fatal_ae":false,"has_protocol_deviation":true,"n_protocol_deviations":12,"n_adverse_events":3,"n_concomitant_meds":1,"max_ae_severity":"SEVERE","screen_failure":false,"discontinued_early":false,"discontinuation_reason":null,"death":false,"exposure_days":157},"timeline":[{"dtc":"2024-03-22","dy":"-41","event":"VISIT: SCREENING","domain":"SV","category":"visit"},{"dtc":"2024-04-07","dy":"-25","event":"INFORMED CONSENT OBTAINED","domain":"DS","category":"milestone"},{"dtc":"2024-05-02","dy":"1","event":"RANDOMIZED","domain":"DS","category":"milestone"},{"dtc":"2024-05-02","dy":"1","event":"FIRST DOSE: TEPOTINIB","domain":"EX","category":"exposure"},{"dtc":"2024-05-02","dy":"1","event":"VISIT: C1D1","domain":"SV","category":"visit"},{"dtc":"2024-05-03","dy":"2","event":"DEVIATION: MISSED DOSE","domain":"DV","category":"deviation"},{"dtc":"2024-05-14","dy":"13","event":"DEVIATION: VISIT OCCURRED OUTSIDE VISIT WINDOW","domain":"DV","category":"deviation"},{"dtc":"2024-05-14","dy":"13","event":"VISIT: C1D15","domain":"SV","category":"visit"},{"dtc":"2024-05-21","dy":"20","event":"DEVIATION: MISSED DOSE","domain":"DV","category":"deviation"},{"dtc":"2024-05-25","dy":"24","event":"DEVIATION: MISSED DOSE","domain":"DV","category":"deviation"},{"dtc":"2024-05-28","dy":"27","event":"DEVIATION: MISSED DOSE","domain":"DV","category":"deviation"},{"dtc":"2024-06-01","dy":"31","event":"VISIT: C2D1","domain":"SV","category":"visit"},{"dtc":"2024-06-02","dy":"32","event":"AE: Fatigue (MILD)","domain":"AE","category":"adverse_event"},{"dtc":"2024-06-10","dy":"40","event":"DEVIATION: MISSED DOSE","domain":"DV","category":"deviation"},{"dtc":"2024-06-28","dy":"58","event":"VISIT: C3D1","domain":"SV","category":"visit"},{"dtc":"2024-07-04","dy":"64","event":"DEVIATION: MISSED DOSE","domain":"DV","category":"deviation"},{"dtc":"2024-07-06","dy":"66","event":"DEVIATION: MISSED DOSE","domain":"DV","category":"deviation"},{"dtc":"2024-07-19","dy":"79","event":"DEVIATION: MISSED DOSE","domain":"DV","category":"deviation"},{"dtc":"2024-07-20","dy":"80","event":"DEVIATION: MISSED DOSE","domain":"DV","category":"deviation"},{"dtc":"2024-07-26","dy":"86","event":"DEVIATION: VISIT OCCURRED OUTSIDE VISIT WINDOW","domain":"DV","category":"deviation"},{"dtc":"2024-07-26","dy":"86","event":"VISIT: C4D1","domain":"SV","category":"visit"},{"dtc":"2024-08-16","dy":"107","event":"AE: Fatigue (SEVERE) [SERIOUS]","domain":"AE","category":"adverse_event"},{"dtc":"2024-09-19","dy":"141","event":"VISIT: C6D1","domain":"SV","category":"visit"},{"dtc":"2024-09-30","dy":"152","event":"AE: Pneumonia (MODERATE)","domain":"AE","category":"adverse_event"},{"dtc":"2024-09-30","dy":"152","event":"CM START: AMOXICILLIN/CLAVULANATE","domain":"CM","category":"concomitant_med"},{"dtc":"2024-10-06","dy":"158","event":"LAST DOSE: TEPOTINIB","domain":"EX","category":"exposure"},{"dtc":"2024-10-19","dy":"171","event":"VISIT: EOT","domain":"SV","category":"visit"},{"dtc":"2024-11-09","dy":"192","event":"DEVIATION: VISIT OCCURRED OUTSIDE VISIT WINDOW","domain":"DV","category":"deviation"},{"dtc":"2024-11-09","dy":"192","event":"VISIT: FOLLOW-UP","domain":"SV","category":"visit"},{"dtc":"2024-12-13","dy":"226","event":"COMPLETED","domain":"DS","category":"milestone"}],"section_1_demographics":{"usubjid":"VISION-NSCLC-SITE002-0326","subjid":"0326","siteid":"SITE002","age":"45","ageu":"YEARS","sex":"F","race":"WHITE","ethnicity":"NOT HISPANIC OR LATINO","country":"USA","arm":"Tepotinib 500mg QD","armcd":"TEP500","actarm":"Tepotinib 500mg QD","actarmcd":"TEP500","randomization_date":null,"informed_consent_date":"2024-04-07","reference_start_date":"2024-05-02","reference_end_date":"2024-12-13","screen_failure":false,"death_flag":null,"death_date":null,"subject_characteristics":[{"testcd":"ALCUSE","test":"Alcohol Use","orres":"NON-DRINKER","stresc":"NON-DRINKER","visit":null,"dtc":"2024-04-07"},{"testcd":"BMI","test":"Body Mass Index","orres":"25.7","stresc":"25.7","visit":null,"dtc":"2024-04-07"},{"testcd":"DURDIS","test":"Duration of Disease","orres":"48 months","stresc":"48","visit":null,"dtc":"2024-04-07"},{"testcd":"TOBUSE","test":"Tobacco Use","orres":"NEVER SMOKED","stresc":"NEVER SMOKED","visit":null,"dtc":"2024-04-07"}]},"section_2_medical_history":{"items":[{"seq":"1","term":"ASTHMA","decod":"ASTHMA","cat":"RESPIRATORY","scat":null,"presp":null,"occur":null,"status":null,"onset_dtc":"2020-04","end_dtc":null,"visit":null},{"seq":"2","term":"DEPRESSION","decod":"DEPRESSION","cat":"PSYCHIATRIC","scat":null,"presp":null,"occur":null,"status":null,"onset_dtc":"2021-04-08","end_dtc":"2021-06-15","visit":null},{"seq":"3","term":"HYPERLIPIDEMIA","decod":"HYPERLIPIDEMIA","cat":"METABOLIC","scat":null,"presp":null,"occur":null,"status":null,"onset_dtc":"2022-04-08","end_dtc":"2022-11-05","visit":null}]},"section_3_inclusion_exclusion":{"criteria":[]},"section_4_trial_participation":{"visits":[{"visitnum":"1.0","visit":"SCREENING","start_dtc":"2024-03-22","end_dtc":"2024-03-22","updes":null},{"visitnum":"2.0","visit":"C1D1","start_dtc":"2024-05-02","end_dtc":"2024-05-02","updes":null},{"visitnum":"3.0","visit":"C1D15","start_dtc":"2024-05-14","end_dtc":"2024-05-14","updes":null},{"visitnum":"4.0","visit":"C2D1","start_dtc":"2024-06-01","end_dtc":"2024-06-01","updes":null},{"visitnum":"5.0","visit":"C3D1","start_dtc":"2024-06-28","end_dtc":"2024-06-28","updes":null},{"visitnum":"6.0","visit":"C4D1","start_dtc":"2024-07-26","end_dtc":"2024-07-26","updes":null},{"visitnum":"7.0","visit":"C6D1","start_dtc":"2024-09-19","end_dtc":"2024-09-19","updes":null},{"visitnum":"8.0","visit":"EOT","start_dtc":"2024-10-19","end_dtc":"2024-10-19","updes":null},{"visitnum":"9.0","visit":"FOLLOW-UP","start_dtc":"2024-11-09","end_dtc":"2024-11-09","updes":null}],"epochs":[{"seq":"1","etcd":"SCRN","element":"Screening","start_dtc":"2024-04-04","end_dtc":"2024-05-02","updes":null},{"seq":"2","etcd":"TRT","element":"Treatment","start_dtc":"2024-05-02","end_dtc":"2024-10-17","updes":null},{"seq":"3","etcd":"FU","element":"Follow-up","start_dtc":"2024-10-17","end_dtc":"2024-11-15","updes":null}],"visit_count":9},"section_5_concomitant_medications":{"medications":[{"seq":"1","trt":"AMOXICILLIN/CLAVULANATE","decod":"AMOXICILLIN/CLAVULANATE","cat":"CONCOMITANT","dose":"875","doseu":null,"dosef":"BID","route":"ORAL","indication":"PNEUMONIA","start_dtc":"2024-09-30","end_dtc":"2024-10-19","ongoing":null,"visit":null}]},"section_6_exposure":{"exposure_as_administered":[{"seq":"1","trt":"TEPOTINIB","dose":"500.0","doseu":null,"dosef":"QD","route":"ORAL","lot":null,"start_dtc":"2024-05-02","end_dtc":"2024-08-15","start_dy":"1","end_dy":"106","epoch":"TREATMENT","visit":null},{"seq":"2","trt":"TEPOTINIB","dose":"500.0","doseu":null,"dosef":"QD","route":"ORAL","lot":null,"start_dtc":"2024-09-21","end_dtc":"2024-10-06","start_dy":"143","end_dy":"158","epoch":"TREATMENT","visit":null}],"exposure_as_collected":[{"seq":"1","trt":"TEPOTINIB","dose":"500.0","doseu":null,"dosef":"QD","route":"ORAL","start_dtc":"2024-05-02","end_dtc":"2024-05-02","visit":"C1D1"},{"seq":"2","trt":"TEPOTINIB","dose":null,"doseu":null,"dosef":"QD","route":"ORAL","start_dtc":"2024-05-03","end_dtc":"2024-05-03","visit":"C1D1"},{"seq":"3","trt":"TEPOTINIB","dose":"500.0","doseu":null,"dosef":"QD","route":"ORAL","start_dtc":"2024-05-04","end_dtc":"2024-05-04","visit":"C1D1"},{"seq":"4","trt":"TEPOTINIB","dose":"500.0","doseu":null,"dosef":"QD","route":"ORAL","start_dtc":"2024-05-05","end_dtc":"2024-05-05","visit":"C1D1"},{"seq":"5","trt":"TEPOTINIB","dose":"500.0","doseu":null,"dosef":"QD","route":"ORAL","start_dtc":"2024-05-06","end_dtc":"2024-05-06","visit":null},{"seq":"6","trt":"TEPOTINIB","dose":"500.0","doseu":null,"dosef":"QD","route":"ORAL","start_dtc":"2024-05-07","end_dtc":"2024-05-07","visit":null},{"seq":"7","trt":"TEPOTINIB","dose":"500.0","doseu":null,"dosef":"QD","route":"ORAL","start_dtc":"2024-05-08","end_dtc":"2024-05-08","visit":null},{"seq":"8","trt":"TEPOTINIB","dose":"500.0","doseu":null,"dosef":"QD","route":"ORAL","start_dtc":"2024-05-09","end_dtc":"2024-05-09","visit":null},{"seq":"9","trt":"TEPOTINIB","dose":"500.0","doseu":null,"dosef":"QD","route":"ORAL","start_dtc":"2024-05-10","end_dtc":"2024-05-10","visit":null},{"seq":"10","trt":"TEPOTINIB","dose":"500.0","doseu":null,"dosef":"QD","route":"ORAL","start_dtc":"2024-05-11","end_dtc":"2024-05-11","visit":null},{"seq":"11","trt":"TEPOTINIB","dose":"500.0","doseu":null,"dosef":"QD","route":"ORAL","start_dtc":"2024-05-12","end_dtc":"2024-05-12","visit":null},{"seq":"12","trt":"TEPOTINIB","dose":"500.0","doseu":null,"dosef":"QD","route":"ORAL","start_dtc":"2024-05-13","end_dtc":"2024-05-13","visit":"C1D15"},{"seq":"13","trt":"TEPOTINIB","dose":"500.0","doseu":null,"dosef":"QD","route":"ORAL","start_dtc":"2024-05-14","end_dtc":"2024-05-14","visit":"C1D15"},{"seq":"14","trt":"TEPOTINIB","dose":"500.0","doseu":null,"dosef":"QD","route":"ORAL","start_dtc":"2024-05-15","end_dtc":"2024-05-15","visit":"C1D15"},{"seq":"15","trt":"TEPOTINIB","dose":"500.0","doseu":null,"dosef":"QD","route":"ORAL","start_dtc":"2024-05-16","end_dtc":"2024-05-16","visit":"C1D15"},{"seq":"16","trt":"TEPOTINIB","dose":"500.0","doseu":null,"dosef":"QD","route":"ORAL","start_dtc":"2024-05-17","end_dtc":"2024-05-17","visit":"C1D15"},{"seq":"17","trt":"TEPOTINIB","dose":"500.0","doseu":null,"dosef":"QD","route":"ORAL","start_dtc":"2024-05-18","end_dtc":"2024-05-18","visit":"C1D15"},{"seq":"18","trt":"TEPOTINIB","dose":"500.0","doseu":null,"dosef":"QD","route":"ORAL","start_dtc":"2024-05-19","end_dtc":"2024-05-19","visit":"C1D15"},{"seq":"19","trt":"TEPOTINIB","dose":"500.0","doseu":null,"dosef":"QD","route":"ORAL","start_dtc":"2024-05-20","end_dtc":"2024-05-20","visit":null},{"seq":"20","trt":"TEPOTINIB","dose":null,"doseu":null,"dosef":"QD","route":"ORAL","start_dtc":"2024-05-21","end_dtc":"2024-05-21","visit":null},{"seq":"21","trt":"TEPOTINIB","dose":"500.0","doseu":null,"dosef":"QD","route":"ORAL","start_dtc":"2024-05-22","end_dtc":"2024-05-22","visit":null},{"seq":"22","trt":"TEPOTINIB","dose":"500.0","doseu":null,"dosef":"QD","route":"ORAL","start_dtc":"2024-05-23","end_dtc":"2024-05-23","visit":null},{"seq":"23","trt":"TEPOTINIB","dose":"500.0","doseu":null,"dosef":"QD","route":"ORAL","start_dtc":"2024-05-24","end_dtc":"2024-05-24","visit":null},{"seq":"24","trt":"TEPOTINIB","dose":null,"doseu":null,"dosef":"QD","route":"ORAL","start_dtc":"2024-05-25","end_dtc":"2024-05-25","visit":null},{"seq":"25","trt":"TEPOTINIB","dose":"500.0","doseu":null,"dosef":"QD","route":"ORAL","start_dtc":"2024-05-26","end_dtc":"2024-05-26","visit":null},{"seq":"26","trt":"TEPOTINIB","dose":"500.0","doseu":null,"dosef":"QD","route":"ORAL","start_dtc":"2024-05-27","end_dtc":"2024-05-27","visit":"C2D1"},{"seq":"27","trt":"TEPOTINIB","dose":null,"doseu":null,"dosef":"QD","route":"ORAL","start_dtc":"2024-05-28","end_dtc":"2024-05-28","visit":"C2D1"},{"seq":"28","trt":"TEPOTINIB","dose":"500.0","doseu":null,"dosef":"QD","route":"ORAL","start_dtc":"2024-05-29","end_dtc":"2024-05-29","visit":"C2D1"},{"seq":"29","trt":"TEPOTINIB","dose":"500.0","doseu":null,"dosef":"QD","route":"ORAL","start_dtc":"2024-05-30","end_dtc":"2024-05-30","visit":"C2D1"},{"seq":"30","trt":"TEPOTINIB","dose":"500.0","doseu":null,"dosef":"QD","route":"ORAL","start_dtc":"2024-05-31","end_dtc":"2024-05-31","visit":"C2D1"},{"seq":"31","trt":"TEPOTINIB","dose":"500.0","doseu":null,"dosef":"QD","route":"ORAL","start_dtc":"2024-06-01","end_dtc":"2024-06-01","visit":"C2D1"},{"seq":"32","trt":"TEPOTINIB","dose":"500.0","doseu":null,"dosef":"QD","route":"ORAL","start_dtc":"2024-06-02","end_dtc":"2024-06-02","visit":"C2D1"},{"seq":"33","trt":"TEPOTINIB","dose":"500.0","doseu":null,"dosef":"QD","route":"ORAL","start_dtc":"2024-06-03","end_dtc":"2024-06-03","visit":null},{"seq":"34","trt":"TEPOTINIB","dose":"500.0","doseu":null,"dosef":"QD","route":"ORAL","start_dtc":"2024-06-04","end_dtc":"2024-06-04","visit":null},{"seq":"35","trt":"TEPOTINIB","dose":"500.0","doseu":null,"dosef":"QD","route":"ORAL","start_dtc":"2024-06-05","end_dtc":"2024-06-05","visit":null},{"seq":"36","trt":"TEPOTINIB","dose":"500.0","doseu":null,"dosef":"QD","route":"ORAL","start_dtc":"2024-06-06","end_dtc":"2024-06-06","visit":null},{"seq":"37","trt":"TEPOTINIB","dose":"500.0","doseu":null,"dosef":"QD","route":"ORAL","start_dtc":"2024-06-07","end_dtc":"2024-06-07","visit":null},{"seq":"38","trt":"TEPOTINIB","dose":"500.0","doseu":null,"dosef":"QD","route":"ORAL","start_dtc":"2024-06-08","end_dtc":"2024-06-08","visit":null},{"seq":"39","trt":"TEPOTINIB","dose":"500.0","doseu":null,"dosef":"QD","route":"ORAL","start_dtc":"2024-06-09","end_dtc":"2024-06-09","visit":null},{"seq":"40","trt":"TEPOTINIB","dose":null,"doseu":null,"dosef":"QD","route":"ORAL","start_dtc":"2024-06-10","end_dtc":"2024-06-10","visit":null},{"seq":"41","trt":"TEPOTINIB","dose":"500.0","doseu":null,"dosef":"QD","route":"ORAL","start_dtc":"2024-06-11","end_dtc":"2024-06-11","visit":null},{"seq":"42","trt":"TEPOTINIB","dose":"500.0","doseu":null,"dosef":"QD","route":"ORAL","start_dtc":"2024-06-12","end_dtc":"2024-06-12","visit":null},{"seq":"43","trt":"TEPOTINIB","dose":"500.0","doseu":null,"dosef":"QD","route":"ORAL","start_dtc":"2024-06-13","end_dtc":"2024-06-13","visit":null},{"seq":"44","trt":"TEPOTINIB","dose":"500.0","doseu":null,"dosef":"QD","route":"ORAL","start_dtc":"2024-06-14","end_dtc":"2024-06-14","visit":null},{"seq":"45","trt":"TEPOTINIB","dose":"500.0","doseu":null,"dosef":"QD","route":"ORAL","start_dtc":"2024-06-15","end_dtc":"2024-06-15","visit":null},{"seq":"46","trt":"TEPOTINIB","dose":"500.0","doseu":null,"dosef":"QD","route":"ORAL","start_dtc":"2024-06-16","end_dtc":"2024-06-16","visit":null},{"seq":"47","trt":"TEPOTINIB","dose":"500.0","doseu":null,"dosef":"QD","route":"ORAL","start_dtc":"2024-06-17","end_dtc":"2024-06-17","visit":null},{"seq":"48","trt":"TEPOTINIB","dose":"500.0","doseu":null,"dosef":"QD","route":"ORAL","start_dtc":"2024-06-18","end_dtc":"2024-06-18","visit":null},{"seq":"49","trt":"TEPOTINIB","dose":"500.0","doseu":null,"dosef":"QD","route":"ORAL","start_dtc":"2024-06-19","end_dtc":"2024-06-19","visit":null},{"seq":"50","trt":"TEPOTINIB","dose":"500.0","doseu":null,"dosef":"QD","route":"ORAL","start_dtc":"2024-06-20","end_dtc":"2024-06-20","visit":null},{"seq":"51","trt":"TEPOTINIB","dose":"500.0","doseu":null,"dosef":"QD","route":"ORAL","start_dtc":"2024-06-21","end_dtc":"2024-06-21","visit":null},{"seq":"52","trt":"TEPOTINIB","dose":"500.0","doseu":null,"dosef":"QD","route":"ORAL","start_dtc":"2024-06-22","end_dtc":"2024-06-22","visit":null},{"seq":"53","trt":"TEPOTINIB","dose":"500.0","doseu":null,"dosef":"QD","route":"ORAL","start_dtc":"2024-06-23","end_dtc":"2024-06-23","visit":null},{"seq":"54","trt":"TEPOTINIB","dose":"500.0","doseu":null,"dosef":"QD","route":"ORAL","start_dtc":"2024-06-24","end_dtc":"2024-06-24","visit":"C3D1"},{"seq":"55","trt":"TEPOTINIB","dose":"500.0","doseu":null,"dosef":"QD","route":"ORAL","start_dtc":"2024-06-25","end_dtc":"2024-06-25","visit":"C3D1"},{"seq":"56","trt":"TEPOTINIB","dose":"500.0","doseu":null,"dosef":"QD","route":"ORAL","start_dtc":"2024-06-26","end_dtc":"2024-06-26","visit":"C3D1"},{"seq":"57","trt":"TEPOTINIB","dose":"500.0","doseu":null,"dosef":"QD","route":"ORAL","start_dtc":"2024-06-27","end_dtc":"2024-06-27","visit":"C3D1"},{"seq":"58","trt":"TEPOTINIB","dose":"500.0","doseu":null,"dosef":"QD","route":"ORAL","start_dtc":"2024-06-28","end_dtc":"2024-06-28","visit":"C3D1"},{"seq":"59","trt":"TEPOTINIB","dose":"500.0","doseu":null,"dosef":"QD","route":"ORAL","start_dtc":"2024-06-29","end_dtc":"2024-06-29","visit":"C3D1"},{"seq":"60","trt":"TEPOTINIB","dose":"500.0","doseu":null,"dosef":"QD","route":"ORAL","start_dtc":"2024-06-30","end_dtc":"2024-06-30","visit":"C3D1"},{"seq":"61","trt":"TEPOTINIB","dose":"500.0","doseu":null,"dosef":"QD","route":"ORAL","start_dtc":"2024-07-01","end_dtc":"2024-07-01","visit":null},{"seq":"62","trt":"TEPOTINIB","dose":"500.0","doseu":null,"dosef":"QD","route":"ORAL","start_dtc":"2024-07-02","end_dtc":"2024-07-02","visit":null},{"seq":"63","trt":"TEPOTINIB","dose":"500.0","doseu":null,"dosef":"QD","route":"ORAL","start_dtc":"2024-07-03","end_dtc":"2024-07-03","visit":null},{"seq":"64","trt":"TEPOTINIB","dose":null,"doseu":null,"dosef":"QD","route":"ORAL","start_dtc":"2024-07-04","end_dtc":"2024-07-04","visit":null},{"seq":"65","trt":"TEPOTINIB","dose":"500.0","doseu":null,"dosef":"QD","route":"ORAL","start_dtc":"2024-07-05","end_dtc":"2024-07-05","visit":null},{"seq":"66","trt":"TEPOTINIB","dose":null,"doseu":null,"dosef":"QD","route":"ORAL","start_dtc":"2024-07-06","end_dtc":"2024-07-06","visit":null},{"seq":"67","trt":"TEPOTINIB","dose":"500.0","doseu":null,"dosef":"QD","route":"ORAL","start_dtc":"2024-07-07","end_dtc":"2024-07-07","visit":null},{"seq":"68","trt":"TEPOTINIB","dose":"500.0","doseu":null,"dosef":"QD","route":"ORAL","start_dtc":"2024-07-08","end_dtc":"2024-07-08","visit":null},{"seq":"69","trt":"TEPOTINIB","dose":"500.0","doseu":null,"dosef":"QD","route":"ORAL","start_dtc":"2024-07-09","end_dtc":"2024-07-09","visit":null},{"seq":"70","trt":"TEPOTINIB","dose":"500.0","doseu":null,"dosef":"QD","route":"ORAL","start_dtc":"2024-07-10","end_dtc":"2024-07-10","visit":null},{"seq":"71","trt":"TEPOTINIB","dose":"500.0","doseu":null,"dosef":"QD","route":"ORAL","start_dtc":"2024-07-11","end_dtc":"2024-07-11","visit":null},{"seq":"72","trt":"TEPOTINIB","dose":"500.0","doseu":null,"dosef":"QD","route":"ORAL","start_dtc":"2024-07-12","end_dtc":"2024-07-12","visit":null},{"seq":"73","trt":"TEPOTINIB","dose":"500.0","doseu":null,"dosef":"QD","route":"ORAL","start_dtc":"2024-07-13","end_dtc":"2024-07-13","visit":null},{"seq":"74","trt":"TEPOTINIB","dose":"500.0","doseu":null,"dosef":"QD","route":"ORAL","start_dtc":"2024-07-14","end_dtc":"2024-07-14","visit":null},{"seq":"75","trt":"TEPOTINIB","dose":"500.0","doseu":null,"dosef":"QD","route":"ORAL","start_dtc":"2024-07-15","end_dtc":"2024-07-15","visit":null},{"seq":"76","trt":"TEPOTINIB","dose":"500.0","doseu":null,"dosef":"QD","route":"ORAL","start_dtc":"2024-07-16","end_dtc":"2024-07-16","visit":null},{"seq":"77","trt":"TEPOTINIB","dose":"500.0","doseu":null,"dosef":"QD","route":"ORAL","start_dtc":"2024-07-17","end_dtc":"2024-07-17","visit":null},{"seq":"78","trt":"TEPOTINIB","dose":"500.0","doseu":null,"dosef":"QD","route":"ORAL","start_dtc":"2024-07-18","end_dtc":"2024-07-18","visit":null},{"seq":"79","trt":"TEPOTINIB","dose":null,"doseu":null,"dosef":"QD","route":"ORAL","start_dtc":"2024-07-19","end_dtc":"2024-07-19","visit":null},{"seq":"80","trt":"TEPOTINIB","dose":null,"doseu":null,"dosef":"QD","route":"ORAL","start_dtc":"2024-07-20","end_dtc":"2024-07-20","visit":null},{"seq":"81","trt":"TEPOTINIB","dose":"500.0","doseu":null,"dosef":"QD","route":"ORAL","start_dtc":"2024-07-21","end_dtc":"2024-07-21","visit":null},{"seq":"82","trt":"TEPOTINIB","dose":"500.0","doseu":null,"dosef":"QD","route":"ORAL","start_dtc":"2024-07-22","end_dtc":"2024-07-22","visit":"C4D1"},{"seq":"83","trt":"TEPOTINIB","dose":"500.0","doseu":null,"dosef":"QD","route":"ORAL","start_dtc":"2024-07-23","end_dtc":"2024-07-23","visit":"C4D1"},{"seq":"84","trt":"TEPOTINIB","dose":"500.0","doseu":null,"dosef":"QD","route":"ORAL","start_dtc":"2024-07-24","end_dtc":"2024-07-24","visit":"C4D1"},{"seq":"85","trt":"TEPOTINIB","dose":"500.0","doseu":null,"dosef":"QD","route":"ORAL","start_dtc":"2024-07-25","end_dtc":"2024-07-25","visit":"C4D1"},{"seq":"86","trt":"TEPOTINIB","dose":"500.0","doseu":null,"dosef":"QD","route":"ORAL","start_dtc":"2024-07-26","end_dtc":"2024-07-26","visit":"C4D1"},{"seq":"87","trt":"TEPOTINIB","dose":"500.0","doseu":null,"dosef":"QD","route":"ORAL","start_dtc":"2024-07-27","end_dtc":"2024-07-27","visit":"C4D1"},{"seq":"88","trt":"TEPOTINIB","dose":"500.0","doseu":null,"dosef":"QD","route":"ORAL","start_dtc":"2024-07-28","end_dtc":"2024-07-28","visit":"C4D1"},{"seq":"89","trt":"TEPOTINIB","dose":"500.0","doseu":null,"dosef":"QD","route":"ORAL","start_dtc":"2024-07-29","end_dtc":"2024-07-29","visit":null},{"seq":"90","trt":"TEPOTINIB","dose":"500.0","doseu":null,"dosef":"QD","route":"ORAL","start_dtc":"2024-07-30","end_dtc":"2024-07-30","visit":null},{"seq":"91","trt":"TEPOTINIB","dose":"500.0","doseu":null,"dosef":"QD","route":"ORAL","start_dtc":"2024-07-31","end_dtc":"2024-07-31","visit":null},{"seq":"92","trt":"TEPOTINIB","dose":"500.0","doseu":null,"dosef":"QD","route":"ORAL","start_dtc":"2024-08-01","end_dtc":"2024-08-01","visit":null},{"seq":"93","trt":"TEPOTINIB","dose":"500.0","doseu":null,"dosef":"QD","route":"ORAL","start_dtc":"2024-08-02","end_dtc":"2024-08-02","visit":null},{"seq":"94","trt":"TEPOTINIB","dose":"500.0","doseu":null,"dosef":"QD","route":"ORAL","start_dtc":"2024-08-03","end_dtc":"2024-08-03","visit":null},{"seq":"95","trt":"TEPOTINIB","dose":"500.0","doseu":null,"dosef":"QD","route":"ORAL","start_dtc":"2024-08-04","end_dtc":"2024-08-04","visit":null},{"seq":"96","trt":"TEPOTINIB","dose":"500.0","doseu":null,"dosef":"QD","route":"ORAL","start_dtc":"2024-08-05","end_dtc":"2024-08-05","visit":null},{"seq":"97","trt":"TEPOTINIB","dose":"500.0","doseu":null,"dosef":"QD","route":"ORAL","start_dtc":"2024-08-06","end_dtc":"2024-08-06","visit":null},{"seq":"98","trt":"TEPOTINIB","dose":"500.0","doseu":null,"dosef":"QD","route":"ORAL","start_dtc":"2024-08-07","end_dtc":"2024-08-07","visit":null},{"seq":"99","trt":"TEPOTINIB","dose":"500.0","doseu":null,"dosef":"QD","route":"ORAL","start_dtc":"2024-08-08","end_dtc":"2024-08-08","visit":null},{"seq":"100","trt":"TEPOTINIB","dose":"500.0","doseu":null,"dosef":"QD","route":"ORAL","start_dtc":"2024-08-09","end_dtc":"2024-08-09","visit":null},{"seq":"101","trt":"TEPOTINIB","dose":"500.0","doseu":null,"dosef":"QD","route":"ORAL","start_dtc":"2024-08-10","end_dtc":"2024-08-10","visit":null},{"seq":"102","trt":"TEPOTINIB","dose":"500.0","doseu":null,"dosef":"QD","route":"ORAL","start_dtc":"2024-08-11","end_dtc":"2024-08-11","visit":null},{"seq":"103","trt":"TEPOTINIB","dose":"500.0","doseu":null,"dosef":"QD","route":"ORAL","start_dtc":"2024-08-12","end_dtc":"2024-08-12","visit":null},{"seq":"104","trt":"TEPOTINIB","dose":"500.0","doseu":null,"dosef":"QD","route":"ORAL","start_dtc":"2024-08-13","end_dtc":"2024-08-13","visit":null},{"seq":"105","trt":"TEPOTINIB","dose":"500.0","doseu":null,"dosef":"QD","route":"ORAL","start_dtc":"2024-08-14","end_dtc":"2024-08-14","visit":null},{"seq":"106","trt":"TEPOTINIB","dose":"500.0","doseu":null,"dosef":"QD","route":"ORAL","start_dtc":"2024-08-15","end_dtc":"2024-08-15","visit":null},{"seq":"107","trt":"TEPOTINIB","dose":"500.0","doseu":null,"dosef":"QD","route":"ORAL","start_dtc":"2024-09-21","end_dtc":"2024-09-21","visit":"C6D1"},{"seq":"108","trt":"TEPOTINIB","dose":"500.0","doseu":null,"dosef":"QD","route":"ORAL","start_dtc":"2024-09-22","end_dtc":"2024-09-22","visit":"C6D1"},{"seq":"109","trt":"TEPOTINIB","dose":"500.0","doseu":null,"dosef":"QD","route":"ORAL","start_dtc":"2024-09-23","end_dtc":"2024-09-23","visit":null},{"seq":"110","trt":"TEPOTINIB","dose":"500.0","doseu":null,"dosef":"QD","route":"ORAL","start_dtc":"2024-09-24","end_dtc":"2024-09-24","visit":null},{"seq":"111","trt":"TEPOTINIB","dose":"500.0","doseu":null,"dosef":"QD","route":"ORAL","start_dtc":"2024-09-25","end_dtc":"2024-09-25","visit":null},{"seq":"112","trt":"TEPOTINIB","dose":"500.0","doseu":null,"dosef":"QD","route":"ORAL","start_dtc":"2024-09-26","end_dtc":"2024-09-26","visit":null},{"seq":"113","trt":"TEPOTINIB","dose":"500.0","doseu":null,"dosef":"QD","route":"ORAL","start_dtc":"2024-09-27","end_dtc":"2024-09-27","visit":null},{"seq":"114","trt":"TEPOTINIB","dose":"500.0","doseu":null,"dosef":"QD","route":"ORAL","start_dtc":"2024-09-28","end_dtc":"2024-09-28","visit":null},{"seq":"115","trt":"TEPOTINIB","dose":"500.0","doseu":null,"dosef":"QD","route":"ORAL","start_dtc":"2024-09-29","end_dtc":"2024-09-29","visit":null},{"seq":"116","trt":"TEPOTINIB","dose":"500.0","doseu":null,"dosef":"QD","route":"ORAL","start_dtc":"2024-09-30","end_dtc":"2024-09-30","visit":null},{"seq":"117","trt":"TEPOTINIB","dose":"500.0","doseu":null,"dosef":"QD","route":"ORAL","start_dtc":"2024-10-01","end_dtc":"2024-10-01","visit":null},{"seq":"118","trt":"TEPOTINIB","dose":"500.0","doseu":null,"dosef":"QD","route":"ORAL","start_dtc":"2024-10-02","end_dtc":"2024-10-02","visit":null},{"seq":"119","trt":"TEPOTINIB","dose":"500.0","doseu":null,"dosef":"QD","route":"ORAL","start_dtc":"2024-10-03","end_dtc":"2024-10-03","visit":null},{"seq":"120","trt":"TEPOTINIB","dose":"500.0","doseu":null,"dosef":"QD","route":"ORAL","start_dtc":"2024-10-04","end_dtc":"2024-10-04","visit":null},{"seq":"121","trt":"TEPOTINIB","dose":"500.0","doseu":null,"dosef":"QD","route":"ORAL","start_dtc":"2024-10-05","end_dtc":"2024-10-05","visit":null},{"seq":"122","trt":"TEPOTINIB","dose":"500.0","doseu":null,"dosef":"QD","route":"ORAL","start_dtc":"2024-10-06","end_dtc":"2024-10-06","visit":null}]},"section_7_adverse_events":{"summary":{"total_aes":3,"serious_aes":1,"fatal_aes":0,"by_severity":{"MILD":1,"SEVERE":1,"MODERATE":1},"by_soc":{"General disorders and administration site conditions":2,"Infections and infestations":1}},"events":[{"seq":"1","term":"FATIGUE","decod":"Fatigue","llt":"Fatigue","hlt":"Asthenic conditions","hlgt":"General system disorders NEC","soc":"General disorders and administration site conditions","bodsys":"General disorders and administration site conditions","severity":"MILD","serious":"N","causality":"NOT RELATED","action_taken":"DOSE NOT CHANGED","outcome":"RECOVERED/RESOLVED","fatal":"N","hospitalization":"N","life_threatening":"N","onset_dtc":"2024-06-02","end_dtc":"2024-06-09","onset_dy":"32","end_dy":"39","duration":null,"epoch":"TREATMENT","visit":null,"supplemental":{}},{"seq":"2","term":"FATIGUE","decod":"Fatigue","llt":"Fatigue","hlt":"Asthenic conditions","hlgt":"General system disorders NEC","soc":"General disorders and administration site conditions","bodsys":"General disorders and administration site conditions","severity":"SEVERE","serious":"Y","causality":"POSSIBLY RELATED","action_taken":"DRUG INTERRUPTED","outcome":"RECOVERED/RESOLVED","fatal":"N","hospitalization":"Y","life_threatening":"N","onset_dtc":"2024-08-16","end_dtc":"2024-09-21","onset_dy":"107","end_dy":"143","duration":null,"epoch":"TREATMENT","visit":null,"supplemental":{}},{"seq":"3","term":"PNEUMONIA","decod":"Pneumonia","llt":"Pneumonia","hlt":"Lower respiratory and lung infections","hlgt":"Infections NEC","soc":"Infections and infestations","bodsys":"Infections and infestations","severity":"MODERATE","serious":"N","causality":"UNLIKELY RELATED","action_taken":"DOSE NOT CHANGED","outcome":"RECOVERED/RESOLVED","fatal":"N","hospitalization":"N","life_threatening":"N","onset_dtc":"2024-09-30","end_dtc":"2024-10-23","onset_dy":"152","end_dy":"175","duration":null,"epoch":"TREATMENT","visit":null,"supplemental":{}}]},"section_8_laboratory_results":{"summary":{"total_records":63,"abnormal_count":0,"abnormal_pct":0.0},"shift_summary":[{"testcd":"ALT","baseline_value":17.87,"baseline_nrind":"NORMAL","worst_post_baseline_value":19.6,"worst_post_baseline_nrind":"NORMAL","worst_visit":"C3D1"},{"testcd":"AST","baseline_value":22.14,"baseline_nrind":"NORMAL","worst_post_baseline_value":24.98,"worst_post_baseline_nrind":"NORMAL","worst_visit":"C2D1"},{"testcd":"CREAT","baseline_value":64.79,"baseline_nrind":"NORMAL","worst_post_baseline_value":73.18,"worst_post_baseline_nrind":"NORMAL","worst_visit":"FOLLOW-UP"},{"testcd":"GLUC","baseline_value":5.35,"baseline_nrind":"NORMAL","worst_post_baseline_value":5.56,"worst_post_baseline_nrind":"NORMAL","worst_visit":"C4D1"},{"testcd":"HGB","baseline_value":147.3,"baseline_nrind":"NORMAL","worst_post_baseline_value":146.54,"worst_post_baseline_nrind":"NORMAL","worst_visit":"C1D15"},{"testcd":"PLAT","baseline_value":302.55,"baseline_nrind":"NORMAL","worst_post_baseline_value":352.99,"worst_post_baseline_nrind":"NORMAL","worst_visit":"EOT"},{"testcd":"WBC","baseline_value":7.05,"baseline_nrind":"NORMAL","worst_post_baseline_value":7.92,"worst_post_baseline_nrind":"NORMAL","worst_visit":"C2D1"}],"results":[{"seq":"1","testcd":"ALT","test":"Alanine Aminotransferase","cat":"CHEMISTRY","orres":"17.87","orresu":"U/L","stresc":"17.87","stresn":"17.87","stresu":"U/L","stnrlo":"7","stnrhi":"56","nrind":"NORMAL","fast":null,"dtc":"2024-03-22","dy":"-41","visit":"SCREENING","visitnum":"1.0","epoch":"SCREENING","spec":null,"method":null},{"seq":"2","testcd":"AST","test":"Aspartate Aminotransferase","cat":"CHEMISTRY","orres":"22.14","orresu":"U/L","stresc":"22.14","stresn":"22.14","stresu":"U/L","stnrlo":"10","stnrhi":"40","nrind":"NORMAL","fast":null,"dtc":"2024-03-22","dy":"-41","visit":"SCREENING","visitnum":"1.0","epoch":"SCREENING","spec":null,"method":null},{"seq":"3","testcd":"CREAT","test":"Creatinine","cat":"CHEMISTRY","orres":"64.79","orresu":"umol/L","stresc":"64.79","stresn":"64.79","stresu":"umol/L","stnrlo":"44","stnrhi":"80","nrind":"NORMAL","fast":null,"dtc":"2024-03-22","dy":"-41","visit":"SCREENING","visitnum":"1.0","epoch":"SCREENING","spec":null,"method":null},{"seq":"4","testcd":"GLUC","test":"Glucose","cat":"CHEMISTRY","orres":"5.35","orresu":"mmol/L","stresc":"5.35","stresn":"5.35","stresu":"mmol/L","stnrlo":"3.9","stnrhi":"5.6","nrind":"NORMAL","fast":null,"dtc":"2024-03-22","dy":"-41","visit":"SCREENING","visitnum":"1.0","epoch":"SCREENING","spec":null,"method":null},{"seq":"5","testcd":"HGB","test":"Hemoglobin","cat":"HEMATOLOGY","orres":"147.3","orresu":"g/L","stresc":"147.3","stresn":"147.3","stresu":"g/L","stnrlo":"120","stnrhi":"155","nrind":"NORMAL","fast":null,"dtc":"2024-03-22","dy":"-41","visit":"SCREENING","visitnum":"1.0","epoch":"SCREENING","spec":null,"method":null},{"seq":"6","testcd":"PLAT","test":"Platelets","cat":"HEMATOLOGY","orres":"302.55","orresu":"10^9/L","stresc":"302.55","stresn":"302.55","stresu":"10^9/L","stnrlo":"150","stnrhi":"400","nrind":"NORMAL","fast":null,"dtc":"2024-03-22","dy":"-41","visit":"SCREENING","visitnum":"1.0","epoch":"SCREENING","spec":null,"method":null},{"seq":"7","testcd":"WBC","test":"Leukocytes","cat":"HEMATOLOGY","orres":"7.05","orresu":"10^9/L","stresc":"7.05","stresn":"7.05","stresu":"10^9/L","stnrlo":"4.0","stnrhi":"11.0","nrind":"NORMAL","fast":null,"dtc":"2024-03-22","dy":"-41","visit":"SCREENING","visitnum":"1.0","epoch":"SCREENING","spec":null,"method":null},{"seq":"8","testcd":"ALT","test":"Alanine Aminotransferase","cat":"CHEMISTRY","orres":"17.38","orresu":"U/L","stresc":"17.38","stresn":"17.38","stresu":"U/L","stnrlo":"7","stnrhi":"56","nrind":"NORMAL","fast":null,"dtc":"2024-05-02","dy":"1","visit":"C1D1","visitnum":"2.0","epoch":"TREATMENT","spec":null,"method":null},{"seq":"9","testcd":"AST","test":"Aspartate Aminotransferase","cat":"CHEMISTRY","orres":"23.1","orresu":"U/L","stresc":"23.1","stresn":"23.1","stresu":"U/L","stnrlo":"10","stnrhi":"40","nrind":"NORMAL","fast":null,"dtc":"2024-05-02","dy":"1","visit":"C1D1","visitnum":"2.0","epoch":"TREATMENT","spec":null,"method":null},{"seq":"10","testcd":"CREAT","test":"Creatinine","cat":"CHEMISTRY","orres":"68.0","orresu":"umol/L","stresc":"68.0","stresn":"68.0","stresu":"umol/L","stnrlo":"44","stnrhi":"80","nrind":"NORMAL","fast":null,"dtc":"2024-05-02","dy":"1","visit":"C1D1","visitnum":"2.0","epoch":"TREATMENT","spec":null,"method":null},{"seq":"11","testcd":"GLUC","test":"Glucose","cat":"CHEMISTRY","orres":"5.27","orresu":"mmol/L","stresc":"5.27","stresn":"5.27","stresu":"mmol/L","stnrlo":"3.9","stnrhi":"5.6","nrind":"NORMAL","fast":null,"dtc":"2024-05-02","dy":"1","visit":"C1D1","visitnum":"2.0","epoch":"TREATMENT","spec":null,"method":null},{"seq":"12","testcd":"HGB","test":"Hemoglobin","cat":"HEMATOLOGY","orres":"148.68","orresu":"g/L","stresc":"148.68","stresn":"148.68","stresu":"g/L","stnrlo":"120","stnrhi":"155","nrind":"NORMAL","fast":null,"dtc":"2024-05-02","dy":"1","visit":"C1D1","visitnum":"2.0","epoch":"TREATMENT","spec":null,"method":null},{"seq":"13","testcd":"PLAT","test":"Platelets","cat":"HEMATOLOGY","orres":"293.97","orresu":"10^9/L","stresc":"293.97","stresn":"293.97","stresu":"10^9/L","stnrlo":"150","stnrhi":"400","nrind":"NORMAL","fast":null,"dtc":"2024-05-02","dy":"1","visit":"C1D1","visitnum":"2.0","epoch":"TREATMENT","spec":null,"method":null},{"seq":"14","testcd":"WBC","test":"Leukocytes","cat":"HEMATOLOGY","orres":null,"orresu":null,"stresc":null,"stresn":null,"stresu":null,"stnrlo":null,"stnrhi":null,"nrind":null,"fast":null,"dtc":"2024-05-02","dy":"1","visit":"C1D1","visitnum":"2.0","epoch":"TREATMENT","spec":null,"method":null},{"seq":"15","testcd":"ALT","test":"Alanine Aminotransferase","cat":"CHEMISTRY","orres":"18.41","orresu":"U/L","stresc":"18.41","stresn":"18.41","stresu":"U/L","stnrlo":"7","stnrhi":"56","nrind":"NORMAL","fast":null,"dtc":"2024-05-14","dy":"13","visit":"C1D15","visitnum":"3.0","epoch":"TREATMENT","spec":null,"method":null},{"seq":"16","testcd":"AST","test":"Aspartate Aminotransferase","cat":"CHEMISTRY","orres":"24.38","orresu":"U/L","stresc":"24.38","stresn":"24.38","stresu":"U/L","stnrlo":"10","stnrhi":"40","nrind":"NORMAL","fast":null,"dtc":"2024-05-14","dy":"13","visit":"C1D15","visitnum":"3.0","epoch":"TREATMENT","spec":null,"method":null},{"seq":"17","testcd":"CREAT","test":"Creatinine","cat":"CHEMISTRY","orres":"68.86","orresu":"umol/L","stresc":"68.86","stresn":"68.86","stresu":"umol/L","stnrlo":"44","stnrhi":"80","nrind":"NORMAL","fast":null,"dtc":"2024-05-14","dy":"13","visit":"C1D15","visitnum":"3.0","epoch":"TREATMENT","spec":null,"method":null},{"seq":"18","testcd":"GLUC","test":"Glucose","cat":"CHEMISTRY","orres":"5.35","orresu":"mmol/L","stresc":"5.35","stresn":"5.35","stresu":"mmol/L","stnrlo":"3.9","stnrhi":"5.6","nrind":"NORMAL","fast":null,"dtc":"2024-05-14","dy":"13","visit":"C1D15","visitnum":"3.0","epoch":"TREATMENT","spec":null,"method":null},{"seq":"19","testcd":"HGB","test":"Hemoglobin","cat":"HEMATOLOGY","orres":"146.54","orresu":"g/L","stresc":"146.54","stresn":"146.54","stresu":"g/L","stnrlo":"120","stnrhi":"155","nrind":"NORMAL","fast":null,"dtc":"2024-05-14","dy":"13","visit":"C1D15","visitnum":"3.0","epoch":"TREATMENT","spec":null,"method":null},{"seq":"20","testcd":"PLAT","test":"Platelets","cat":"HEMATOLOGY","orres":"305.5","orresu":"10^9/L","stresc":"305.5","stresn":"305.5","stresu":"10^9/L","stnrlo":"150","stnrhi":"400","nrind":"NORMAL","fast":null,"dtc":"2024-05-14","dy":"13","visit":"C1D15","visitnum":"3.0","epoch":"TREATMENT","spec":null,"method":null},{"seq":"21","testcd":"WBC","test":"Leukocytes","cat":"HEMATOLOGY","orres":"7.28","orresu":"10^9/L","stresc":"7.28","stresn":"7.28","stresu":"10^9/L","stnrlo":"4.0","stnrhi":"11.0","nrind":"NORMAL","fast":null,"dtc":"2024-05-14","dy":"13","visit":"C1D15","visitnum":"3.0","epoch":"TREATMENT","spec":null,"method":null},{"seq":"22","testcd":"ALT","test":"Alanine Aminotransferase","cat":"CHEMISTRY","orres":"18.47","orresu":"U/L","stresc":"18.47","stresn":"18.47","stresu":"U/L","stnrlo":"7","stnrhi":"56","nrind":"NORMAL","fast":null,"dtc":"2024-06-01","dy":"31","visit":"C2D1","visitnum":"4.0","epoch":"TREATMENT","spec":null,"method":null},{"seq":"23","testcd":"AST","test":"Aspartate Aminotransferase","cat":"CHEMISTRY","orres":"24.98","orresu":"U/L","stresc":"24.98","stresn":"24.98","stresu":"U/L","stnrlo":"10","stnrhi":"40","nrind":"NORMAL","fast":null,"dtc":"2024-06-01","dy":"31","visit":"C2D1","visitnum":"4.0","epoch":"TREATMENT","spec":null,"method":null},{"seq":"24","testcd":"CREAT","test":"Creatinine","cat":"CHEMISTRY","orres":"70.41","orresu":"umol/L","stresc":"70.41","stresn":"70.41","stresu":"umol/L","stnrlo":"44","stnrhi":"80","nrind":"NORMAL","fast":null,"dtc":"2024-06-01","dy":"31","visit":"C2D1","visitnum":"4.0","epoch":"TREATMENT","spec":null,"method":null},{"seq":"25","testcd":"GLUC","test":"Glucose","cat":"CHEMISTRY","orres":"5.36","orresu":"mmol/L","stresc":"5.36","stresn":"5.36","stresu":"mmol/L","stnrlo":"3.9","stnrhi":"5.6","nrind":"NORMAL","fast":null,"dtc":"2024-06-01","dy":"31","visit":"C2D1","visitnum":"4.0","epoch":"TREATMENT","spec":null,"method":null},{"seq":"26","testcd":"HGB","test":"Hemoglobin","cat":"HEMATOLOGY","orres":"148.57","orresu":"g/L","stresc":"148.57","stresn":"148.57","stresu":"g/L","stnrlo":"120","stnrhi":"155","nrind":"NORMAL","fast":null,"dtc":"2024-06-01","dy":"31","visit":"C2D1","visitnum":"4.0","epoch":"TREATMENT","spec":null,"method":null},{"seq":"27","testcd":"PLAT","test":"Platelets","cat":"HEMATOLOGY","orres":"297.31","orresu":"10^9/L","stresc":"297.31","stresn":"297.31","stresu":"10^9/L","stnrlo":"150","stnrhi":"400","nrind":"NORMAL","fast":null,"dtc":"2024-06-01","dy":"31","visit":"C2D1","visitnum":"4.0","epoch":"TREATMENT","spec":null,"method":null},{"seq":"28","testcd":"WBC","test":"Leukocytes","cat":"HEMATOLOGY","orres":"7.92","orresu":"10^9/L","stresc":"7.92","stresn":"7.92","stresu":"10^9/L","stnrlo":"4.0","stnrhi":"11.0","nrind":"NORMAL","fast":null,"dtc":"2024-06-01","dy":"31","visit":"C2D1","visitnum":"4.0","epoch":"TREATMENT","spec":null,"method":null},{"seq":"29","testcd":"ALT","test":"Alanine Aminotransferase","cat":"CHEMISTRY","orres":"19.6","orresu":"U/L","stresc":"19.6","stresn":"19.6","stresu":"U/L","stnrlo":"7","stnrhi":"56","nrind":"NORMAL","fast":null,"dtc":"2024-06-28","dy":"58","visit":"C3D1","visitnum":"5.0","epoch":"TREATMENT","spec":null,"method":null},{"seq":"30","testcd":"AST","test":"Aspartate Aminotransferase","cat":"CHEMISTRY","orres":"24.34","orresu":"U/L","stresc":"24.34","stresn":"24.34","stresu":"U/L","stnrlo":"10","stnrhi":"40","nrind":"NORMAL","fast":null,"dtc":"2024-06-28","dy":"58","visit":"C3D1","visitnum":"5.0","epoch":"TREATMENT","spec":null,"method":null},{"seq":"31","testcd":"CREAT","test":"Creatinine","cat":"CHEMISTRY","orres":"69.81","orresu":"umol/L","stresc":"69.81","stresn":"69.81","stresu":"umol/L","stnrlo":"44","stnrhi":"80","nrind":"NORMAL","fast":null,"dtc":"2024-06-28","dy":"58","visit":"C3D1","visitnum":"5.0","epoch":"TREATMENT","spec":null,"method":null},{"seq":"32","testcd":"GLUC","test":"Glucose","cat":"CHEMISTRY","orres":null,"orresu":null,"stresc":null,"stresn":null,"stresu":null,"stnrlo":null,"stnrhi":null,"nrind":null,"fast":null,"dtc":"2024-06-28","dy":"58","visit":"C3D1","visitnum":"5.0","epoch":"TREATMENT","spec":null,"method":null},{"seq":"33","testcd":"HGB","test":"Hemoglobin","cat":"HEMATOLOGY","orres":"147.99","orresu":"g/L","stresc":"147.99","stresn":"147.99","stresu":"g/L","stnrlo":"120","stnrhi":"155","nrind":"NORMAL","fast":null,"dtc":"2024-06-28","dy":"58","visit":"C3D1","visitnum":"5.0","epoch":"TREATMENT","spec":null,"method":null},{"seq":"34","testcd":"PLAT","test":"Platelets","cat":"HEMATOLOGY","orres":"319.73","orresu":"10^9/L","stresc":"319.73","stresn":"319.73","stresu":"10^9/L","stnrlo":"150","stnrhi":"400","nrind":"NORMAL","fast":null,"dtc":"2024-06-28","dy":"58","visit":"C3D1","visitnum":"5.0","epoch":"TREATMENT","spec":null,"method":null},{"seq":"35","testcd":"WBC","test":"Leukocytes","cat":"HEMATOLOGY","orres":"7.06","orresu":"10^9/L","stresc":"7.06","stresn":"7.06","stresu":"10^9/L","stnrlo":"4.0","stnrhi":"11.0","nrind":"NORMAL","fast":null,"dtc":"2024-06-28","dy":"58","visit":"C3D1","visitnum":"5.0","epoch":"TREATMENT","spec":null,"method":null},{"seq":"36","testcd":"ALT","test":"Alanine Aminotransferase","cat":"CHEMISTRY","orres":"18.59","orresu":"U/L","stresc":"18.59","stresn":"18.59","stresu":"U/L","stnrlo":"7","stnrhi":"56","nrind":"NORMAL","fast":null,"dtc":"2024-07-26","dy":"86","visit":"C4D1","visitnum":"6.0","epoch":"TREATMENT","spec":null,"method":null},{"seq":"37","testcd":"AST","test":"Aspartate Aminotransferase","cat":"CHEMISTRY","orres":"24.98","orresu":"U/L","stresc":"24.98","stresn":"24.98","stresu":"U/L","stnrlo":"10","stnrhi":"40","nrind":"NORMAL","fast":null,"dtc":"2024-07-26","dy":"86","visit":"C4D1","visitnum":"6.0","epoch":"TREATMENT","spec":null,"method":null},{"seq":"38","testcd":"CREAT","test":"Creatinine","cat":"CHEMISTRY","orres":"70.25","orresu":"umol/L","stresc":"70.25","stresn":"70.25","stresu":"umol/L","stnrlo":"44","stnrhi":"80","nrind":"NORMAL","fast":null,"dtc":"2024-07-26","dy":"86","visit":"C4D1","visitnum":"6.0","epoch":"TREATMENT","spec":null,"method":null},{"seq":"39","testcd":"GLUC","test":"Glucose","cat":"CHEMISTRY","orres":"5.56","orresu":"mmol/L","stresc":"5.56","stresn":"5.56","stresu":"mmol/L","stnrlo":"3.9","stnrhi":"5.6","nrind":"NORMAL","fast":null,"dtc":"2024-07-26","dy":"86","visit":"C4D1","visitnum":"6.0","epoch":"TREATMENT","spec":null,"method":null},{"seq":"40","testcd":"HGB","test":"Hemoglobin","cat":"HEMATOLOGY","orres":"148.16","orresu":"g/L","stresc":"148.16","stresn":"148.16","stresu":"g/L","stnrlo":"120","stnrhi":"155","nrind":"NORMAL","fast":null,"dtc":"2024-07-26","dy":"86","visit":"C4D1","visitnum":"6.0","epoch":"TREATMENT","spec":null,"method":null},{"seq":"41","testcd":"PLAT","test":"Platelets","cat":"HEMATOLOGY","orres":"338.67","orresu":"10^9/L","stresc":"338.67","stresn":"338.67","stresu":"10^9/L","stnrlo":"150","stnrhi":"400","nrind":"NORMAL","fast":null,"dtc":"2024-07-26","dy":"86","visit":"C4D1","visitnum":"6.0","epoch":"TREATMENT","spec":null,"method":null},{"seq":"42","testcd":"WBC","test":"Leukocytes","cat":"HEMATOLOGY","orres":"7.12","orresu":"10^9/L","stresc":"7.12","stresn":"7.12","stresu":"10^9/L","stnrlo":"4.0","stnrhi":"11.0","nrind":"NORMAL","fast":null,"dtc":"2024-07-26","dy":"86","visit":"C4D1","visitnum":"6.0","epoch":"TREATMENT","spec":null,"method":null},{"seq":"43","testcd":"ALT","test":"Alanine Aminotransferase","cat":"CHEMISTRY","orres":"16.01","orresu":"U/L","stresc":"16.01","stresn":"16.01","stresu":"U/L","stnrlo":"7","stnrhi":"56","nrind":"NORMAL","fast":null,"dtc":"2024-09-19","dy":"141","visit":"C6D1","visitnum":"7.0","epoch":"TREATMENT","spec":null,"method":null},{"seq":"44","testcd":"AST","test":"Aspartate Aminotransferase","cat":"CHEMISTRY","orres":"21.75","orresu":"U/L","stresc":"21.75","stresn":"21.75","stresu":"U/L","stnrlo":"10","stnrhi":"40","nrind":"NORMAL","fast":null,"dtc":"2024-09-19","dy":"141","visit":"C6D1","visitnum":"7.0","epoch":"TREATMENT","spec":null,"method":null},{"seq":"45","testcd":"CREAT","test":"Creatinine","cat":"CHEMISTRY","orres":"68.83","orresu":"umol/L","stresc":"68.83","stresn":"68.83","stresu":"umol/L","stnrlo":"44","stnrhi":"80","nrind":"NORMAL","fast":null,"dtc":"2024-09-19","dy":"141","visit":"C6D1","visitnum":"7.0","epoch":"TREATMENT","spec":null,"method":null},{"seq":"46","testcd":"GLUC","test":"Glucose","cat":"CHEMISTRY","orres":"5.45","orresu":"mmol/L","stresc":"5.45","stresn":"5.45","stresu":"mmol/L","stnrlo":"3.9","stnrhi":"5.6","nrind":"NORMAL","fast":null,"dtc":"2024-09-19","dy":"141","visit":"C6D1","visitnum":"7.0","epoch":"TREATMENT","spec":null,"method":null},{"seq":"47","testcd":"HGB","test":"Hemoglobin","cat":"HEMATOLOGY","orres":"146.98","orresu":"g/L","stresc":"146.98","stresn":"146.98","stresu":"g/L","stnrlo":"120","stnrhi":"155","nrind":"NORMAL","fast":null,"dtc":"2024-09-19","dy":"141","visit":"C6D1","visitnum":"7.0","epoch":"TREATMENT","spec":null,"method":null},{"seq":"48","testcd":"PLAT","test":"Platelets","cat":"HEMATOLOGY","orres":"343.63","orresu":"10^9/L","stresc":"343.63","stresn":"343.63","stresu":"10^9/L","stnrlo":"150","stnrhi":"400","nrind":"NORMAL","fast":null,"dtc":"2024-09-19","dy":"141","visit":"C6D1","visitnum":"7.0","epoch":"TREATMENT","spec":null,"method":null},{"seq":"49","testcd":"WBC","test":"Leukocytes","cat":"HEMATOLOGY","orres":"6.31","orresu":"10^9/L","stresc":"6.31","stresn":"6.31","stresu":"10^9/L","stnrlo":"4.0","stnrhi":"11.0","nrind":"NORMAL","fast":null,"dtc":"2024-09-19","dy":"141","visit":"C6D1","visitnum":"7.0","epoch":"TREATMENT","spec":null,"method":null},{"seq":"50","testcd":"ALT","test":"Alanine Aminotransferase","cat":"CHEMISTRY","orres":"16.31","orresu":"U/L","stresc":"16.31","stresn":"16.31","stresu":"U/L","stnrlo":"7","stnrhi":"56","nrind":"NORMAL","fast":null,"dtc":"2024-10-19","dy":"171","visit":"EOT","visitnum":"8.0","epoch":"TREATMENT","spec":null,"method":null},{"seq":"51","testcd":"AST","test":"Aspartate Aminotransferase","cat":"CHEMISTRY","orres":null,"orresu":null,"stresc":null,"stresn":null,"stresu":null,"stnrlo":null,"stnrhi":null,"nrind":null,"fast":null,"dtc":"2024-10-19","dy":"171","visit":"EOT","visitnum":"8.0","epoch":"TREATMENT","spec":null,"method":null},{"seq":"52","testcd":"CREAT","test":"Creatinine","cat":"CHEMISTRY","orres":"70.29","orresu":"umol/L","stresc":"70.29","stresn":"70.29","stresu":"umol/L","stnrlo":"44","stnrhi":"80","nrind":"NORMAL","fast":null,"dtc":"2024-10-19","dy":"171","visit":"EOT","visitnum":"8.0","epoch":"TREATMENT","spec":null,"method":null},{"seq":"53","testcd":"GLUC","test":"Glucose","cat":"CHEMISTRY","orres":"5.31","orresu":"mmol/L","stresc":"5.31","stresn":"5.31","stresu":"mmol/L","stnrlo":"3.9","stnrhi":"5.6","nrind":"NORMAL","fast":null,"dtc":"2024-10-19","dy":"171","visit":"EOT","visitnum":"8.0","epoch":"TREATMENT","spec":null,"method":null},{"seq":"54","testcd":"HGB","test":"Hemoglobin","cat":"HEMATOLOGY","orres":"148.12","orresu":"g/L","stresc":"148.12","stresn":"148.12","stresu":"g/L","stnrlo":"120","stnrhi":"155","nrind":"NORMAL","fast":null,"dtc":"2024-10-19","dy":"171","visit":"EOT","visitnum":"8.0","epoch":"TREATMENT","spec":null,"method":null},{"seq":"55","testcd":"PLAT","test":"Platelets","cat":"HEMATOLOGY","orres":"352.99","orresu":"10^9/L","stresc":"352.99","stresn":"352.99","stresu":"10^9/L","stnrlo":"150","stnrhi":"400","nrind":"NORMAL","fast":null,"dtc":"2024-10-19","dy":"171","visit":"EOT","visitnum":"8.0","epoch":"TREATMENT","spec":null,"method":null},{"seq":"56","testcd":"WBC","test":"Leukocytes","cat":"HEMATOLOGY","orres":"6.35","orresu":"10^9/L","stresc":"6.35","stresn":"6.35","stresu":"10^9/L","stnrlo":"4.0","stnrhi":"11.0","nrind":"NORMAL","fast":null,"dtc":"2024-10-19","dy":"171","visit":"EOT","visitnum":"8.0","epoch":"TREATMENT","spec":null,"method":null},{"seq":"57","testcd":"ALT","test":"Alanine Aminotransferase","cat":"CHEMISTRY","orres":"15.32","orresu":"U/L","stresc":"15.32","stresn":"15.32","stresu":"U/L","stnrlo":"7","stnrhi":"56","nrind":"NORMAL","fast":null,"dtc":"2024-11-09","dy":"192","visit":"FOLLOW-UP","visitnum":"9.0","epoch":"FOLLOW-UP","spec":null,"method":null},{"seq":"58","testcd":"AST","test":"Aspartate Aminotransferase","cat":"CHEMISTRY","orres":null,"orresu":null,"stresc":null,"stresn":null,"stresu":null,"stnrlo":null,"stnrhi":null,"nrind":null,"fast":null,"dtc":"2024-11-09","dy":"192","visit":"FOLLOW-UP","visitnum":"9.0","epoch":"FOLLOW-UP","spec":null,"method":null},{"seq":"59","testcd":"CREAT","test":"Creatinine","cat":"CHEMISTRY","orres":"73.18","orresu":"umol/L","stresc":"73.18","stresn":"73.18","stresu":"umol/L","stnrlo":"44","stnrhi":"80","nrind":"NORMAL","fast":null,"dtc":"2024-11-09","dy":"192","visit":"FOLLOW-UP","visitnum":"9.0","epoch":"FOLLOW-UP","spec":null,"method":null},{"seq":"60","testcd":"GLUC","test":"Glucose","cat":"CHEMISTRY","orres":"5.3","orresu":"mmol/L","stresc":"5.3","stresn":"5.3","stresu":"mmol/L","stnrlo":"3.9","stnrhi":"5.6","nrind":"NORMAL","fast":null,"dtc":"2024-11-09","dy":"192","visit":"FOLLOW-UP","visitnum":"9.0","epoch":"FOLLOW-UP","spec":null,"method":null},{"seq":"61","testcd":"HGB","test":"Hemoglobin","cat":"HEMATOLOGY","orres":"148.87","orresu":"g/L","stresc":"148.87","stresn":"148.87","stresu":"g/L","stnrlo":"120","stnrhi":"155","nrind":"NORMAL","fast":null,"dtc":"2024-11-09","dy":"192","visit":"FOLLOW-UP","visitnum":"9.0","epoch":"FOLLOW-UP","spec":null,"method":null},{"seq":"62","testcd":"PLAT","test":"Platelets","cat":"HEMATOLOGY","orres":"342.73","orresu":"10^9/L","stresc":"342.73","stresn":"342.73","stresu":"10^9/L","stnrlo":"150","stnrhi":"400","nrind":"NORMAL","fast":null,"dtc":"2024-11-09","dy":"192","visit":"FOLLOW-UP","visitnum":"9.0","epoch":"FOLLOW-UP","spec":null,"method":null},{"seq":"63","testcd":"WBC","test":"Leukocytes","cat":"HEMATOLOGY","orres":"7.71","orresu":"10^9/L","stresc":"7.71","stresn":"7.71","stresu":"10^9/L","stnrlo":"4.0","stnrhi":"11.0","nrind":"NORMAL","fast":null,"dtc":"2024-11-09","dy":"192","visit":"FOLLOW-UP","visitnum":"9.0","epoch":"FOLLOW-UP","spec":null,"method":null}]},"section_9_vital_signs":{"summary":{"total_records":71},"trends":{"BMI":[{"visit":"SCREENING","visitnum":"1.0","dtc":"2024-03-22","value":"25.7","unit":"kg/m2"},{"visit":"C1D1","visitnum":"2.0","dtc":"2024-05-02","value":"25.6","unit":"kg/m2"},{"visit":"C1D15","visitnum":"3.0","dtc":"2024-05-14","value":"24.0","unit":"kg/m2"},{"visit":"C2D1","visitnum":"4.0","dtc":"2024-06-01","value":"25.0","unit":"kg/m2"},{"visit":"C3D1","visitnum":"5.0","dtc":"2024-06-28","value":"25.3","unit":"kg/m2"},{"visit":"C4D1","visitnum":"6.0","dtc":"2024-07-26","value":"26.1","unit":"kg/m2"},{"visit":"EOT","visitnum":"8.0","dtc":"2024-10-19","value":"26.3","unit":"kg/m2"},{"visit":"FOLLOW-UP","visitnum":"9.0","dtc":"2024-11-09","value":"26.1","unit":"kg/m2"}],"DIABP":[{"visit":"SCREENING","visitnum":"1.0","dtc":"2024-03-22","value":"56.8","unit":"mmHg"},{"visit":"C1D1","visitnum":"2.0","dtc":"2024-05-02","value":"54.8","unit":"mmHg"},{"visit":"C1D15","visitnum":"3.0","dtc":"2024-05-14","value":"54.8","unit":"mmHg"},{"visit":"C2D1","visitnum":"4.0","dtc":"2024-06-01","value":"57.1","unit":"mmHg"},{"visit":"C3D1","visitnum":"5.0","dtc":"2024-06-28","value":"56.8","unit":"mmHg"},{"visit":"C4D1","visitnum":"6.0","dtc":"2024-07-26","value":"57.3","unit":"mmHg"},{"visit":"C6D1","visitnum":"7.0","dtc":"2024-09-19","value":"58.3","unit":"mmHg"},{"visit":"EOT","visitnum":"8.0","dtc":"2024-10-19","value":"58.8","unit":"mmHg"},{"visit":"FOLLOW-UP","visitnum":"9.0","dtc":"2024-11-09","value":"56.2","unit":"mmHg"}],"HEIGHT":[{"visit":"SCREENING","visitnum":"1.0","dtc":"2024-03-22","value":"147.2","unit":"cm"},{"visit":"C1D1","visitnum":"2.0","dtc":"2024-05-02","value":"146.5","unit":"cm"},{"visit":"C1D15","visitnum":"3.0","dtc":"2024-05-14","value":"147.2","unit":"cm"},{"visit":"C2D1","visitnum":"4.0","dtc":"2024-06-01","value":"147.2","unit":"cm"},{"visit":"C3D1","visitnum":"5.0","dtc":"2024-06-28","value":"147.3","unit":"cm"},{"visit":"C4D1","visitnum":"6.0","dtc":"2024-07-26","value":"147.2","unit":"cm"},{"visit":"C6D1","visitnum":"7.0","dtc":"2024-09-19","value":"146.5","unit":"cm"},{"visit":"EOT","visitnum":"8.0","dtc":"2024-10-19","value":"146.0","unit":"cm"},{"visit":"FOLLOW-UP","visitnum":"9.0","dtc":"2024-11-09","value":"146.6","unit":"cm"}],"PULSE":[{"visit":"SCREENING","visitnum":"1.0","dtc":"2024-03-22","value":"87.5","unit":"beats/min"},{"visit":"C1D1","visitnum":"2.0","dtc":"2024-05-02","value":"85.6","unit":"beats/min"},{"visit":"C1D15","visitnum":"3.0","dtc":"2024-05-14","value":"85.7","unit":"beats/min"},{"visit":"C2D1","visitnum":"4.0","dtc":"2024-06-01","value":"84.0","unit":"beats/min"},{"visit":"C3D1","visitnum":"5.0","dtc":"2024-06-28","value":"79.7","unit":"beats/min"},{"visit":"C4D1","visitnum":"6.0","dtc":"2024-07-26","value":"80.6","unit":"beats/min"},{"visit":"C6D1","visitnum":"7.0","dtc":"2024-09-19","value":"81.9","unit":"beats/min"},{"visit":"EOT","visitnum":"8.0","dtc":"2024-10-19","value":"78.9","unit":"beats/min"},{"visit":"FOLLOW-UP","visitnum":"9.0","dtc":"2024-11-09","value":"78.4","unit":"beats/min"}],"RESP":[{"visit":"SCREENING","visitnum":"1.0","dtc":"2024-03-22","value":"18.1","unit":"breaths/min"},{"visit":"C1D1","visitnum":"2.0","dtc":"2024-05-02","value":"17.4","unit":"breaths/min"},{"visit":"C1D15","visitnum":"3.0","dtc":"2024-05-14","value":"17.2","unit":"breaths/min"},{"visit":"C2D1","visitnum":"4.0","dtc":"2024-06-01","value":"17.4","unit":"breaths/min"},{"visit":"C3D1","visitnum":"5.0","dtc":"2024-06-28","value":"16.6","unit":"breaths/min"},{"visit":"C4D1","visitnum":"6.0","dtc":"2024-07-26","value":"18.6","unit":"breaths/min"},{"visit":"C6D1","visitnum":"7.0","dtc":"2024-09-19","value":"18.7","unit":"breaths/min"},{"visit":"EOT","visitnum":"8.0","dtc":"2024-10-19","value":"19.0","unit":"breaths/min"},{"visit":"FOLLOW-UP","visitnum":"9.0","dtc":"2024-11-09","value":"19.0","unit":"breaths/min"}],"SYSBP":[{"visit":"SCREENING","visitnum":"1.0","dtc":"2024-03-22","value":"105.1","unit":"mmHg"},{"visit":"C1D1","visitnum":"2.0","dtc":"2024-05-02","value":"105.2","unit":"mmHg"},{"visit":"C2D1","visitnum":"4.0","dtc":"2024-06-01","value":"108.3","unit":"mmHg"},{"visit":"C3D1","visitnum":"5.0","dtc":"2024-06-28","value":"107.4","unit":"mmHg"},{"visit":"C6D1","visitnum":"7.0","dtc":"2024-09-19","value":"105.7","unit":"mmHg"},{"visit":"EOT","visitnum":"8.0","dtc":"2024-10-19","value":"107.1","unit":"mmHg"},{"visit":"FOLLOW-UP","visitnum":"9.0","dtc":"2024-11-09","value":"107.2","unit":"mmHg"}],"TEMP":[{"visit":"SCREENING","visitnum":"1.0","dtc":"2024-03-22","value":"36.1","unit":"C"},{"visit":"C1D1","visitnum":"2.0","dtc":"2024-05-02","value":"36.1","unit":"C"},{"visit":"C1D15","visitnum":"3.0","dtc":"2024-05-14","value":"36.3","unit":"C"},{"visit":"C2D1","visitnum":"4.0","dtc":"2024-06-01","value":"36.3","unit":"C"},{"visit":"C3D1","visitnum":"5.0","dtc":"2024-06-28","value":"36.3","unit":"C"},{"visit":"C4D1","visitnum":"6.0","dtc":"2024-07-26","value":"36.0","unit":"C"},{"visit":"C6D1","visitnum":"7.0","dtc":"2024-09-19","value":"36.2","unit":"C"},{"visit":"EOT","visitnum":"8.0","dtc":"2024-10-19","value":"36.2","unit":"C"},{"visit":"FOLLOW-UP","visitnum":"9.0","dtc":"2024-11-09","value":"36.2","unit":"C"}],"WEIGHT":[{"visit":"SCREENING","visitnum":"1.0","dtc":"2024-03-22","value":"55.6","unit":"kg"},{"visit":"C1D1","visitnum":"2.0","dtc":"2024-05-02","value":"55.0","unit":"kg"},{"visit":"C1D15","visitnum":"3.0","dtc":"2024-05-14","value":"52.1","unit":"kg"},{"visit":"C2D1","visitnum":"4.0","dtc":"2024-06-01","value":"54.1","unit":"kg"},{"visit":"C3D1","visitnum":"5.0","dtc":"2024-06-28","value":"55.0","unit":"kg"},{"visit":"C4D1","visitnum":"6.0","dtc":"2024-07-26","value":"56.6","unit":"kg"},{"visit":"EOT","visitnum":"8.0","dtc":"2024-10-19","value":"56.1","unit":"kg"},{"visit":"FOLLOW-UP","visitnum":"9.0","dtc":"2024-11-09","value":"56.0","unit":"kg"}]},"results":[{"seq":"1","testcd":"BMI","test":"BMI","cat":null,"orres":"25.7","orresu":"kg/m2","stresc":"25.7","stresn":"25.7","stresu":"kg/m2","stnrlo":null,"stnrhi":null,"nrind":null,"pos":null,"loc":null,"dtc":"2024-03-22","dy":"-41","visit":"SCREENING","visitnum":"1.0","epoch":"SCREENING"},{"seq":"2","testcd":"DIABP","test":"Diastolic Blood Pressure","cat":null,"orres":"56.8","orresu":"mmHg","stresc":"56.8","stresn":"56.8","stresu":"mmHg","stnrlo":null,"stnrhi":null,"nrind":null,"pos":null,"loc":null,"dtc":"2024-03-22","dy":"-41","visit":"SCREENING","visitnum":"1.0","epoch":"SCREENING"},{"seq":"3","testcd":"HEIGHT","test":"Height","cat":null,"orres":"147.2","orresu":"cm","stresc":"147.2","stresn":"147.2","stresu":"cm","stnrlo":null,"stnrhi":null,"nrind":null,"pos":null,"loc":null,"dtc":"2024-03-22","dy":"-41","visit":"SCREENING","visitnum":"1.0","epoch":"SCREENING"},{"seq":"4","testcd":"PULSE","test":"Pulse Rate","cat":null,"orres":"87.5","orresu":"beats/min","stresc":"87.5","stresn":"87.5","stresu":"beats/min","stnrlo":null,"stnrhi":null,"nrind":null,"pos":null,"loc":null,"dtc":"2024-03-22","dy":"-41","visit":"SCREENING","visitnum":"1.0","epoch":"SCREENING"},{"seq":"5","testcd":"RESP","test":"Respiratory Rate","cat":null,"orres":"18.1","orresu":"breaths/min","stresc":"18.1","stresn":"18.1","stresu":"breaths/min","stnrlo":null,"stnrhi":null,"nrind":null,"pos":null,"loc":null,"dtc":"2024-03-22","dy":"-41","visit":"SCREENING","visitnum":"1.0","epoch":"SCREENING"},{"seq":"6","testcd":"SYSBP","test":"Systolic Blood Pressure","cat":null,"orres":"105.1","orresu":"mmHg","stresc":"105.1","stresn":"105.1","stresu":"mmHg","stnrlo":null,"stnrhi":null,"nrind":null,"pos":null,"loc":null,"dtc":"2024-03-22","dy":"-41","visit":"SCREENING","visitnum":"1.0","epoch":"SCREENING"},{"seq":"7","testcd":"TEMP","test":"Temperature","cat":null,"orres":"36.1","orresu":"C","stresc":"36.1","stresn":"36.1","stresu":"C","stnrlo":null,"stnrhi":null,"nrind":null,"pos":null,"loc":null,"dtc":"2024-03-22","dy":"-41","visit":"SCREENING","visitnum":"1.0","epoch":"SCREENING"},{"seq":"8","testcd":"WEIGHT","test":"Weight","cat":null,"orres":"55.6","orresu":"kg","stresc":"55.6","stresn":"55.6","stresu":"kg","stnrlo":null,"stnrhi":null,"nrind":null,"pos":null,"loc":null,"dtc":"2024-03-22","dy":"-41","visit":"SCREENING","visitnum":"1.0","epoch":"SCREENING"},{"seq":"9","testcd":"BMI","test":"BMI","cat":null,"orres":"25.6","orresu":"kg/m2","stresc":"25.6","stresn":"25.6","stresu":"kg/m2","stnrlo":null,"stnrhi":null,"nrind":null,"pos":null,"loc":null,"dtc":"2024-05-02","dy":"1","visit":"C1D1","visitnum":"2.0","epoch":"TREATMENT"},{"seq":"10","testcd":"DIABP","test":"Diastolic Blood Pressure","cat":null,"orres":"54.8","orresu":"mmHg","stresc":"54.8","stresn":"54.8","stresu":"mmHg","stnrlo":null,"stnrhi":null,"nrind":null,"pos":null,"loc":null,"dtc":"2024-05-02","dy":"1","visit":"C1D1","visitnum":"2.0","epoch":"TREATMENT"},{"seq":"11","testcd":"HEIGHT","test":"Height","cat":null,"orres":"146.5","orresu":"cm","stresc":"146.5","stresn":"146.5","stresu":"cm","stnrlo":null,"stnrhi":null,"nrind":null,"pos":null,"loc":null,"dtc":"2024-05-02","dy":"1","visit":"C1D1","visitnum":"2.0","epoch":"TREATMENT"},{"seq":"12","testcd":"PULSE","test":"Pulse Rate","cat":null,"orres":"85.6","orresu":"beats/min","stresc":"85.6","stresn":"85.6","stresu":"beats/min","stnrlo":null,"stnrhi":null,"nrind":null,"pos":null,"loc":null,"dtc":"2024-05-02","dy":"1","visit":"C1D1","visitnum":"2.0","epoch":"TREATMENT"},{"seq":"13","testcd":"RESP","test":"Respiratory Rate","cat":null,"orres":"17.4","orresu":"breaths/min","stresc":"17.4","stresn":"17.4","stresu":"breaths/min","stnrlo":null,"stnrhi":null,"nrind":null,"pos":null,"loc":null,"dtc":"2024-05-02","dy":"1","visit":"C1D1","visitnum":"2.0","epoch":"TREATMENT"},{"seq":"14","testcd":"SYSBP","test":"Systolic Blood Pressure","cat":null,"orres":"105.2","orresu":"mmHg","stresc":"105.2","stresn":"105.2","stresu":"mmHg","stnrlo":null,"stnrhi":null,"nrind":null,"pos":null,"loc":null,"dtc":"2024-05-02","dy":"1","visit":"C1D1","visitnum":"2.0","epoch":"TREATMENT"},{"seq":"15","testcd":"TEMP","test":"Temperature","cat":null,"orres":"36.1","orresu":"C","stresc":"36.1","stresn":"36.1","stresu":"C","stnrlo":null,"stnrhi":null,"nrind":null,"pos":null,"loc":null,"dtc":"2024-05-02","dy":"1","visit":"C1D1","visitnum":"2.0","epoch":"TREATMENT"},{"seq":"16","testcd":"WEIGHT","test":"Weight","cat":null,"orres":"55.0","orresu":"kg","stresc":"55.0","stresn":"55.0","stresu":"kg","stnrlo":null,"stnrhi":null,"nrind":null,"pos":null,"loc":null,"dtc":"2024-05-02","dy":"1","visit":"C1D1","visitnum":"2.0","epoch":"TREATMENT"},{"seq":"17","testcd":"BMI","test":"BMI","cat":null,"orres":"24.0","orresu":"kg/m2","stresc":"24.0","stresn":"24.0","stresu":"kg/m2","stnrlo":null,"stnrhi":null,"nrind":null,"pos":null,"loc":null,"dtc":"2024-05-14","dy":"13","visit":"C1D15","visitnum":"3.0","epoch":"TREATMENT"},{"seq":"18","testcd":"DIABP","test":"Diastolic Blood Pressure","cat":null,"orres":"54.8","orresu":"mmHg","stresc":"54.8","stresn":"54.8","stresu":"mmHg","stnrlo":null,"stnrhi":null,"nrind":null,"pos":null,"loc":null,"dtc":"2024-05-14","dy":"13","visit":"C1D15","visitnum":"3.0","epoch":"TREATMENT"},{"seq":"19","testcd":"HEIGHT","test":"Height","cat":null,"orres":"147.2","orresu":"cm","stresc":"147.2","stresn":"147.2","stresu":"cm","stnrlo":null,"stnrhi":null,"nrind":null,"pos":null,"loc":null,"dtc":"2024-05-14","dy":"13","visit":"C1D15","visitnum":"3.0","epoch":"TREATMENT"},{"seq":"20","testcd":"PULSE","test":"Pulse Rate","cat":null,"orres":"85.7","orresu":"beats/min","stresc":"85.7","stresn":"85.7","stresu":"beats/min","stnrlo":null,"stnrhi":null,"nrind":null,"pos":null,"loc":null,"dtc":"2024-05-14","dy":"13","visit":"C1D15","visitnum":"3.0","epoch":"TREATMENT"},{"seq":"21","testcd":"RESP","test":"Respiratory Rate","cat":null,"orres":"17.2","orresu":"breaths/min","stresc":"17.2","stresn":"17.2","stresu":"breaths/min","stnrlo":null,"stnrhi":null,"nrind":null,"pos":null,"loc":null,"dtc":"2024-05-14","dy":"13","visit":"C1D15","visitnum":"3.0","epoch":"TREATMENT"},{"seq":"22","testcd":"SYSBP","test":"Systolic Blood Pressure","cat":null,"orres":null,"orresu":null,"stresc":null,"stresn":null,"stresu":null,"stnrlo":null,"stnrhi":null,"nrind":null,"pos":null,"loc":null,"dtc":"2024-05-14","dy":"13","visit":"C1D15","visitnum":"3.0","epoch":"TREATMENT"},{"seq":"23","testcd":"TEMP","test":"Temperature","cat":null,"orres":"36.3","orresu":"C","stresc":"36.3","stresn":"36.3","stresu":"C","stnrlo":null,"stnrhi":null,"nrind":null,"pos":null,"loc":null,"dtc":"2024-05-14","dy":"13","visit":"C1D15","visitnum":"3.0","epoch":"TREATMENT"},{"seq":"24","testcd":"WEIGHT","test":"Weight","cat":null,"orres":"52.1","orresu":"kg","stresc":"52.1","stresn":"52.1","stresu":"kg","stnrlo":null,"stnrhi":null,"nrind":null,"pos":null,"loc":null,"dtc":"2024-05-14","dy":"13","visit":"C1D15","visitnum":"3.0","epoch":"TREATMENT"},{"seq":"25","testcd":"BMI","test":"BMI","cat":null,"orres":"25.0","orresu":"kg/m2","stresc":"25.0","stresn":"25.0","stresu":"kg/m2","stnrlo":null,"stnrhi":null,"nrind":null,"pos":null,"loc":null,"dtc":"2024-06-01","dy":"31","visit":"C2D1","visitnum":"4.0","epoch":"TREATMENT"},{"seq":"26","testcd":"DIABP","test":"Diastolic Blood Pressure","cat":null,"orres":"57.1","orresu":"mmHg","stresc":"57.1","stresn":"57.1","stresu":"mmHg","stnrlo":null,"stnrhi":null,"nrind":null,"pos":null,"loc":null,"dtc":"2024-06-01","dy":"31","visit":"C2D1","visitnum":"4.0","epoch":"TREATMENT"},{"seq":"27","testcd":"HEIGHT","test":"Height","cat":null,"orres":"147.2","orresu":"cm","stresc":"147.2","stresn":"147.2","stresu":"cm","stnrlo":null,"stnrhi":null,"nrind":null,"pos":null,"loc":null,"dtc":"2024-06-01","dy":"31","visit":"C2D1","visitnum":"4.0","epoch":"TREATMENT"},{"seq":"28","testcd":"PULSE","test":"Pulse Rate","cat":null,"orres":"84.0","orresu":"beats/min","stresc":"84.0","stresn":"84.0","stresu":"beats/min","stnrlo":null,"stnrhi":null,"nrind":null,"pos":null,"loc":null,"dtc":"2024-06-01","dy":"31","visit":"C2D1","visitnum":"4.0","epoch":"TREATMENT"},{"seq":"29","testcd":"RESP","test":"Respiratory Rate","cat":null,"orres":"17.4","orresu":"breaths/min","stresc":"17.4","stresn":"17.4","stresu":"breaths/min","stnrlo":null,"stnrhi":null,"nrind":null,"pos":null,"loc":null,"dtc":"2024-06-01","dy":"31","visit":"C2D1","visitnum":"4.0","epoch":"TREATMENT"},{"seq":"30","testcd":"SYSBP","test":"Systolic Blood Pressure","cat":null,"orres":"108.3","orresu":"mmHg","stresc":"108.3","stresn":"108.3","stresu":"mmHg","stnrlo":null,"stnrhi":null,"nrind":null,"pos":null,"loc":null,"dtc":"2024-06-01","dy":"31","visit":"C2D1","visitnum":"4.0","epoch":"TREATMENT"},{"seq":"31","testcd":"TEMP","test":"Temperature","cat":null,"orres":"36.3","orresu":"C","stresc":"36.3","stresn":"36.3","stresu":"C","stnrlo":null,"stnrhi":null,"nrind":null,"pos":null,"loc":null,"dtc":"2024-06-01","dy":"31","visit":"C2D1","visitnum":"4.0","epoch":"TREATMENT"},{"seq":"32","testcd":"WEIGHT","test":"Weight","cat":null,"orres":"54.1","orresu":"kg","stresc":"54.1","stresn":"54.1","stresu":"kg","stnrlo":null,"stnrhi":null,"nrind":null,"pos":null,"loc":null,"dtc":"2024-06-01","dy":"31","visit":"C2D1","visitnum":"4.0","epoch":"TREATMENT"},{"seq":"33","testcd":"BMI","test":"BMI","cat":null,"orres":"25.3","orresu":"kg/m2","stresc":"25.3","stresn":"25.3","stresu":"kg/m2","stnrlo":null,"stnrhi":null,"nrind":null,"pos":null,"loc":null,"dtc":"2024-06-28","dy":"58","visit":"C3D1","visitnum":"5.0","epoch":"TREATMENT"},{"seq":"34","testcd":"DIABP","test":"Diastolic Blood Pressure","cat":null,"orres":"56.8","orresu":"mmHg","stresc":"56.8","stresn":"56.8","stresu":"mmHg","stnrlo":null,"stnrhi":null,"nrind":null,"pos":null,"loc":null,"dtc":"2024-06-28","dy":"58","visit":"C3D1","visitnum":"5.0","epoch":"TREATMENT"},{"seq":"35","testcd":"HEIGHT","test":"Height","cat":null,"orres":"147.3","orresu":"cm","stresc":"147.3","stresn":"147.3","stresu":"cm","stnrlo":null,"stnrhi":null,"nrind":null,"pos":null,"loc":null,"dtc":"2024-06-28","dy":"58","visit":"C3D1","visitnum":"5.0","epoch":"TREATMENT"},{"seq":"36","testcd":"PULSE","test":"Pulse Rate","cat":null,"orres":"79.7","orresu":"beats/min","stresc":"79.7","stresn":"79.7","stresu":"beats/min","stnrlo":null,"stnrhi":null,"nrind":null,"pos":null,"loc":null,"dtc":"2024-06-28","dy":"58","visit":"C3D1","visitnum":"5.0","epoch":"TREATMENT"},{"seq":"37","testcd":"RESP","test":"Respiratory Rate","cat":null,"orres":"16.6","orresu":"breaths/min","stresc":"16.6","stresn":"16.6","stresu":"breaths/min","stnrlo":null,"stnrhi":null,"nrind":null,"pos":null,"loc":null,"dtc":"2024-06-28","dy":"58","visit":"C3D1","visitnum":"5.0","epoch":"TREATMENT"},{"seq":"38","testcd":"SYSBP","test":"Systolic Blood Pressure","cat":null,"orres":"107.4","orresu":"mmHg","stresc":"107.4","stresn":"107.4","stresu":"mmHg","stnrlo":null,"stnrhi":null,"nrind":null,"pos":null,"loc":null,"dtc":"2024-06-28","dy":"58","visit":"C3D1","visitnum":"5.0","epoch":"TREATMENT"},{"seq":"39","testcd":"TEMP","test":"Temperature","cat":null,"orres":"36.3","orresu":"C","stresc":"36.3","stresn":"36.3","stresu":"C","stnrlo":null,"stnrhi":null,"nrind":null,"pos":null,"loc":null,"dtc":"2024-06-28","dy":"58","visit":"C3D1","visitnum":"5.0","epoch":"TREATMENT"},{"seq":"40","testcd":"WEIGHT","test":"Weight","cat":null,"orres":"55.0","orresu":"kg","stresc":"55.0","stresn":"55.0","stresu":"kg","stnrlo":null,"stnrhi":null,"nrind":null,"pos":null,"loc":null,"dtc":"2024-06-28","dy":"58","visit":"C3D1","visitnum":"5.0","epoch":"TREATMENT"},{"seq":"41","testcd":"BMI","test":"BMI","cat":null,"orres":"26.1","orresu":"kg/m2","stresc":"26.1","stresn":"26.1","stresu":"kg/m2","stnrlo":null,"stnrhi":null,"nrind":null,"pos":null,"loc":null,"dtc":"2024-07-26","dy":"86","visit":"C4D1","visitnum":"6.0","epoch":"TREATMENT"},{"seq":"42","testcd":"DIABP","test":"Diastolic Blood Pressure","cat":null,"orres":"57.3","orresu":"mmHg","stresc":"57.3","stresn":"57.3","stresu":"mmHg","stnrlo":null,"stnrhi":null,"nrind":null,"pos":null,"loc":null,"dtc":"2024-07-26","dy":"86","visit":"C4D1","visitnum":"6.0","epoch":"TREATMENT"},{"seq":"43","testcd":"HEIGHT","test":"Height","cat":null,"orres":"147.2","orresu":"cm","stresc":"147.2","stresn":"147.2","stresu":"cm","stnrlo":null,"stnrhi":null,"nrind":null,"pos":null,"loc":null,"dtc":"2024-07-26","dy":"86","visit":"C4D1","visitnum":"6.0","epoch":"TREATMENT"},{"seq":"44","testcd":"PULSE","test":"Pulse Rate","cat":null,"orres":"80.6","orresu":"beats/min","stresc":"80.6","stresn":"80.6","stresu":"beats/min","stnrlo":null,"stnrhi":null,"nrind":null,"pos":null,"loc":null,"dtc":"2024-07-26","dy":"86","visit":"C4D1","visitnum":"6.0","epoch":"TREATMENT"},{"seq":"45","testcd":"RESP","test":"Respiratory Rate","cat":null,"orres":"18.6","orresu":"breaths/min","stresc":"18.6","stresn":"18.6","stresu":"breaths/min","stnrlo":null,"stnrhi":null,"nrind":null,"pos":null,"loc":null,"dtc":"2024-07-26","dy":"86","visit":"C4D1","visitnum":"6.0","epoch":"TREATMENT"},{"seq":"46","testcd":"SYSBP","test":"Systolic Blood Pressure","cat":null,"orres":null,"orresu":null,"stresc":null,"stresn":null,"stresu":null,"stnrlo":null,"stnrhi":null,"nrind":null,"pos":null,"loc":null,"dtc":"2024-07-26","dy":"86","visit":"C4D1","visitnum":"6.0","epoch":"TREATMENT"},{"seq":"47","testcd":"TEMP","test":"Temperature","cat":null,"orres":"36.0","orresu":"C","stresc":"36.0","stresn":"36.0","stresu":"C","stnrlo":null,"stnrhi":null,"nrind":null,"pos":null,"loc":null,"dtc":"2024-07-26","dy":"86","visit":"C4D1","visitnum":"6.0","epoch":"TREATMENT"},{"seq":"48","testcd":"WEIGHT","test":"Weight","cat":null,"orres":"56.6","orresu":"kg","stresc":"56.6","stresn":"56.6","stresu":"kg","stnrlo":null,"stnrhi":null,"nrind":null,"pos":null,"loc":null,"dtc":"2024-07-26","dy":"86","visit":"C4D1","visitnum":"6.0","epoch":"TREATMENT"},{"seq":"49","testcd":"DIABP","test":"Diastolic Blood Pressure","cat":null,"orres":"58.3","orresu":"mmHg","stresc":"58.3","stresn":"58.3","stresu":"mmHg","stnrlo":null,"stnrhi":null,"nrind":null,"pos":null,"loc":null,"dtc":"2024-09-19","dy":"141","visit":"C6D1","visitnum":"7.0","epoch":"TREATMENT"},{"seq":"50","testcd":"HEIGHT","test":"Height","cat":null,"orres":"146.5","orresu":"cm","stresc":"146.5","stresn":"146.5","stresu":"cm","stnrlo":null,"stnrhi":null,"nrind":null,"pos":null,"loc":null,"dtc":"2024-09-19","dy":"141","visit":"C6D1","visitnum":"7.0","epoch":"TREATMENT"},{"seq":"51","testcd":"PULSE","test":"Pulse Rate","cat":null,"orres":"81.9","orresu":"beats/min","stresc":"81.9","stresn":"81.9","stresu":"beats/min","stnrlo":null,"stnrhi":null,"nrind":null,"pos":null,"loc":null,"dtc":"2024-09-19","dy":"141","visit":"C6D1","visitnum":"7.0","epoch":"TREATMENT"},{"seq":"52","testcd":"RESP","test":"Respiratory Rate","cat":null,"orres":"18.7","orresu":"breaths/min","stresc":"18.7","stresn":"18.7","stresu":"breaths/min","stnrlo":null,"stnrhi":null,"nrind":null,"pos":null,"loc":null,"dtc":"2024-09-19","dy":"141","visit":"C6D1","visitnum":"7.0","epoch":"TREATMENT"},{"seq":"53","testcd":"SYSBP","test":"Systolic Blood Pressure","cat":null,"orres":"105.7","orresu":"mmHg","stresc":"105.7","stresn":"105.7","stresu":"mmHg","stnrlo":null,"stnrhi":null,"nrind":null,"pos":null,"loc":null,"dtc":"2024-09-19","dy":"141","visit":"C6D1","visitnum":"7.0","epoch":"TREATMENT"},{"seq":"54","testcd":"TEMP","test":"Temperature","cat":null,"orres":"36.2","orresu":"C","stresc":"36.2","stresn":"36.2","stresu":"C","stnrlo":null,"stnrhi":null,"nrind":null,"pos":null,"loc":null,"dtc":"2024-09-19","dy":"141","visit":"C6D1","visitnum":"7.0","epoch":"TREATMENT"},{"seq":"55","testcd":"WEIGHT","test":"Weight","cat":null,"orres":null,"orresu":null,"stresc":null,"stresn":null,"stresu":null,"stnrlo":null,"stnrhi":null,"nrind":null,"pos":null,"loc":null,"dtc":"2024-09-19","dy":"141","visit":"C6D1","visitnum":"7.0","epoch":"TREATMENT"},{"seq":"56","testcd":"BMI","test":"BMI","cat":null,"orres":"26.3","orresu":"kg/m2","stresc":"26.3","stresn":"26.3","stresu":"kg/m2","stnrlo":null,"stnrhi":null,"nrind":null,"pos":null,"loc":null,"dtc":"2024-10-19","dy":"171","visit":"EOT","visitnum":"8.0","epoch":"TREATMENT"},{"seq":"57","testcd":"DIABP","test":"Diastolic Blood Pressure","cat":null,"orres":"58.8","orresu":"mmHg","stresc":"58.8","stresn":"58.8","stresu":"mmHg","stnrlo":null,"stnrhi":null,"nrind":null,"pos":null,"loc":null,"dtc":"2024-10-19","dy":"171","visit":"EOT","visitnum":"8.0","epoch":"TREATMENT"},{"seq":"58","testcd":"HEIGHT","test":"Height","cat":null,"orres":"146.0","orresu":"cm","stresc":"146.0","stresn":"146.0","stresu":"cm","stnrlo":null,"stnrhi":null,"nrind":null,"pos":null,"loc":null,"dtc":"2024-10-19","dy":"171","visit":"EOT","visitnum":"8.0","epoch":"TREATMENT"},{"seq":"59","testcd":"PULSE","test":"Pulse Rate","cat":null,"orres":"78.9","orresu":"beats/min","stresc":"78.9","stresn":"78.9","stresu":"beats/min","stnrlo":null,"stnrhi":null,"nrind":null,"pos":null,"loc":null,"dtc":"2024-10-19","dy":"171","visit":"EOT","visitnum":"8.0","epoch":"TREATMENT"},{"seq":"60","testcd":"RESP","test":"Respiratory Rate","cat":null,"orres":"19.0","orresu":"breaths/min","stresc":"19.0","stresn":"19.0","stresu":"breaths/min","stnrlo":null,"stnrhi":null,"nrind":null,"pos":null,"loc":null,"dtc":"2024-10-19","dy":"171","visit":"EOT","visitnum":"8.0","epoch":"TREATMENT"},{"seq":"61","testcd":"SYSBP","test":"Systolic Blood Pressure","cat":null,"orres":"107.1","orresu":"mmHg","stresc":"107.1","stresn":"107.1","stresu":"mmHg","stnrlo":null,"stnrhi":null,"nrind":null,"pos":null,"loc":null,"dtc":"2024-10-19","dy":"171","visit":"EOT","visitnum":"8.0","epoch":"TREATMENT"},{"seq":"62","testcd":"TEMP","test":"Temperature","cat":null,"orres":"36.2","orresu":"C","stresc":"36.2","stresn":"36.2","stresu":"C","stnrlo":null,"stnrhi":null,"nrind":null,"pos":null,"loc":null,"dtc":"2024-10-19","dy":"171","visit":"EOT","visitnum":"8.0","epoch":"TREATMENT"},{"seq":"63","testcd":"WEIGHT","test":"Weight","cat":null,"orres":"56.1","orresu":"kg","stresc":"56.1","stresn":"56.1","stresu":"kg","stnrlo":null,"stnrhi":null,"nrind":null,"pos":null,"loc":null,"dtc":"2024-10-19","dy":"171","visit":"EOT","visitnum":"8.0","epoch":"TREATMENT"},{"seq":"64","testcd":"BMI","test":"BMI","cat":null,"orres":"26.1","orresu":"kg/m2","stresc":"26.1","stresn":"26.1","stresu":"kg/m2","stnrlo":null,"stnrhi":null,"nrind":null,"pos":null,"loc":null,"dtc":"2024-11-09","dy":"192","visit":"FOLLOW-UP","visitnum":"9.0","epoch":"FOLLOW-UP"},{"seq":"65","testcd":"DIABP","test":"Diastolic Blood Pressure","cat":null,"orres":"56.2","orresu":"mmHg","stresc":"56.2","stresn":"56.2","stresu":"mmHg","stnrlo":null,"stnrhi":null,"nrind":null,"pos":null,"loc":null,"dtc":"2024-11-09","dy":"192","visit":"FOLLOW-UP","visitnum":"9.0","epoch":"FOLLOW-UP"},{"seq":"66","testcd":"HEIGHT","test":"Height","cat":null,"orres":"146.6","orresu":"cm","stresc":"146.6","stresn":"146.6","stresu":"cm","stnrlo":null,"stnrhi":null,"nrind":null,"pos":null,"loc":null,"dtc":"2024-11-09","dy":"192","visit":"FOLLOW-UP","visitnum":"9.0","epoch":"FOLLOW-UP"},{"seq":"67","testcd":"PULSE","test":"Pulse Rate","cat":null,"orres":"78.4","orresu":"beats/min","stresc":"78.4","stresn":"78.4","stresu":"beats/min","stnrlo":null,"stnrhi":null,"nrind":null,"pos":null,"loc":null,"dtc":"2024-11-09","dy":"192","visit":"FOLLOW-UP","visitnum":"9.0","epoch":"FOLLOW-UP"},{"seq":"68","testcd":"RESP","test":"Respiratory Rate","cat":null,"orres":"19.0","orresu":"breaths/min","stresc":"19.0","stresn":"19.0","stresu":"breaths/min","stnrlo":null,"stnrhi":null,"nrind":null,"pos":null,"loc":null,"dtc":"2024-11-09","dy":"192","visit":"FOLLOW-UP","visitnum":"9.0","epoch":"FOLLOW-UP"},{"seq":"69","testcd":"SYSBP","test":"Systolic Blood Pressure","cat":null,"orres":"107.2","orresu":"mmHg","stresc":"107.2","stresn":"107.2","stresu":"mmHg","stnrlo":null,"stnrhi":null,"nrind":null,"pos":null,"loc":null,"dtc":"2024-11-09","dy":"192","visit":"FOLLOW-UP","visitnum":"9.0","epoch":"FOLLOW-UP"},{"seq":"70","testcd":"TEMP","test":"Temperature","cat":null,"orres":"36.2","orresu":"C","stresc":"36.2","stresn":"36.2","stresu":"C","stnrlo":null,"stnrhi":null,"nrind":null,"pos":null,"loc":null,"dtc":"2024-11-09","dy":"192","visit":"FOLLOW-UP","visitnum":"9.0","epoch":"FOLLOW-UP"},{"seq":"71","testcd":"WEIGHT","test":"Weight","cat":null,"orres":"56.0","orresu":"kg","stresc":"56.0","stresn":"56.0","stresu":"kg","stnrlo":null,"stnrhi":null,"nrind":null,"pos":null,"loc":null,"dtc":"2024-11-09","dy":"192","visit":"FOLLOW-UP","visitnum":"9.0","epoch":"FOLLOW-UP"}]},"section_10_questionnaires_and_scores":{"questionnaires":[],"findings_about":[{"seq":"1","testcd":"LDIAM","test":"Longest Diameter","cat":"TUMOR ASSESSMENT","orres":"29.0","stresc":"29.0","stresn":"29.0","dtc":"2024-04-07","visit":"SCREENING"},{"seq":"2","testcd":"SAXIS","test":"Short Axis","cat":"TUMOR ASSESSMENT","orres":"9.1","stresc":"9.1","stresn":"9.1","dtc":"2024-04-07","visit":"SCREENING"},{"seq":"3","testcd":"LDIAM","test":"Longest Diameter","cat":"TUMOR ASSESSMENT","orres":"26.2","stresc":"26.2","stresn":"26.2","dtc":"2024-05-02","visit":"C1D1"},{"seq":"4","testcd":"SAXIS","test":"Short Axis","cat":"TUMOR ASSESSMENT","orres":"8.6","stresc":"8.6","stresn":"8.6","dtc":"2024-05-02","visit":"C1D1"},{"seq":"5","testcd":"LDIAM","test":"Longest Diameter","cat":"TUMOR ASSESSMENT","orres":"27.5","stresc":"27.5","stresn":"27.5","dtc":"2024-05-16","visit":"C1D15"},{"seq":"6","testcd":"SAXIS","test":"Short Axis","cat":"TUMOR ASSESSMENT","orres":"8.4","stresc":"8.4","stresn":"8.4","dtc":"2024-05-16","visit":"C1D15"},{"seq":"7","testcd":"LDIAM","test":"Longest Diameter","cat":"TUMOR ASSESSMENT","orres":"24.0","stresc":"24.0","stresn":"24.0","dtc":"2024-05-30","visit":"C2D1"},{"seq":"8","testcd":"SAXIS","test":"Short Axis","cat":"TUMOR ASSESSMENT","orres":"6.9","stresc":"6.9","stresn":"6.9","dtc":"2024-05-30","visit":"C2D1"},{"seq":"9","testcd":"LDIAM","test":"Longest Diameter","cat":"TUMOR ASSESSMENT","orres":"19.8","stresc":"19.8","stresn":"19.8","dtc":"2024-06-27","visit":"C3D1"},{"seq":"10","testcd":"SAXIS","test":"Short Axis","cat":"TUMOR ASSESSMENT","orres":"6.8","stresc":"6.8","stresn":"6.8","dtc":"2024-06-27","visit":"C3D1"},{"seq":"11","testcd":"LDIAM","test":"Longest Diameter","cat":"TUMOR ASSESSMENT","orres":"20.6","stresc":"20.6","stresn":"20.6","dtc":"2024-07-25","visit":"C4D1"},{"seq":"12","testcd":"SAXIS","test":"Short Axis","cat":"TUMOR ASSESSMENT","orres":"6.4","stresc":"6.4","stresn":"6.4","dtc":"2024-07-25","visit":"C4D1"},{"seq":"13","testcd":"LDIAM","test":"Longest Diameter","cat":"TUMOR ASSESSMENT","orres":"19.8","stresc":"19.8","stresn":"19.8","dtc":"2024-09-19","visit":"C6D1"},{"seq":"14","testcd":"SAXIS","test":"Short Axis","cat":"TUMOR ASSESSMENT","orres":"5.7","stresc":"5.7","stresn":"5.7","dtc":"2024-09-19","visit":"C6D1"},{"seq":"15","testcd":"LDIAM","test":"Longest Diameter","cat":"TUMOR ASSESSMENT","orres":"15.4","stresc":"15.4","stresn":"15.4","dtc":"2024-10-17","visit":"EOT"},{"seq":"16","testcd":"SAXIS","test":"Short Axis","cat":"TUMOR ASSESSMENT","orres":"5.4","stresc":"5.4","stresn":"5.4","dtc":"2024-10-17","visit":"EOT"}]},"section_11_protocol_deviations":{"deviations":[{"seq":"1","term":"Missed TEPOTINIB dose on 2024-05-03","decod":"MISSED DOSE","cat":"MINOR","scat":"DOSING","start_dtc":"2024-05-03","end_dtc":null,"visit":null},{"seq":"2","term":"Visit C1D15 occurred 2 days early (Day 13 vs planned Day 15)","decod":"VISIT OCCURRED OUTSIDE VISIT WINDOW","cat":"MINOR","scat":"VISIT WINDOW","start_dtc":"2024-05-14","end_dtc":null,"visit":null},{"seq":"3","term":"Missed TEPOTINIB dose on 2024-05-21","decod":"MISSED DOSE","cat":"MINOR","scat":"DOSING","start_dtc":"2024-05-21","end_dtc":null,"visit":null},{"seq":"4","term":"Missed TEPOTINIB dose on 2024-05-25","decod":"MISSED DOSE","cat":"MINOR","scat":"DOSING","start_dtc":"2024-05-25","end_dtc":null,"visit":null},{"seq":"5","term":"Missed TEPOTINIB dose on 2024-05-28","decod":"MISSED DOSE","cat":"MINOR","scat":"DOSING","start_dtc":"2024-05-28","end_dtc":null,"visit":null},{"seq":"6","term":"Missed TEPOTINIB dose on 2024-06-10","decod":"MISSED DOSE","cat":"MINOR","scat":"DOSING","start_dtc":"2024-06-10","end_dtc":null,"visit":null},{"seq":"7","term":"Missed TEPOTINIB dose on 2024-07-04","decod":"MISSED DOSE","cat":"MINOR","scat":"DOSING","start_dtc":"2024-07-04","end_dtc":null,"visit":null},{"seq":"8","term":"Missed TEPOTINIB dose on 2024-07-06","decod":"MISSED DOSE","cat":"MINOR","scat":"DOSING","start_dtc":"2024-07-06","end_dtc":null,"visit":null},{"seq":"9","term":"Missed TEPOTINIB dose on 2024-07-19","decod":"MISSED DOSE","cat":"MINOR","scat":"DOSING","start_dtc":"2024-07-19","end_dtc":null,"visit":null},{"seq":"10","term":"Missed TEPOTINIB dose on 2024-07-20","decod":"MISSED DOSE","cat":"MINOR","scat":"DOSING","start_dtc":"2024-07-20","end_dtc":null,"visit":null},{"seq":"11","term":"Visit C4D1 occurred 1 days late (Day 86 vs planned Day 85)","decod":"VISIT OCCURRED OUTSIDE VISIT WINDOW","cat":"MINOR","scat":"VISIT WINDOW","start_dtc":"2024-07-26","end_dtc":null,"visit":null},{"seq":"12","term":"Visit FOLLOW-UP occurred 7 days early (Day 192 vs planned Day 199)","decod":"VISIT OCCURRED OUTSIDE VISIT WINDOW","cat":"MINOR","scat":"VISIT WINDOW","start_dtc":"2024-11-09","end_dtc":null,"visit":null}],"total":12},"section_12_disposition":{"completion_status":"COMPLETED","disposition_records":[{"seq":"1","term":"INFORMED CONSENT OBTAINED","decod":"INFORMED CONSENT OBTAINED","cat":"PROTOCOL MILESTONE","scat":null,"dtc":"2024-04-07","dy":null,"visit":null,"epoch":"SCREENING"},{"seq":"2","term":"RANDOMIZED","decod":"RANDOMIZED","cat":"PROTOCOL MILESTONE","scat":null,"dtc":"2024-05-02","dy":null,"visit":null,"epoch":"TREATMENT"},{"seq":"3","term":"COMPLETED","decod":"COMPLETED","cat":"DISPOSITION EVENT","scat":null,"dtc":"2024-12-13","dy":null,"visit":null,"epoch":"FOLLOW-UP"}],"death":null},"section_13_hospitalizations":{"items":[{"seq":"1","term":"Fatigue","decod":"Fatigue","cat":"HOSPITALIZATION","start_dtc":"2024-08-16","end_dtc":"2024-08-27","epoch":"TREATMENT"}],"total":1},"section_14_substance_use":{"items":[{"seq":"1","substance":"ALCOHOL","decod":"ALCOHOL","cat":"ALCOHOL","scat":null,"usage":"Y","dose":"9.0","dosu":"DRINKS/WEEK","freq":"QW","start_dtc":"2007-04-12","end_dtc":null},{"seq":"2","substance":"COFFEE","decod":"COFFEE","cat":"CAFFEINE","scat":null,"usage":"Y","dose":"2.0","dosu":"CUPS/DAY","freq":"QD","start_dtc":"2007-04-12","end_dtc":null},{"seq":"3","substance":"CIGARETTES","decod":"CIGARETTES","cat":"TOBACCO","scat":"CIGARETTES","usage":"N","dose":null,"dosu":null,"freq":null,"start_dtc":null,"end_dtc":null}],"total":3},"section_15_subject_status":{"items":[{"seq":"1","testcd":"SURVSTAT","test":"Survival Status","orres":"ALIVE","stresc":"ALIVE","dtc":"2024-11-16","visit":"FOLLOW-UP","epoch":"FOLLOW-UP"}],"total":1}}