STUDYID,DOMAIN,USUBJID,AESEQ,AELNKID,AETERM,AELLT,AELLTCD,AEDECOD,AEPTCD,AEHLT,AEHLTCD,AEHLGT,AEHLGTCD,AEBODSYS,AEBDSYCD,AESOC,AESOCCD,AESEV,AESER,AEACN,AEREL,AEOUT,AESCONG,AESDISAB,AESDTH,AESHOSP,AESLIFE,AESMIE,EPOCH,AESTDTC,AEENDTC,AESTDY,AEENDY,AEENRF
VISION-NSCLC,AE,VISION-NSCLC-SITE001-0001,1,AE1,OEDEMA PERIPHERAL,Oedema peripheral,,Oedema peripheral,10030124,Oedema NEC,10030095,Oedema NEC,10064690,General disorders and administration site conditions,10018065,General disorders and administration site conditions,10018065,MILD,N,DOSE NOT CHANGED,NOT RELATED,RECOVERED/RESOLVED,N,N,N,N,N,N,TREATMENT,2024-04-02,2024-04-10,7,15,
VISION-NSCLC,AE,VISION-NSCLC-SITE001-0007,1,AE1,VOMITING,Vomiting,,Vomiting,10047700,Nausea and vomiting symptoms,10028817,Gastrointestinal signs and symptoms,10017999,Gastrointestinal disorders,10017947,Gastrointestinal disorders,10017947,MILD,N,DOSE NOT CHANGED,UNLIKELY RELATED,RECOVERED/RESOLVED,N,N,N,N,N,N,TREATMENT,2024-02-18,2024-02-20,6,8,
VISION-NSCLC,AE,VISION-NSCLC-SITE001-0007,2,AE2,ALANINE AMINOTRANSFERASE INCREASED,Alanine aminotransferase increased,,Alanine aminotransferase increased,10001551,Liver function analyses,10024689,Hepatobiliary investigations,10019843,Investigations,10022891,Investigations,10022891,SEVERE,Y,DOSE NOT CHANGED,UNLIKELY RELATED,RECOVERED/RESOLVED,N,N,N,N,N,Y,TREATMENT,2024-03-15,2024-05-26,32,104,
VISION-NSCLC,AE,VISION-NSCLC-SITE001-0007,3,AE3,FATIGUE,Fatigue,,Fatigue,10016256,Asthenic conditions,10003550,General system disorders NEC,10060892,General disorders and administration site conditions,10018065,General disorders and administration site conditions,10018065,MILD,N,DOSE NOT CHANGED,PROBABLY RELATED,RECOVERED/RESOLVED,N,N,N,N,N,N,TREATMENT,2024-03-15,2024-03-19,32,36,
VISION-NSCLC,AE,VISION-NSCLC-SITE001-0007,4,AE4,ALANINE AMINOTRANSFERASE INCREASED,Alanine aminotransferase increased,,Alanine aminotransferase increased,10001551,Liver function analyses,10024689,Hepatobiliary investigations,10019843,Investigations,10022891,Investigations,10022891,MILD,N,DOSE NOT CHANGED,NOT RELATED,RECOVERED/RESOLVED,N,N,N,N,N,N,TREATMENT,2024-03-28,2024-04-14,45,62,
VISION-NSCLC,AE,VISION-NSCLC-SITE001-0007,5,AE5,HYPOALBUMINAEMIA,Hypoalbuminaemia,,Hypoalbuminaemia,10020944,Protein metabolism disorders,10060816,Protein and amino acid metabolism disorders,10067088,Metabolism and nutrition disorders,10027433,Metabolism and nutrition disorders,10027433,MODERATE,N,DOSE NOT CHANGED,NOT RELATED,RECOVERED/RESOLVED,N,N,N,N,N,N,TREATMENT,2024-04-01,2024-04-13,49,61,
VISION-NSCLC,AE,VISION-NSCLC-SITE001-0007,6,AE6,OEDEMA PERIPHERAL,Oedema peripheral,,Oedema peripheral,10030124,Oedema NEC,10030095,Oedema NEC,10064690,General disorders and administration site conditions,10018065,General disorders and administration site conditions,10018065,MILD,N,DOSE NOT CHANGED,UNLIKELY RELATED,RECOVERED/RESOLVED,N,N,N,N,N,N,TREATMENT,2024-05-11,2024-05-21,89,99,
VISION-NSCLC,AE,VISION-NSCLC-SITE001-0007,7,AE7,NAUSEA,Nausea,,Nausea,10028813,Nausea and vomiting symptoms,10028817,Gastrointestinal signs and symptoms,10017999,Gastrointestinal disorders,10017947,Gastrointestinal disorders,10017947,MODERATE,N,DOSE NOT CHANGED,NOT RELATED,RECOVERED/RESOLVED,N,N,N,N,N,N,TREATMENT,2024-05-17,2024-05-24,95,102,
VISION-NSCLC,AE,VISION-NSCLC-SITE001-0007,8,AE8,OEDEMA PERIPHERAL,Oedema peripheral,,Oedema peripheral,10030124,Oedema NEC,10030095,Oedema NEC,10064690,General disorders and administration site conditions,10018065,General disorders and administration site conditions,10018065,MILD,N,DOSE NOT CHANGED,NOT RELATED,RECOVERED/RESOLVED,N,N,N,N,N,N,TREATMENT,2024-05-21,2024-05-26,99,104,
VISION-NSCLC,AE,VISION-NSCLC-SITE001-0007,9,AE9,CYTOKINE RELEASE SYNDROME,Cytokine release syndrome,,Cytokine release syndrome,10052015,Immune and associated conditions NEC,10027682,Autoimmune disorders,10003815,Immune system disorders,10021428,Immune system disorders,10021428,MODERATE,N,DOSE NOT CHANGED,UNLIKELY RELATED,NOT RECOVERED/NOT RESOLVED,N,N,N,N,N,N,TREATMENT,2024-05-21,,99,,DURING/AFTER
VISION-NSCLC,AE,VISION-NSCLC-SITE001-0007,10,AE10,DIARRHOEA,Diarrhoea,,Diarrhoea,10012735,Diarrhoea (excl infective),10012736,Gastrointestinal motility and defaecation conditions,10017983,Gastrointestinal disorders,10017947,Gastrointestinal disorders,10017947,MILD,N,DOSE NOT CHANGED,UNLIKELY RELATED,RECOVERING/RESOLVING,N,N,N,N,N,N,TREATMENT,2024-05-23,2024-05-25,101,103,
VISION-NSCLC,AE,VISION-NSCLC-SITE001-0007,11,AE11,VOMITING,Vomiting,,Vomiting,10047700,Nausea and vomiting symptoms,10028817,Gastrointestinal signs and symptoms,10017999,Gastrointestinal disorders,10017947,Gastrointestinal disorders,10017947,SEVERE,Y,DRUG INTERRUPTED,PROBABLY RELATED,RECOVERED/RESOLVED,N,N,N,Y,N,N,TREATMENT,2024-05-25,2024-06-05,103,114,
VISION-NSCLC,AE,VISION-NSCLC-SITE001-0007,12,AE12,DYSPNOEA,Dyspnoea,,Dyspnoea,10013968,Breathing abnormalities,10006486,Respiratory tract signs and symptoms,10038734,"Respiratory, thoracic and mediastinal disorders",10038738,"Respiratory, thoracic and mediastinal disorders",10038738,MODERATE,N,DOSE REDUCED,POSSIBLY RELATED,RECOVERED/RESOLVED,N,N,N,N,N,N,TREATMENT,2024-06-29,2024-07-24,138,163,
VISION-NSCLC,AE,VISION-NSCLC-SITE001-0007,13,AE13,DIARRHOEA,Diarrhoea,,Diarrhoea,10012735,Diarrhoea (excl infective),10012736,Gastrointestinal motility and defaecation conditions,10017983,Gastrointestinal disorders,10017947,Gastrointestinal disorders,10017947,SEVERE,Y,DOSE NOT CHANGED,NOT RELATED,RECOVERING/RESOLVING,N,N,N,N,N,Y,TREATMENT,2024-07-03,2024-07-25,142,164,
VISION-NSCLC,AE,VISION-NSCLC-SITE001-0010,1,AE1,BLOOD CREATININE INCREASED,Blood creatinine increased,,Blood creatinine increased,10005483,Renal function analyses,10038432,Renal and urinary tract investigations and urinalyses,10062225,Investigations,10022891,Investigations,10022891,MODERATE,N,DOSE NOT CHANGED,NOT RELATED,RECOVERED/RESOLVED,N,N,N,N,N,N,TREATMENT,2024-03-02,2024-03-28,27,53,
VISION-NSCLC,AE,VISION-NSCLC-SITE001-0010,2,AE2,OEDEMA PERIPHERAL,Oedema peripheral,,Oedema peripheral,10030124,Oedema NEC,10030095,Oedema NEC,10064690,General disorders and administration site conditions,10018065,General disorders and administration site conditions,10018065,MILD,N,DOSE NOT CHANGED,NOT RELATED,NOT RECOVERED/NOT RESOLVED,N,N,N,N,N,N,TREATMENT,2024-03-25,,50,,DURING/AFTER
VISION-NSCLC,AE,VISION-NSCLC-SITE001-0010,3,AE3,DIARRHOEA,Diarrhoea,,Diarrhoea,10012735,Diarrhoea (excl infective),10012736,Gastrointestinal motility and defaecation conditions,10017983,Gastrointestinal disorders,10017947,Gastrointestinal disorders,10017947,MODERATE,N,DOSE NOT CHANGED,UNLIKELY RELATED,RECOVERING/RESOLVING,N,N,N,N,N,N,TREATMENT,2024-04-14,2024-04-22,70,78,
VISION-NSCLC,AE,VISION-NSCLC-SITE001-0010,4,AE4,VOMITING,Vomiting,,Vomiting,10047700,Nausea and vomiting symptoms,10028817,Gastrointestinal signs and symptoms,10017999,Gastrointestinal disorders,10017947,Gastrointestinal disorders,10017947,MODERATE,N,DOSE REDUCED,POSSIBLY RELATED,RECOVERED/RESOLVED,N,N,N,N,N,N,TREATMENT,2024-04-15,2024-04-20,71,76,
VISION-NSCLC,AE,VISION-NSCLC-SITE001-0010,5,AE5,FATIGUE,Fatigue,,Fatigue,10016256,Asthenic conditions,10003550,General system disorders NEC,10060892,General disorders and administration site conditions,10018065,General disorders and administration site conditions,10018065,SEVERE,Y,DOSE NOT CHANGED,NOT RELATED,RECOVERED/RESOLVED,N,N,N,Y,N,N,TREATMENT,2024-05-30,2024-08-06,116,184,
VISION-NSCLC,AE,VISION-NSCLC-SITE001-0010,6,AE6,BLOOD CREATININE INCREASED,Blood creatinine increased,,Blood creatinine increased,10005483,Renal function analyses,10038432,Renal and urinary tract investigations and urinalyses,10062225,Investigations,10022891,Investigations,10022891,MILD,N,DOSE NOT CHANGED,NOT RELATED,RECOVERED/RESOLVED,N,N,N,N,N,N,TREATMENT,2024-06-02,2024-06-11,119,128,
VISION-NSCLC,AE,VISION-NSCLC-SITE001-0010,7,AE7,NAUSEA,Nausea,,Nausea,10028813,Nausea and vomiting symptoms,10028817,Gastrointestinal signs and symptoms,10017999,Gastrointestinal disorders,10017947,Gastrointestinal disorders,10017947,MODERATE,N,DOSE NOT CHANGED,POSSIBLY RELATED,RECOVERED/RESOLVED,N,N,N,N,N,N,TREATMENT,2024-06-05,2024-06-07,122,124,
VISION-NSCLC,AE,VISION-NSCLC-SITE001-0019,1,AE1,DIARRHOEA,Diarrhoea,,Diarrhoea,10012735,Diarrhoea (excl infective),10012736,Gastrointestinal motility and defaecation conditions,10017983,Gastrointestinal disorders,10017947,Gastrointestinal disorders,10017947,MILD,N,DOSE NOT CHANGED,UNLIKELY RELATED,RECOVERED/RESOLVED,N,N,N,N,N,N,TREATMENT,2024-07-06,2024-07-09,103,106,
VISION-NSCLC,AE,VISION-NSCLC-SITE001-0019,2,AE2,DIARRHOEA,Diarrhoea,,Diarrhoea,10012735,Diarrhoea (excl infective),10012736,Gastrointestinal motility and defaecation conditions,10017983,Gastrointestinal disorders,10017947,Gastrointestinal disorders,10017947,SEVERE,Y,DOSE REDUCED,PROBABLY RELATED,RECOVERED/RESOLVED WITH SEQUELAE,N,N,N,Y,N,N,TREATMENT,2024-08-11,2024-09-08,139,167,
VISION-NSCLC,AE,VISION-NSCLC-SITE001-0022,1,AE1,DIARRHOEA,Diarrhoea,,Diarrhoea,10012735,Diarrhoea (excl infective),10012736,Gastrointestinal motility and defaecation conditions,10017983,Gastrointestinal disorders,10017947,Gastrointestinal disorders,10017947,MODERATE,N,DOSE NOT CHANGED,NOT RELATED,RECOVERED/RESOLVED,N,N,N,N,N,N,TREATMENT,2024-03-10,2024-03-13,12,15,
VISION-NSCLC,AE,VISION-NSCLC-SITE001-0022,2,AE2,ALANINE AMINOTRANSFERASE INCREASED,Alanine aminotransferase increased,,Alanine aminotransferase increased,10001551,Liver function analyses,10024689,Hepatobiliary investigations,10019843,Investigations,10022891,Investigations,10022891,MILD,N,DOSE NOT CHANGED,NOT RELATED,RECOVERED/RESOLVED,N,N,N,N,N,N,TREATMENT,2024-03-11,2024-04-04,13,37,
VISION-NSCLC,AE,VISION-NSCLC-SITE001-0022,3,AE3,OEDEMA PERIPHERAL,Oedema peripheral,,Oedema peripheral,10030124,Oedema NEC,10030095,Oedema NEC,10064690,General disorders and administration site conditions,10018065,General disorders and administration site conditions,10018065,MILD,N,DOSE NOT CHANGED,POSSIBLY RELATED,RECOVERED/RESOLVED,N,N,N,N,N,N,TREATMENT,2024-03-28,2024-04-06,30,39,
VISION-NSCLC,AE,VISION-NSCLC-SITE001-0022,4,AE4,NAUSEA,Nausea,,Nausea,10028813,Nausea and vomiting symptoms,10028817,Gastrointestinal signs and symptoms,10017999,Gastrointestinal disorders,10017947,Gastrointestinal disorders,10017947,MODERATE,N,DOSE NOT CHANGED,POSSIBLY RELATED,RECOVERED/RESOLVED,N,N,N,N,N,N,TREATMENT,2024-04-01,2024-04-06,34,39,
VISION-NSCLC,AE,VISION-NSCLC-SITE001-0022,5,AE5,FATIGUE,Fatigue,,Fatigue,10016256,Asthenic conditions,10003550,General system disorders NEC,10060892,General disorders and administration site conditions,10018065,General disorders and administration site conditions,10018065,MODERATE,N,DOSE NOT CHANGED,NOT RELATED,RECOVERED/RESOLVED,N,N,N,N,N,N,TREATMENT,2024-05-18,2024-05-25,81,88,
VISION-NSCLC,AE,VISION-NSCLC-SITE001-0022,6,AE6,OEDEMA PERIPHERAL,Oedema peripheral,,Oedema peripheral,10030124,Oedema NEC,10030095,Oedema NEC,10064690,General disorders and administration site conditions,10018065,General disorders and administration site conditions,10018065,MODERATE,N,DOSE NOT CHANGED,UNLIKELY RELATED,RECOVERED/RESOLVED,N,N,N,N,N,N,TREATMENT,2024-06-05,2024-06-17,99,111,
VISION-NSCLC,AE,VISION-NSCLC-SITE001-0022,7,AE7,ALANINE AMINOTRANSFERASE INCREASED,Alanine aminotransferase increased,,Alanine aminotransferase increased,10001551,Liver function analyses,10024689,Hepatobiliary investigations,10019843,Investigations,10022891,Investigations,10022891,MODERATE,N,DOSE NOT CHANGED,UNLIKELY RELATED,RECOVERED/RESOLVED,N,N,N,N,N,N,TREATMENT,2024-06-07,2024-07-05,101,129,
VISION-NSCLC,AE,VISION-NSCLC-SITE001-0022,8,AE8,OEDEMA PERIPHERAL,Oedema peripheral,,Oedema peripheral,10030124,Oedema NEC,10030095,Oedema NEC,10064690,General disorders and administration site conditions,10018065,General disorders and administration site conditions,10018065,SEVERE,Y,DRUG INTERRUPTED,PROBABLY RELATED,RECOVERED/RESOLVED,N,N,N,Y,N,N,TREATMENT,2024-07-15,2024-08-03,139,158,
VISION-NSCLC,AE,VISION-NSCLC-SITE001-0022,9,AE9,OEDEMA PERIPHERAL,Oedema peripheral,,Oedema peripheral,10030124,Oedema NEC,10030095,Oedema NEC,10064690,General disorders and administration site conditions,10018065,General disorders and administration site conditions,10018065,MODERATE,N,DRUG INTERRUPTED,RELATED,RECOVERED/RESOLVED,N,N,N,N,N,N,TREATMENT,2024-08-13,2024-08-28,168,183,
VISION-NSCLC,AE,VISION-NSCLC-SITE001-0025,1,AE1,OEDEMA PERIPHERAL,Oedema peripheral,,Oedema peripheral,10030124,Oedema NEC,10030095,Oedema NEC,10064690,General disorders and administration site conditions,10018065,General disorders and administration site conditions,10018065,MODERATE,N,DOSE NOT CHANGED,NOT RELATED,RECOVERED/RESOLVED WITH SEQUELAE,N,N,N,N,N,N,TREATMENT,2024-06-16,2024-06-20,95,99,
VISION-NSCLC,AE,VISION-NSCLC-SITE001-0028,1,AE1,OEDEMA PERIPHERAL,Oedema peripheral,,Oedema peripheral,10030124,Oedema NEC,10030095,Oedema NEC,10064690,General disorders and administration site conditions,10018065,General disorders and administration site conditions,10018065,MILD,N,DOSE NOT CHANGED,UNLIKELY RELATED,RECOVERED/RESOLVED,N,N,N,N,N,N,TREATMENT,2024-03-24,2024-03-28,33,37,
VISION-NSCLC,AE,VISION-NSCLC-SITE001-0028,2,AE2,DIARRHOEA,Diarrhoea,,Diarrhoea,10012735,Diarrhoea (excl infective),10012736,Gastrointestinal motility and defaecation conditions,10017983,Gastrointestinal disorders,10017947,Gastrointestinal disorders,10017947,MILD,N,DOSE NOT CHANGED,NOT RELATED,RECOVERED/RESOLVED,N,N,N,N,N,N,TREATMENT,2024-04-05,2024-04-06,45,46,
VISION-NSCLC,AE,VISION-NSCLC-SITE001-0028,3,AE3,VOMITING,Vomiting,,Vomiting,10047700,Nausea and vomiting symptoms,10028817,Gastrointestinal signs and symptoms,10017999,Gastrointestinal disorders,10017947,Gastrointestinal disorders,10017947,MILD,N,DOSE NOT CHANGED,NOT RELATED,RECOVERED/RESOLVED,N,N,N,N,N,N,TREATMENT,2024-05-29,2024-05-31,99,101,
VISION-NSCLC,AE,VISION-NSCLC-SITE001-0028,4,AE4,VOMITING,Vomiting,,Vomiting,10047700,Nausea and vomiting symptoms,10028817,Gastrointestinal signs and symptoms,10017999,Gastrointestinal disorders,10017947,Gastrointestinal disorders,10017947,MILD,N,DOSE NOT CHANGED,NOT RELATED,RECOVERED/RESOLVED,N,N,N,N,N,N,TREATMENT,2024-07-31,2024-08-02,162,164,
VISION-NSCLC,AE,VISION-NSCLC-SITE001-0031,1,AE1,ALANINE AMINOTRANSFERASE INCREASED,Alanine aminotransferase increased,,Alanine aminotransferase increased,10001551,Liver function analyses,10024689,Hepatobiliary investigations,10019843,Investigations,10022891,Investigations,10022891,MODERATE,N,DOSE NOT CHANGED,NOT RELATED,RECOVERING/RESOLVING,N,N,N,N,N,N,TREATMENT,2024-03-18,2024-04-13,13,39,
VISION-NSCLC,AE,VISION-NSCLC-SITE001-0031,2,AE2,OEDEMA PERIPHERAL,Oedema peripheral,,Oedema peripheral,10030124,Oedema NEC,10030095,Oedema NEC,10064690,General disorders and administration site conditions,10018065,General disorders and administration site conditions,10018065,MILD,N,DOSE NOT CHANGED,NOT RELATED,RECOVERED/RESOLVED,N,N,N,N,N,N,TREATMENT,2024-05-04,2024-05-10,60,66,
VISION-NSCLC,AE,VISION-NSCLC-SITE001-0031,3,AE3,NAUSEA,Nausea,,Nausea,10028813,Nausea and vomiting symptoms,10028817,Gastrointestinal signs and symptoms,10017999,Gastrointestinal disorders,10017947,Gastrointestinal disorders,10017947,MODERATE,N,DOSE NOT CHANGED,NOT RELATED,RECOVERED/RESOLVED,N,N,N,N,N,N,TREATMENT,2024-05-15,2024-05-21,71,77,
VISION-NSCLC,AE,VISION-NSCLC-SITE001-0031,4,AE4,VOMITING,Vomiting,,Vomiting,10047700,Nausea and vomiting symptoms,10028817,Gastrointestinal signs and symptoms,10017999,Gastrointestinal disorders,10017947,Gastrointestinal disorders,10017947,MODERATE,N,DOSE NOT CHANGED,UNLIKELY RELATED,RECOVERED/RESOLVED,N,N,N,N,N,N,TREATMENT,2024-06-15,2024-06-18,102,105,
VISION-NSCLC,AE,VISION-NSCLC-SITE001-0031,5,AE5,DECREASED APPETITE,Decreased appetite,,Decreased appetite,10061428,Appetite disorders,10003052,Eating disorders and disturbances,10061427,Metabolism and nutrition disorders,10027433,Metabolism and nutrition disorders,10027433,MILD,N,DOSE NOT CHANGED,UNLIKELY RELATED,NOT RECOVERED/NOT RESOLVED,N,N,N,N,N,N,TREATMENT,2024-06-19,,106,,DURING/AFTER
VISION-NSCLC,AE,VISION-NSCLC-SITE001-0031,6,AE6,VOMITING,Vomiting,,Vomiting,10047700,Nausea and vomiting symptoms,10028817,Gastrointestinal signs and symptoms,10017999,Gastrointestinal disorders,10017947,Gastrointestinal disorders,10017947,MILD,N,DOSE NOT CHANGED,UNLIKELY RELATED,RECOVERED/RESOLVED,N,N,N,N,N,N,TREATMENT,2024-06-24,2024-06-25,111,112,
VISION-NSCLC,AE,VISION-NSCLC-SITE001-0031,7,AE7,HYPOALBUMINAEMIA,Hypoalbuminaemia,,Hypoalbuminaemia,10020944,Protein metabolism disorders,10060816,Protein and amino acid metabolism disorders,10067088,Metabolism and nutrition disorders,10027433,Metabolism and nutrition disorders,10027433,MODERATE,N,DOSE NOT CHANGED,POSSIBLY RELATED,RECOVERING/RESOLVING,N,N,N,N,N,N,TREATMENT,2024-07-13,2024-07-17,130,134,
VISION-NSCLC,AE,VISION-NSCLC-SITE001-0031,8,AE8,VOMITING,Vomiting,,Vomiting,10047700,Nausea and vomiting symptoms,10028817,Gastrointestinal signs and symptoms,10017999,Gastrointestinal disorders,10017947,Gastrointestinal disorders,10017947,SEVERE,Y,DOSE REDUCED,POSSIBLY RELATED,NOT RECOVERED/NOT RESOLVED,N,N,N,Y,N,N,TREATMENT,2024-08-07,,155,,DURING/AFTER
VISION-NSCLC,AE,VISION-NSCLC-SITE001-0037,1,AE1,DIARRHOEA,Diarrhoea,,Diarrhoea,10012735,Diarrhoea (excl infective),10012736,Gastrointestinal motility and defaecation conditions,10017983,Gastrointestinal disorders,10017947,Gastrointestinal disorders,10017947,SEVERE,Y,DOSE NOT CHANGED,UNLIKELY RELATED,UNKNOWN,N,N,N,N,N,Y,TREATMENT,2024-03-30,2024-04-22,7,30,
VISION-NSCLC,AE,VISION-NSCLC-SITE001-0037,2,AE2,OEDEMA PERIPHERAL,Oedema peripheral,,Oedema peripheral,10030124,Oedema NEC,10030095,Oedema NEC,10064690,General disorders and administration site conditions,10018065,General disorders and administration site conditions,10018065,MODERATE,N,DOSE REDUCED,POSSIBLY RELATED,RECOVERED/RESOLVED,N,N,N,N,N,N,TREATMENT,2024-04-07,2024-04-25,15,33,
VISION-NSCLC,AE,VISION-NSCLC-SITE001-0037,3,AE3,ASPARTATE AMINOTRANSFERASE INCREASED,Aspartate aminotransferase increased,,Aspartate aminotransferase increased,10003481,Liver function analyses,10024689,Hepatobiliary investigations,10019843,Investigations,10022891,Investigations,10022891,MILD,N,DOSE NOT CHANGED,RELATED,RECOVERED/RESOLVED,N,N,N,N,N,N,TREATMENT,2024-05-01,2024-05-19,39,57,
VISION-NSCLC,AE,VISION-NSCLC-SITE001-0037,4,AE4,OEDEMA PERIPHERAL,Oedema peripheral,,Oedema peripheral,10030124,Oedema NEC,10030095,Oedema NEC,10064690,General disorders and administration site conditions,10018065,General disorders and administration site conditions,10018065,MILD,N,DOSE NOT CHANGED,UNLIKELY RELATED,RECOVERED/RESOLVED,N,N,N,N,N,N,TREATMENT,2024-05-07,2024-05-16,45,54,
VISION-NSCLC,AE,VISION-NSCLC-SITE001-0037,5,AE5,NAUSEA,Nausea,,Nausea,10028813,Nausea and vomiting symptoms,10028817,Gastrointestinal signs and symptoms,10017999,Gastrointestinal disorders,10017947,Gastrointestinal disorders,10017947,SEVERE,Y,DOSE REDUCED,POSSIBLY RELATED,RECOVERED/RESOLVED,N,N,N,Y,N,N,TREATMENT,2024-05-22,2024-06-06,60,75,
VISION-NSCLC,AE,VISION-NSCLC-SITE001-0037,6,AE6,HYPOALBUMINAEMIA,Hypoalbuminaemia,,Hypoalbuminaemia,10020944,Protein metabolism disorders,10060816,Protein and amino acid metabolism disorders,10067088,Metabolism and nutrition disorders,10027433,Metabolism and nutrition disorders,10027433,MILD,N,DOSE NOT CHANGED,RELATED,NOT RECOVERED/NOT RESOLVED,N,N,N,N,N,N,TREATMENT,2024-06-25,,94,,DURING/AFTER
VISION-NSCLC,AE,VISION-NSCLC-SITE001-0037,7,AE7,NAUSEA,Nausea,,Nausea,10028813,Nausea and vomiting symptoms,10028817,Gastrointestinal signs and symptoms,10017999,Gastrointestinal disorders,10017947,Gastrointestinal disorders,10017947,MILD,N,DOSE REDUCED,PROBABLY RELATED,RECOVERED/RESOLVED,N,N,N,N,N,N,TREATMENT,2024-07-04,2024-07-06,103,105,
VISION-NSCLC,AE,VISION-NSCLC-SITE001-0037,8,AE8,OEDEMA PERIPHERAL,Oedema peripheral,,Oedema peripheral,10030124,Oedema NEC,10030095,Oedema NEC,10064690,General disorders and administration site conditions,10018065,General disorders and administration site conditions,10018065,MILD,N,DOSE NOT CHANGED,UNLIKELY RELATED,RECOVERED/RESOLVED,N,N,N,N,N,N,TREATMENT,2024-07-19,2024-07-25,118,124,
VISION-NSCLC,AE,VISION-NSCLC-SITE001-0037,9,AE9,HYPOALBUMINAEMIA,Hypoalbuminaemia,,Hypoalbuminaemia,10020944,Protein metabolism disorders,10060816,Protein and amino acid metabolism disorders,10067088,Metabolism and nutrition disorders,10027433,Metabolism and nutrition disorders,10027433,MILD,N,DOSE NOT CHANGED,NOT RELATED,RECOVERED/RESOLVED,N,N,N,N,N,N,TREATMENT,2024-07-28,2024-08-03,127,133,
VISION-NSCLC,AE,VISION-NSCLC-SITE001-0043,1,AE1,DIARRHOEA,Diarrhoea,,Diarrhoea,10012735,Diarrhoea (excl infective),10012736,Gastrointestinal motility and defaecation conditions,10017983,Gastrointestinal disorders,10017947,Gastrointestinal disorders,10017947,MODERATE,N,DOSE NOT CHANGED,NOT RELATED,RECOVERING/RESOLVING,N,N,N,N,N,N,TREATMENT,2024-06-28,2024-07-12,95,109,
VISION-NSCLC,AE,VISION-NSCLC-SITE001-0043,2,AE2,DIARRHOEA,Diarrhoea,,Diarrhoea,10012735,Diarrhoea (excl infective),10012736,Gastrointestinal motility and defaecation conditions,10017983,Gastrointestinal disorders,10017947,Gastrointestinal disorders,10017947,SEVERE,Y,DOSE REDUCED,POSSIBLY RELATED,RECOVERED/RESOLVED WITH SEQUELAE,N,N,N,Y,N,N,TREATMENT,2024-07-01,2024-07-21,98,118,
VISION-NSCLC,AE,VISION-NSCLC-SITE001-0043,3,AE3,DECREASED APPETITE,Decreased appetite,,Decreased appetite,10061428,Appetite disorders,10003052,Eating disorders and disturbances,10061427,Metabolism and nutrition disorders,10027433,Metabolism and nutrition disorders,10027433,MODERATE,N,DOSE NOT CHANGED,POSSIBLY RELATED,RECOVERING/RESOLVING,N,N,N,N,N,N,TREATMENT,2024-07-05,2024-07-19,102,116,
VISION-NSCLC,AE,VISION-NSCLC-SITE001-0043,4,AE4,VOMITING,Vomiting,,Vomiting,10047700,Nausea and vomiting symptoms,10028817,Gastrointestinal signs and symptoms,10017999,Gastrointestinal disorders,10017947,Gastrointestinal disorders,10017947,MILD,N,DOSE NOT CHANGED,NOT RELATED,RECOVERED/RESOLVED,N,N,N,N,N,N,TREATMENT,2024-08-28,2024-08-29,156,157,
VISION-NSCLC,AE,VISION-NSCLC-SITE001-0046,1,AE1,FATIGUE,Fatigue,,Fatigue,10016256,Asthenic conditions,10003550,General system disorders NEC,10060892,General disorders and administration site conditions,10018065,General disorders and administration site conditions,10018065,MILD,N,DOSE NOT CHANGED,UNLIKELY RELATED,RECOVERING/RESOLVING,N,N,N,N,N,N,TREATMENT,2024-04-03,2024-04-16,6,19,
VISION-NSCLC,AE,VISION-NSCLC-SITE001-0046,2,AE2,FATIGUE,Fatigue,,Fatigue,10016256,Asthenic conditions,10003550,General system disorders NEC,10060892,General disorders and administration site conditions,10018065,General disorders and administration site conditions,10018065,MILD,N,DOSE NOT CHANGED,NOT RELATED,RECOVERED/RESOLVED,N,N,N,N,N,N,TREATMENT,2024-04-27,2024-05-08,30,41,
VISION-NSCLC,AE,VISION-NSCLC-SITE001-0046,3,AE3,NAUSEA,Nausea,,Nausea,10028813,Nausea and vomiting symptoms,10028817,Gastrointestinal signs and symptoms,10017999,Gastrointestinal disorders,10017947,Gastrointestinal disorders,10017947,MILD,N,DOSE NOT CHANGED,NOT RELATED,RECOVERED/RESOLVED,N,N,N,N,N,N,TREATMENT,2024-05-12,2024-05-14,45,47,
VISION-NSCLC,AE,VISION-NSCLC-SITE001-0046,4,AE4,DYSPNOEA,Dyspnoea,,Dyspnoea,10013968,Breathing abnormalities,10006486,Respiratory tract signs and symptoms,10038734,"Respiratory, thoracic and mediastinal disorders",10038738,"Respiratory, thoracic and mediastinal disorders",10038738,MODERATE,N,DOSE NOT CHANGED,NOT RELATED,RECOVERED/RESOLVED,N,N,N,N,N,N,TREATMENT,2024-05-20,2024-06-05,53,69,
VISION-NSCLC,AE,VISION-NSCLC-SITE001-0046,5,AE5,BLOOD CREATININE INCREASED,Blood creatinine increased,,Blood creatinine increased,10005483,Renal function analyses,10038432,Renal and urinary tract investigations and urinalyses,10062225,Investigations,10022891,Investigations,10022891,MILD,N,DOSE NOT CHANGED,PROBABLY RELATED,RECOVERED/RESOLVED,N,N,N,N,N,N,TREATMENT,2024-05-24,2024-06-06,57,70,
VISION-NSCLC,AE,VISION-NSCLC-SITE001-0046,6,AE6,VOMITING,Vomiting,,Vomiting,10047700,Nausea and vomiting symptoms,10028817,Gastrointestinal signs and symptoms,10017999,Gastrointestinal disorders,10017947,Gastrointestinal disorders,10017947,MODERATE,N,DRUG INTERRUPTED,POSSIBLY RELATED,RECOVERED/RESOLVED,N,N,N,N,N,N,TREATMENT,2024-06-11,2024-06-15,75,79,
VISION-NSCLC,AE,VISION-NSCLC-SITE001-0046,7,AE7,OEDEMA PERIPHERAL,Oedema peripheral,,Oedema peripheral,10030124,Oedema NEC,10030095,Oedema NEC,10064690,General disorders and administration site conditions,10018065,General disorders and administration site conditions,10018065,MODERATE,N,DOSE NOT CHANGED,UNLIKELY RELATED,RECOVERING/RESOLVING,N,N,N,N,N,N,TREATMENT,2024-06-29,2024-07-23,93,117,
VISION-NSCLC,AE,VISION-NSCLC-SITE001-0046,8,AE8,FATIGUE,Fatigue,,Fatigue,10016256,Asthenic conditions,10003550,General system disorders NEC,10060892,General disorders and administration site conditions,10018065,General disorders and administration site conditions,10018065,MILD,N,DOSE REDUCED,POSSIBLY RELATED,RECOVERED/RESOLVED,N,N,N,N,N,N,TREATMENT,2024-07-08,2024-07-15,102,109,
VISION-NSCLC,AE,VISION-NSCLC-SITE001-0046,9,AE9,DECREASED APPETITE,Decreased appetite,,Decreased appetite,10061428,Appetite disorders,10003052,Eating disorders and disturbances,10061427,Metabolism and nutrition disorders,10027433,Metabolism and nutrition disorders,10027433,MODERATE,N,DOSE NOT CHANGED,POSSIBLY RELATED,RECOVERING/RESOLVING,N,N,N,N,N,N,TREATMENT,2024-07-31,2024-08-23,125,148,
VISION-NSCLC,AE,VISION-NSCLC-SITE001-0046,10,AE10,ASPARTATE AMINOTRANSFERASE INCREASED,Aspartate aminotransferase increased,,Aspartate aminotransferase increased,10003481,Liver function analyses,10024689,Hepatobiliary investigations,10019843,Investigations,10022891,Investigations,10022891,MILD,N,DOSE NOT CHANGED,UNLIKELY RELATED,RECOVERING/RESOLVING,N,N,N,N,N,N,TREATMENT,2024-08-18,2024-09-02,143,158,
VISION-NSCLC,AE,VISION-NSCLC-SITE001-0049,1,AE1,ALANINE AMINOTRANSFERASE INCREASED,Alanine aminotransferase increased,,Alanine aminotransferase increased,10001551,Liver function analyses,10024689,Hepatobiliary investigations,10019843,Investigations,10022891,Investigations,10022891,MILD,N,DOSE NOT CHANGED,UNLIKELY RELATED,RECOVERED/RESOLVED,N,N,N,N,N,N,TREATMENT,2024-04-17,2024-05-01,43,57,
VISION-NSCLC,AE,VISION-NSCLC-SITE001-0052,1,AE1,NAUSEA,Nausea,,Nausea,10028813,Nausea and vomiting symptoms,10028817,Gastrointestinal signs and symptoms,10017999,Gastrointestinal disorders,10017947,Gastrointestinal disorders,10017947,SEVERE,Y,DOSE NOT CHANGED,UNLIKELY RELATED,UNKNOWN,N,N,N,N,N,Y,TREATMENT,2024-03-31,2024-04-14,30,44,
VISION-NSCLC,AE,VISION-NSCLC-SITE001-0052,2,AE2,OEDEMA PERIPHERAL,Oedema peripheral,,Oedema peripheral,10030124,Oedema NEC,10030095,Oedema NEC,10064690,General disorders and administration site conditions,10018065,General disorders and administration site conditions,10018065,MODERATE,N,DOSE NOT CHANGED,POSSIBLY RELATED,UNKNOWN,N,N,N,N,N,N,TREATMENT,2024-06-27,2024-07-03,118,124,
VISION-NSCLC,AE,VISION-NSCLC-SITE001-0052,3,AE3,NAUSEA,Nausea,,Nausea,10028813,Nausea and vomiting symptoms,10028817,Gastrointestinal signs and symptoms,10017999,Gastrointestinal disorders,10017947,Gastrointestinal disorders,10017947,MILD,N,DOSE NOT CHANGED,UNLIKELY RELATED,RECOVERED/RESOLVED,N,N,N,N,N,N,TREATMENT,2024-07-13,2024-07-14,134,135,
VISION-NSCLC,AE,VISION-NSCLC-SITE001-0055,1,AE1,NAUSEA,Nausea,,Nausea,10028813,Nausea and vomiting symptoms,10028817,Gastrointestinal signs and symptoms,10017999,Gastrointestinal disorders,10017947,Gastrointestinal disorders,10017947,MILD,N,DOSE NOT CHANGED,UNLIKELY RELATED,RECOVERING/RESOLVING,N,N,N,N,N,N,TREATMENT,2024-02-28,2024-03-01,3,5,
VISION-NSCLC,AE,VISION-NSCLC-SITE001-0055,2,AE2,OEDEMA PERIPHERAL,Oedema peripheral,,Oedema peripheral,10030124,Oedema NEC,10030095,Oedema NEC,10064690,General disorders and administration site conditions,10018065,General disorders and administration site conditions,10018065,MILD,N,DOSE NOT CHANGED,POSSIBLY RELATED,RECOVERED/RESOLVED,N,N,N,N,N,N,TREATMENT,2024-04-15,2024-04-26,50,61,
VISION-NSCLC,AE,VISION-NSCLC-SITE001-0055,3,AE3,VOMITING,Vomiting,,Vomiting,10047700,Nausea and vomiting symptoms,10028817,Gastrointestinal signs and symptoms,10017999,Gastrointestinal disorders,10017947,Gastrointestinal disorders,10017947,MODERATE,N,DOSE NOT CHANGED,POSSIBLY RELATED,RECOVERED/RESOLVED,N,N,N,N,N,N,TREATMENT,2024-04-20,2024-04-25,55,60,
VISION-NSCLC,AE,VISION-NSCLC-SITE001-0055,4,AE4,OEDEMA PERIPHERAL,Oedema peripheral,,Oedema peripheral,10030124,Oedema NEC,10030095,Oedema NEC,10064690,General disorders and administration site conditions,10018065,General disorders and administration site conditions,10018065,MODERATE,N,DOSE NOT CHANGED,NOT RELATED,RECOVERED/RESOLVED,N,N,N,N,N,N,TREATMENT,2024-05-02,2024-05-08,67,73,
VISION-NSCLC,AE,VISION-NSCLC-SITE001-0055,5,AE5,OEDEMA PERIPHERAL,Oedema peripheral,,Oedema peripheral,10030124,Oedema NEC,10030095,Oedema NEC,10064690,General disorders and administration site conditions,10018065,General disorders and administration site conditions,10018065,MILD,N,DOSE NOT CHANGED,POSSIBLY RELATED,RECOVERED/RESOLVED,N,N,N,N,N,N,TREATMENT,2024-05-03,2024-05-09,68,74,
VISION-NSCLC,AE,VISION-NSCLC-SITE001-0055,6,AE6,OEDEMA PERIPHERAL,Oedema peripheral,,Oedema peripheral,10030124,Oedema NEC,10030095,Oedema NEC,10064690,General disorders and administration site conditions,10018065,General disorders and administration site conditions,10018065,SEVERE,Y,DOSE NOT CHANGED,UNLIKELY RELATED,RECOVERED/RESOLVED,N,N,N,Y,N,N,TREATMENT,2024-06-19,2024-08-01,115,158,
VISION-NSCLC,AE,VISION-NSCLC-SITE001-0055,7,AE7,DECREASED APPETITE,Decreased appetite,,Decreased appetite,10061428,Appetite disorders,10003052,Eating disorders and disturbances,10061427,Metabolism and nutrition disorders,10027433,Metabolism and nutrition disorders,10027433,MODERATE,N,DOSE NOT CHANGED,POSSIBLY RELATED,RECOVERED/RESOLVED,N,N,N,N,N,N,TREATMENT,2024-07-23,2024-08-08,149,165,
VISION-NSCLC,AE,VISION-NSCLC-SITE001-0055,8,AE8,FATIGUE,Fatigue,,Fatigue,10016256,Asthenic conditions,10003550,General system disorders NEC,10060892,General disorders and administration site conditions,10018065,General disorders and administration site conditions,10018065,SEVERE,Y,DRUG INTERRUPTED,POSSIBLY RELATED,RECOVERING/RESOLVING,N,N,N,Y,N,N,TREATMENT,2024-07-31,2024-09-02,157,190,
VISION-NSCLC,AE,VISION-NSCLC-SITE001-0058,1,AE1,NAUSEA,Nausea,,Nausea,10028813,Nausea and vomiting symptoms,10028817,Gastrointestinal signs and symptoms,10017999,Gastrointestinal disorders,10017947,Gastrointestinal disorders,10017947,SEVERE,Y,DOSE NOT CHANGED,NOT RELATED,UNKNOWN,N,N,N,N,N,Y,TREATMENT,2024-05-08,2024-05-14,35,41,
VISION-NSCLC,AE,VISION-NSCLC-SITE001-0058,2,AE2,OEDEMA PERIPHERAL,Oedema peripheral,,Oedema peripheral,10030124,Oedema NEC,10030095,Oedema NEC,10064690,General disorders and administration site conditions,10018065,General disorders and administration site conditions,10018065,MILD,N,DOSE NOT CHANGED,RELATED,NOT RECOVERED/NOT RESOLVED,N,N,N,N,N,N,TREATMENT,2024-05-28,,55,,DURING/AFTER
VISION-NSCLC,AE,VISION-NSCLC-SITE001-0058,3,AE3,BLOOD CREATININE INCREASED,Blood creatinine increased,,Blood creatinine increased,10005483,Renal function analyses,10038432,Renal and urinary tract investigations and urinalyses,10062225,Investigations,10022891,Investigations,10022891,MODERATE,N,DOSE NOT CHANGED,UNLIKELY RELATED,RECOVERED/RESOLVED,N,N,N,N,N,N,TREATMENT,2024-07-09,2024-07-14,97,102,
VISION-NSCLC,AE,VISION-NSCLC-SITE001-0058,4,AE4,PLEURAL EFFUSION,Pleural effusion,,Pleural effusion,10035598,Pleural conditions and effusions NEC,10035599,Respiratory disorders NEC,10063479,"Respiratory, thoracic and mediastinal disorders",10038738,"Respiratory, thoracic and mediastinal disorders",10038738,MILD,N,DOSE NOT CHANGED,RELATED,RECOVERED/RESOLVED,N,N,N,N,N,N,TREATMENT,2024-07-20,2024-07-26,108,114,
VISION-NSCLC,AE,VISION-NSCLC-SITE001-0058,5,AE5,OEDEMA PERIPHERAL,Oedema peripheral,,Oedema peripheral,10030124,Oedema NEC,10030095,Oedema NEC,10064690,General disorders and administration site conditions,10018065,General disorders and administration site conditions,10018065,MILD,N,DOSE NOT CHANGED,UNLIKELY RELATED,RECOVERED/RESOLVED,N,N,N,N,N,N,TREATMENT,2024-08-30,2024-09-13,149,163,
VISION-NSCLC,AE,VISION-NSCLC-SITE001-0061,1,AE1,NAUSEA,Nausea,,Nausea,10028813,Nausea and vomiting symptoms,10028817,Gastrointestinal signs and symptoms,10017999,Gastrointestinal disorders,10017947,Gastrointestinal disorders,10017947,MODERATE,N,DOSE NOT CHANGED,NOT RELATED,RECOVERED/RESOLVED,N,N,N,N,N,N,TREATMENT,2024-03-31,2024-04-03,7,10,
VISION-NSCLC,AE,VISION-NSCLC-SITE001-0061,2,AE2,HYPOALBUMINAEMIA,Hypoalbuminaemia,,Hypoalbuminaemia,10020944,Protein metabolism disorders,10060816,Protein and amino acid metabolism disorders,10067088,Metabolism and nutrition disorders,10027433,Metabolism and nutrition disorders,10027433,SEVERE,Y,DRUG INTERRUPTED,PROBABLY RELATED,RECOVERED/RESOLVED,N,N,N,Y,N,N,TREATMENT,2024-03-31,2024-05-13,7,50,
VISION-NSCLC,AE,VISION-NSCLC-SITE001-0061,3,AE3,HYPOALBUMINAEMIA,Hypoalbuminaemia,,Hypoalbuminaemia,10020944,Protein metabolism disorders,10060816,Protein and amino acid metabolism disorders,10067088,Metabolism and nutrition disorders,10027433,Metabolism and nutrition disorders,10027433,MILD,N,DOSE NOT CHANGED,NOT RELATED,RECOVERING/RESOLVING,N,N,N,N,N,N,TREATMENT,2024-04-03,2024-04-12,10,19,
VISION-NSCLC,AE,VISION-NSCLC-SITE001-0061,4,AE4,PLEURAL EFFUSION,Pleural effusion,,Pleural effusion,10035598,Pleural conditions and effusions NEC,10035599,Respiratory disorders NEC,10063479,"Respiratory, thoracic and mediastinal disorders",10038738,"Respiratory, thoracic and mediastinal disorders",10038738,MILD,N,DOSE NOT CHANGED,POSSIBLY RELATED,RECOVERING/RESOLVING,N,N,N,N,N,N,TREATMENT,2024-04-03,2024-04-06,10,13,
VISION-NSCLC,AE,VISION-NSCLC-SITE001-0061,5,AE5,FATIGUE,Fatigue,,Fatigue,10016256,Asthenic conditions,10003550,General system disorders NEC,10060892,General disorders and administration site conditions,10018065,General disorders and administration site conditions,10018065,MODERATE,N,DRUG INTERRUPTED,POSSIBLY RELATED,RECOVERING/RESOLVING,N,N,N,N,N,N,TREATMENT,2024-04-26,2024-05-11,33,48,
VISION-NSCLC,AE,VISION-NSCLC-SITE001-0061,6,AE6,OEDEMA PERIPHERAL,Oedema peripheral,,Oedema peripheral,10030124,Oedema NEC,10030095,Oedema NEC,10064690,General disorders and administration site conditions,10018065,General disorders and administration site conditions,10018065,MODERATE,N,DOSE NOT CHANGED,UNLIKELY RELATED,RECOVERED/RESOLVED,N,N,N,N,N,N,TREATMENT,2024-05-09,2024-06-06,46,74,
VISION-NSCLC,AE,VISION-NSCLC-SITE001-0061,7,AE7,HYPOALBUMINAEMIA,Hypoalbuminaemia,,Hypoalbuminaemia,10020944,Protein metabolism disorders,10060816,Protein and amino acid metabolism disorders,10067088,Metabolism and nutrition disorders,10027433,Metabolism and nutrition disorders,10027433,MODERATE,N,DOSE NOT CHANGED,NOT RELATED,RECOVERED/RESOLVED,N,N,N,N,N,N,TREATMENT,2024-05-20,2024-05-23,57,60,
VISION-NSCLC,AE,VISION-NSCLC-SITE001-0061,8,AE8,DIARRHOEA,Diarrhoea,,Diarrhoea,10012735,Diarrhoea (excl infective),10012736,Gastrointestinal motility and defaecation conditions,10017983,Gastrointestinal disorders,10017947,Gastrointestinal disorders,10017947,MODERATE,N,DOSE NOT CHANGED,NOT RELATED,RECOVERED/RESOLVED,N,N,N,N,N,N,TREATMENT,2024-05-22,2024-05-28,59,65,
VISION-NSCLC,AE,VISION-NSCLC-SITE001-0061,9,AE9,VOMITING,Vomiting,,Vomiting,10047700,Nausea and vomiting symptoms,10028817,Gastrointestinal signs and symptoms,10017999,Gastrointestinal disorders,10017947,Gastrointestinal disorders,10017947,SEVERE,Y,DOSE NOT CHANGED,NOT RELATED,RECOVERED/RESOLVED,N,N,N,N,N,Y,TREATMENT,2024-06-04,2024-06-13,72,81,
VISION-NSCLC,AE,VISION-NSCLC-SITE001-0061,10,AE10,ALANINE AMINOTRANSFERASE INCREASED,Alanine aminotransferase increased,,Alanine aminotransferase increased,10001551,Liver function analyses,10024689,Hepatobiliary investigations,10019843,Investigations,10022891,Investigations,10022891,MILD,N,DOSE NOT CHANGED,PROBABLY RELATED,RECOVERED/RESOLVED,N,N,N,N,N,N,TREATMENT,2024-06-05,2024-06-15,73,83,
VISION-NSCLC,AE,VISION-NSCLC-SITE001-0061,11,AE11,OEDEMA PERIPHERAL,Oedema peripheral,,Oedema peripheral,10030124,Oedema NEC,10030095,Oedema NEC,10064690,General disorders and administration site conditions,10018065,General disorders and administration site conditions,10018065,MILD,N,DOSE NOT CHANGED,PROBABLY RELATED,RECOVERED/RESOLVED,N,N,N,N,N,N,TREATMENT,2024-06-19,2024-06-27,87,95,
VISION-NSCLC,AE,VISION-NSCLC-SITE001-0061,12,AE12,DECREASED APPETITE,Decreased appetite,,Decreased appetite,10061428,Appetite disorders,10003052,Eating disorders and disturbances,10061427,Metabolism and nutrition disorders,10027433,Metabolism and nutrition disorders,10027433,MILD,N,DOSE NOT CHANGED,POSSIBLY RELATED,RECOVERED/RESOLVED,N,N,N,N,N,N,TREATMENT,2024-07-21,2024-08-04,119,133,
VISION-NSCLC,AE,VISION-NSCLC-SITE001-0061,13,AE13,BLOOD CREATININE INCREASED,Blood creatinine increased,,Blood creatinine increased,10005483,Renal function analyses,10038432,Renal and urinary tract investigations and urinalyses,10062225,Investigations,10022891,Investigations,10022891,MILD,N,DOSE NOT CHANGED,UNLIKELY RELATED,RECOVERED/RESOLVED,N,N,N,N,N,N,TREATMENT,2024-07-25,2024-08-04,123,133,
VISION-NSCLC,AE,VISION-NSCLC-SITE001-0061,14,AE14,OEDEMA PERIPHERAL,Oedema peripheral,,Oedema peripheral,10030124,Oedema NEC,10030095,Oedema NEC,10064690,General disorders and administration site conditions,10018065,General disorders and administration site conditions,10018065,MODERATE,N,DOSE NOT CHANGED,UNLIKELY RELATED,RECOVERED/RESOLVED,N,N,N,N,N,N,TREATMENT,2024-08-26,2024-09-14,155,174,
VISION-NSCLC,AE,VISION-NSCLC-SITE001-0061,15,AE15,FATIGUE,Fatigue,,Fatigue,10016256,Asthenic conditions,10003550,General system disorders NEC,10060892,General disorders and administration site conditions,10018065,General disorders and administration site conditions,10018065,MILD,N,DOSE REDUCED,POSSIBLY RELATED,RECOVERED/RESOLVED,N,N,N,N,N,N,TREATMENT,2024-09-01,2024-09-16,161,176,
VISION-NSCLC,AE,VISION-NSCLC-SITE001-0067,1,AE1,NAUSEA,Nausea,,Nausea,10028813,Nausea and vomiting symptoms,10028817,Gastrointestinal signs and symptoms,10017999,Gastrointestinal disorders,10017947,Gastrointestinal disorders,10017947,SEVERE,Y,DOSE NOT CHANGED,NOT RELATED,RECOVERED/RESOLVED,N,N,N,Y,N,N,TREATMENT,2024-05-14,2024-05-23,21,30,
VISION-NSCLC,AE,VISION-NSCLC-SITE001-0067,2,AE2,DIARRHOEA,Diarrhoea,,Diarrhoea,10012735,Diarrhoea (excl infective),10012736,Gastrointestinal motility and defaecation conditions,10017983,Gastrointestinal disorders,10017947,Gastrointestinal disorders,10017947,MODERATE,N,DOSE REDUCED,POSSIBLY RELATED,NOT RECOVERED/NOT RESOLVED,N,N,N,N,N,N,TREATMENT,2024-06-12,,50,,DURING/AFTER
VISION-NSCLC,AE,VISION-NSCLC-SITE001-0067,3,AE3,FATIGUE,Fatigue,,Fatigue,10016256,Asthenic conditions,10003550,General system disorders NEC,10060892,General disorders and administration site conditions,10018065,General disorders and administration site conditions,10018065,MILD,N,DOSE REDUCED,POSSIBLY RELATED,RECOVERED/RESOLVED,N,N,N,N,N,N,TREATMENT,2024-06-25,2024-06-30,63,68,
VISION-NSCLC,AE,VISION-NSCLC-SITE001-0067,4,AE4,DIARRHOEA,Diarrhoea,,Diarrhoea,10012735,Diarrhoea (excl infective),10012736,Gastrointestinal motility and defaecation conditions,10017983,Gastrointestinal disorders,10017947,Gastrointestinal disorders,10017947,MILD,N,DOSE NOT CHANGED,POSSIBLY RELATED,RECOVERED/RESOLVED,N,N,N,N,N,N,TREATMENT,2024-08-17,2024-08-20,116,119,
VISION-NSCLC,AE,VISION-NSCLC-SITE001-0067,5,AE5,NAUSEA,Nausea,,Nausea,10028813,Nausea and vomiting symptoms,10028817,Gastrointestinal signs and symptoms,10017999,Gastrointestinal disorders,10017947,Gastrointestinal disorders,10017947,MILD,N,DOSE NOT CHANGED,NOT RELATED,RECOVERED/RESOLVED,N,N,N,N,N,N,TREATMENT,2024-08-23,2024-08-24,122,123,
VISION-NSCLC,AE,VISION-NSCLC-SITE001-0067,6,AE6,OEDEMA PERIPHERAL,Oedema peripheral,,Oedema peripheral,10030124,Oedema NEC,10030095,Oedema NEC,10064690,General disorders and administration site conditions,10018065,General disorders and administration site conditions,10018065,MILD,N,DOSE NOT CHANGED,NOT RELATED,RECOVERED/RESOLVED,N,N,N,N,N,N,TREATMENT,2024-08-25,2024-09-06,124,136,
VISION-NSCLC,AE,VISION-NSCLC-SITE001-0067,7,AE7,DIARRHOEA,Diarrhoea,,Diarrhoea,10012735,Diarrhoea (excl infective),10012736,Gastrointestinal motility and defaecation conditions,10017983,Gastrointestinal disorders,10017947,Gastrointestinal disorders,10017947,MILD,N,DOSE NOT CHANGED,NOT RELATED,NOT RECOVERED/NOT RESOLVED,N,N,N,N,N,N,TREATMENT,2024-10-05,,165,,DURING/AFTER
VISION-NSCLC,AE,VISION-NSCLC-SITE001-0070,1,AE1,HYPOALBUMINAEMIA,Hypoalbuminaemia,,Hypoalbuminaemia,10020944,Protein metabolism disorders,10060816,Protein and amino acid metabolism disorders,10067088,Metabolism and nutrition disorders,10027433,Metabolism and nutrition disorders,10027433,MODERATE,N,DOSE NOT CHANGED,PROBABLY RELATED,RECOVERING/RESOLVING,N,N,N,N,N,N,TREATMENT,2024-02-07,2024-02-15,10,18,
VISION-NSCLC,AE,VISION-NSCLC-SITE001-0070,2,AE2,FATIGUE,Fatigue,,Fatigue,10016256,Asthenic conditions,10003550,General system disorders NEC,10060892,General disorders and administration site conditions,10018065,General disorders and administration site conditions,10018065,MODERATE,N,DOSE NOT CHANGED,POSSIBLY RELATED,RECOVERED/RESOLVED,N,N,N,N,N,N,TREATMENT,2024-03-07,2024-03-20,39,52,
VISION-NSCLC,AE,VISION-NSCLC-SITE001-0070,3,AE3,OEDEMA PERIPHERAL,Oedema peripheral,,Oedema peripheral,10030124,Oedema NEC,10030095,Oedema NEC,10064690,General disorders and administration site conditions,10018065,General disorders and administration site conditions,10018065,MODERATE,N,DOSE NOT CHANGED,NOT RELATED,RECOVERED/RESOLVED,N,N,N,N,N,N,TREATMENT,2024-03-17,2024-04-15,49,78,
VISION-NSCLC,AE,VISION-NSCLC-SITE001-0070,4,AE4,DIARRHOEA,Diarrhoea,,Diarrhoea,10012735,Diarrhoea (excl infective),10012736,Gastrointestinal motility and defaecation conditions,10017983,Gastrointestinal disorders,10017947,Gastrointestinal disorders,10017947,MILD,N,DOSE NOT CHANGED,PROBABLY RELATED,RECOVERING/RESOLVING,N,N,N,N,N,N,TREATMENT,2024-03-23,2024-03-26,55,58,
VISION-NSCLC,AE,VISION-NSCLC-SITE001-0070,5,AE5,OEDEMA PERIPHERAL,Oedema peripheral,,Oedema peripheral,10030124,Oedema NEC,10030095,Oedema NEC,10064690,General disorders and administration site conditions,10018065,General disorders and administration site conditions,10018065,MODERATE,N,DOSE NOT CHANGED,NOT RELATED,NOT RECOVERED/NOT RESOLVED,N,N,N,N,N,N,TREATMENT,2024-04-12,,75,,DURING/AFTER
VISION-NSCLC,AE,VISION-NSCLC-SITE001-0070,6,AE6,DYSPNOEA,Dyspnoea,,Dyspnoea,10013968,Breathing abnormalities,10006486,Respiratory tract signs and symptoms,10038734,"Respiratory, thoracic and mediastinal disorders",10038738,"Respiratory, thoracic and mediastinal disorders",10038738,MILD,N,DOSE NOT CHANGED,UNLIKELY RELATED,RECOVERED/RESOLVED,N,N,N,N,N,N,TREATMENT,2024-04-23,2024-04-30,86,93,
VISION-NSCLC,AE,VISION-NSCLC-SITE001-0073,1,AE1,NAUSEA,Nausea,,Nausea,10028813,Nausea and vomiting symptoms,10028817,Gastrointestinal signs and symptoms,10017999,Gastrointestinal disorders,10017947,Gastrointestinal disorders,10017947,MILD,N,DOSE REDUCED,POSSIBLY RELATED,RECOVERED/RESOLVED,N,N,N,N,N,N,TREATMENT,2024-02-07,2024-02-09,13,15,
VISION-NSCLC,AE,VISION-NSCLC-SITE001-0073,2,AE2,OEDEMA PERIPHERAL,Oedema peripheral,,Oedema peripheral,10030124,Oedema NEC,10030095,Oedema NEC,10064690,General disorders and administration site conditions,10018065,General disorders and administration site conditions,10018065,SEVERE,Y,DOSE REDUCED,POSSIBLY RELATED,RECOVERED/RESOLVED,N,N,N,N,N,Y,TREATMENT,2024-05-17,2024-05-29,113,125,
VISION-NSCLC,AE,VISION-NSCLC-SITE001-0073,3,AE3,OEDEMA PERIPHERAL,Oedema peripheral,,Oedema peripheral,10030124,Oedema NEC,10030095,Oedema NEC,10064690,General disorders and administration site conditions,10018065,General disorders and administration site conditions,10018065,SEVERE,Y,DOSE NOT CHANGED,NOT RELATED,NOT RECOVERED/NOT RESOLVED,N,N,N,N,N,Y,TREATMENT,2024-06-20,,147,,DURING/AFTER
VISION-NSCLC,AE,VISION-NSCLC-SITE001-0076,1,AE1,OEDEMA PERIPHERAL,Oedema peripheral,,Oedema peripheral,10030124,Oedema NEC,10030095,Oedema NEC,10064690,General disorders and administration site conditions,10018065,General disorders and administration site conditions,10018065,SEVERE,Y,DOSE REDUCED,POSSIBLY RELATED,NOT RECOVERED/NOT RESOLVED,N,N,N,Y,N,N,TREATMENT,2024-05-29,,28,,DURING/AFTER
VISION-NSCLC,AE,VISION-NSCLC-SITE001-0079,1,AE1,NAUSEA,Nausea,,Nausea,10028813,Nausea and vomiting symptoms,10028817,Gastrointestinal signs and symptoms,10017999,Gastrointestinal disorders,10017947,Gastrointestinal disorders,10017947,MODERATE,N,DOSE NOT CHANGED,NOT RELATED,RECOVERED/RESOLVED,N,N,N,N,N,N,TREATMENT,2024-04-03,2024-04-10,16,23,
VISION-NSCLC,AE,VISION-NSCLC-SITE001-0079,2,AE2,VOMITING,Vomiting,,Vomiting,10047700,Nausea and vomiting symptoms,10028817,Gastrointestinal signs and symptoms,10017999,Gastrointestinal disorders,10017947,Gastrointestinal disorders,10017947,MILD,N,DOSE NOT CHANGED,POSSIBLY RELATED,RECOVERING/RESOLVING,N,N,N,N,N,N,TREATMENT,2024-04-06,2024-04-07,19,20,
VISION-NSCLC,AE,VISION-NSCLC-SITE001-0082,1,AE1,HYPOALBUMINAEMIA,Hypoalbuminaemia,,Hypoalbuminaemia,10020944,Protein metabolism disorders,10060816,Protein and amino acid metabolism disorders,10067088,Metabolism and nutrition disorders,10027433,Metabolism and nutrition disorders,10027433,MODERATE,N,DOSE NOT CHANGED,POSSIBLY RELATED,RECOVERING/RESOLVING,N,N,N,N,N,N,TREATMENT,2024-04-16,2024-04-23,52,59,
VISION-NSCLC,AE,VISION-NSCLC-SITE001-0082,2,AE2,OEDEMA PERIPHERAL,Oedema peripheral,,Oedema peripheral,10030124,Oedema NEC,10030095,Oedema NEC,10064690,General disorders and administration site conditions,10018065,General disorders and administration site conditions,10018065,MILD,N,DOSE NOT CHANGED,POSSIBLY RELATED,RECOVERED/RESOLVED,N,N,N,N,N,N,TREATMENT,2024-05-20,2024-06-01,86,98,
VISION-NSCLC,AE,VISION-NSCLC-SITE001-0082,3,AE3,PLEURAL EFFUSION,Pleural effusion,,Pleural effusion,10035598,Pleural conditions and effusions NEC,10035599,Respiratory disorders NEC,10063479,"Respiratory, thoracic and mediastinal disorders",10038738,"Respiratory, thoracic and mediastinal disorders",10038738,MODERATE,N,DOSE NOT CHANGED,NOT RELATED,RECOVERED/RESOLVED,N,N,N,N,N,N,TREATMENT,2024-05-29,2024-06-25,95,122,
VISION-NSCLC,AE,VISION-NSCLC-SITE001-0082,4,AE4,NAUSEA,Nausea,,Nausea,10028813,Nausea and vomiting symptoms,10028817,Gastrointestinal signs and symptoms,10017999,Gastrointestinal disorders,10017947,Gastrointestinal disorders,10017947,MODERATE,N,DOSE REDUCED,POSSIBLY RELATED,RECOVERED/RESOLVED,N,N,N,N,N,N,TREATMENT,2024-06-30,2024-07-04,127,131,
VISION-NSCLC,AE,VISION-NSCLC-SITE001-0085,1,AE1,OEDEMA PERIPHERAL,Oedema peripheral,,Oedema peripheral,10030124,Oedema NEC,10030095,Oedema NEC,10064690,General disorders and administration site conditions,10018065,General disorders and administration site conditions,10018065,SEVERE,Y,DOSE NOT CHANGED,NOT RELATED,RECOVERING/RESOLVING,N,N,N,N,N,Y,TREATMENT,2024-03-12,2024-04-09,14,42,
VISION-NSCLC,AE,VISION-NSCLC-SITE001-0085,2,AE2,FATIGUE,Fatigue,,Fatigue,10016256,Asthenic conditions,10003550,General system disorders NEC,10060892,General disorders and administration site conditions,10018065,General disorders and administration site conditions,10018065,MILD,N,DOSE NOT CHANGED,UNLIKELY RELATED,RECOVERING/RESOLVING,N,N,N,N,N,N,TREATMENT,2024-03-26,2024-04-05,28,38,
VISION-NSCLC,AE,VISION-NSCLC-SITE001-0085,3,AE3,FATIGUE,Fatigue,,Fatigue,10016256,Asthenic conditions,10003550,General system disorders NEC,10060892,General disorders and administration site conditions,10018065,General disorders and administration site conditions,10018065,MILD,N,DOSE NOT CHANGED,UNLIKELY RELATED,RECOVERED/RESOLVED,N,N,N,N,N,N,TREATMENT,2024-04-26,2024-05-09,59,72,
VISION-NSCLC,AE,VISION-NSCLC-SITE001-0085,4,AE4,OEDEMA PERIPHERAL,Oedema peripheral,,Oedema peripheral,10030124,Oedema NEC,10030095,Oedema NEC,10064690,General disorders and administration site conditions,10018065,General disorders and administration site conditions,10018065,MILD,N,DOSE NOT CHANGED,UNLIKELY RELATED,RECOVERED/RESOLVED,N,N,N,N,N,N,TREATMENT,2024-05-28,2024-06-07,91,101,
VISION-NSCLC,AE,VISION-NSCLC-SITE001-0085,5,AE5,OEDEMA PERIPHERAL,Oedema peripheral,,Oedema peripheral,10030124,Oedema NEC,10030095,Oedema NEC,10064690,General disorders and administration site conditions,10018065,General disorders and administration site conditions,10018065,MODERATE,N,DRUG INTERRUPTED,RELATED,RECOVERED/RESOLVED,N,N,N,N,N,N,TREATMENT,2024-06-02,2024-06-23,96,117,
VISION-NSCLC,AE,VISION-NSCLC-SITE001-0085,6,AE6,DECREASED APPETITE,Decreased appetite,,Decreased appetite,10061428,Appetite disorders,10003052,Eating disorders and disturbances,10061427,Metabolism and nutrition disorders,10027433,Metabolism and nutrition disorders,10027433,MODERATE,N,DOSE NOT CHANGED,NOT RELATED,RECOVERED/RESOLVED,N,N,N,N,N,N,TREATMENT,2024-06-28,2024-07-15,122,139,
VISION-NSCLC,AE,VISION-NSCLC-SITE001-0085,7,AE7,HYPOALBUMINAEMIA,Hypoalbuminaemia,,Hypoalbuminaemia,10020944,Protein metabolism disorders,10060816,Protein and amino acid metabolism disorders,10067088,Metabolism and nutrition disorders,10027433,Metabolism and nutrition disorders,10027433,MILD,N,DOSE NOT CHANGED,PROBABLY RELATED,RECOVERED/RESOLVED,N,N,N,N,N,N,TREATMENT,2024-07-20,2024-07-25,144,149,
VISION-NSCLC,AE,VISION-NSCLC-SITE001-0085,8,AE8,NAUSEA,Nausea,,Nausea,10028813,Nausea and vomiting symptoms,10028817,Gastrointestinal signs and symptoms,10017999,Gastrointestinal disorders,10017947,Gastrointestinal disorders,10017947,MILD,N,DOSE NOT CHANGED,NOT RELATED,RECOVERED/RESOLVED,N,N,N,N,N,N,TREATMENT,2024-07-30,2024-08-02,154,157,
VISION-NSCLC,AE,VISION-NSCLC-SITE001-0085,9,AE9,NAUSEA,Nausea,,Nausea,10028813,Nausea and vomiting symptoms,10028817,Gastrointestinal signs and symptoms,10017999,Gastrointestinal disorders,10017947,Gastrointestinal disorders,10017947,MILD,N,DOSE NOT CHANGED,POSSIBLY RELATED,RECOVERED/RESOLVED,N,N,N,N,N,N,TREATMENT,2024-08-04,2024-08-05,159,160,
VISION-NSCLC,AE,VISION-NSCLC-SITE001-0088,1,AE1,DIARRHOEA,Diarrhoea,,Diarrhoea,10012735,Diarrhoea (excl infective),10012736,Gastrointestinal motility and defaecation conditions,10017983,Gastrointestinal disorders,10017947,Gastrointestinal disorders,10017947,MILD,N,DOSE NOT CHANGED,UNLIKELY RELATED,RECOVERED/RESOLVED,N,N,N,N,N,N,TREATMENT,2024-04-04,2024-04-08,37,41,
VISION-NSCLC,AE,VISION-NSCLC-SITE001-0088,2,AE2,NAUSEA,Nausea,,Nausea,10028813,Nausea and vomiting symptoms,10028817,Gastrointestinal signs and symptoms,10017999,Gastrointestinal disorders,10017947,Gastrointestinal disorders,10017947,SEVERE,Y,DOSE NOT CHANGED,NOT RELATED,RECOVERED/RESOLVED,N,N,N,Y,N,N,TREATMENT,2024-05-20,2024-05-30,83,93,
VISION-NSCLC,AE,VISION-NSCLC-SITE001-0088,3,AE3,VOMITING,Vomiting,,Vomiting,10047700,Nausea and vomiting symptoms,10028817,Gastrointestinal signs and symptoms,10017999,Gastrointestinal disorders,10017947,Gastrointestinal disorders,10017947,MODERATE,N,DOSE NOT CHANGED,UNLIKELY RELATED,RECOVERED/RESOLVED,N,N,N,N,N,N,TREATMENT,2024-06-09,2024-06-14,103,108,
VISION-NSCLC,AE,VISION-NSCLC-SITE001-0088,4,AE4,OEDEMA PERIPHERAL,Oedema peripheral,,Oedema peripheral,10030124,Oedema NEC,10030095,Oedema NEC,10064690,General disorders and administration site conditions,10018065,General disorders and administration site conditions,10018065,MODERATE,N,DOSE NOT CHANGED,NOT RELATED,RECOVERED/RESOLVED,N,N,N,N,N,N,TREATMENT,2024-08-06,2024-09-05,161,191,
VISION-NSCLC,AE,VISION-NSCLC-SITE001-0091,1,AE1,OEDEMA PERIPHERAL,Oedema peripheral,,Oedema peripheral,10030124,Oedema NEC,10030095,Oedema NEC,10064690,General disorders and administration site conditions,10018065,General disorders and administration site conditions,10018065,MILD,N,DOSE NOT CHANGED,UNLIKELY RELATED,RECOVERED/RESOLVED,N,N,N,N,N,N,TREATMENT,2024-04-08,2024-04-17,22,31,
VISION-NSCLC,AE,VISION-NSCLC-SITE001-0091,2,AE2,DIARRHOEA,Diarrhoea,,Diarrhoea,10012735,Diarrhoea (excl infective),10012736,Gastrointestinal motility and defaecation conditions,10017983,Gastrointestinal disorders,10017947,Gastrointestinal disorders,10017947,MILD,N,DOSE NOT CHANGED,UNLIKELY RELATED,NOT RECOVERED/NOT RESOLVED,N,N,N,N,N,N,TREATMENT,2024-05-03,,47,,DURING/AFTER
VISION-NSCLC,AE,VISION-NSCLC-SITE001-0091,3,AE3,VOMITING,Vomiting,,Vomiting,10047700,Nausea and vomiting symptoms,10028817,Gastrointestinal signs and symptoms,10017999,Gastrointestinal disorders,10017947,Gastrointestinal disorders,10017947,MILD,N,DOSE NOT CHANGED,NOT RELATED,NOT RECOVERED/NOT RESOLVED,N,N,N,N,N,N,TREATMENT,2024-05-04,,48,,DURING/AFTER
VISION-NSCLC,AE,VISION-NSCLC-SITE001-0091,4,AE4,BLOOD CREATININE INCREASED,Blood creatinine increased,,Blood creatinine increased,10005483,Renal function analyses,10038432,Renal and urinary tract investigations and urinalyses,10062225,Investigations,10022891,Investigations,10022891,MODERATE,N,DOSE NOT CHANGED,POSSIBLY RELATED,RECOVERED/RESOLVED,N,N,N,N,N,N,TREATMENT,2024-06-16,2024-06-27,91,102,
VISION-NSCLC,AE,VISION-NSCLC-SITE001-0091,5,AE5,OEDEMA PERIPHERAL,Oedema peripheral,,Oedema peripheral,10030124,Oedema NEC,10030095,Oedema NEC,10064690,General disorders and administration site conditions,10018065,General disorders and administration site conditions,10018065,MODERATE,N,DOSE NOT CHANGED,NOT RELATED,RECOVERING/RESOLVING,N,N,N,N,N,N,TREATMENT,2024-07-09,2024-07-20,114,125,
VISION-NSCLC,AE,VISION-NSCLC-SITE001-0091,6,AE6,OEDEMA PERIPHERAL,Oedema peripheral,,Oedema peripheral,10030124,Oedema NEC,10030095,Oedema NEC,10064690,General disorders and administration site conditions,10018065,General disorders and administration site conditions,10018065,SEVERE,Y,DRUG INTERRUPTED,POSSIBLY RELATED,NOT RECOVERED/NOT RESOLVED,N,N,N,Y,N,N,TREATMENT,2024-08-25,,161,,DURING/AFTER
VISION-NSCLC,AE,VISION-NSCLC-SITE001-0094,1,AE1,OEDEMA PERIPHERAL,Oedema peripheral,,Oedema peripheral,10030124,Oedema NEC,10030095,Oedema NEC,10064690,General disorders and administration site conditions,10018065,General disorders and administration site conditions,10018065,SEVERE,Y,DOSE NOT CHANGED,NOT RELATED,RECOVERED/RESOLVED,N,N,N,N,N,Y,TREATMENT,2024-04-07,2024-06-06,1,61,
VISION-NSCLC,AE,VISION-NSCLC-SITE001-0094,2,AE2,VOMITING,Vomiting,,Vomiting,10047700,Nausea and vomiting symptoms,10028817,Gastrointestinal signs and symptoms,10017999,Gastrointestinal disorders,10017947,Gastrointestinal disorders,10017947,MILD,N,DOSE NOT CHANGED,NOT RELATED,RECOVERING/RESOLVING,N,N,N,N,N,N,TREATMENT,2024-04-12,2024-04-13,6,7,
VISION-NSCLC,AE,VISION-NSCLC-SITE001-0094,3,AE3,ASPARTATE AMINOTRANSFERASE INCREASED,Aspartate aminotransferase increased,,Aspartate aminotransferase increased,10003481,Liver function analyses,10024689,Hepatobiliary investigations,10019843,Investigations,10022891,Investigations,10022891,MODERATE,N,DOSE NOT CHANGED,POSSIBLY RELATED,RECOVERED/RESOLVED,N,N,N,N,N,N,TREATMENT,2024-05-28,2024-07-15,52,100,
VISION-NSCLC,AE,VISION-NSCLC-SITE001-0094,4,AE4,PLEURAL EFFUSION,Pleural effusion,,Pleural effusion,10035598,Pleural conditions and effusions NEC,10035599,Respiratory disorders NEC,10063479,"Respiratory, thoracic and mediastinal disorders",10038738,"Respiratory, thoracic and mediastinal disorders",10038738,SEVERE,Y,DOSE NOT CHANGED,NOT RELATED,NOT RECOVERED/NOT RESOLVED,N,N,N,Y,N,N,TREATMENT,2024-06-01,,56,,DURING/AFTER
VISION-NSCLC,AE,VISION-NSCLC-SITE001-0094,5,AE5,PLEURAL EFFUSION,Pleural effusion,,Pleural effusion,10035598,Pleural conditions and effusions NEC,10035599,Respiratory disorders NEC,10063479,"Respiratory, thoracic and mediastinal disorders",10038738,"Respiratory, thoracic and mediastinal disorders",10038738,MILD,N,DOSE REDUCED,RELATED,RECOVERED/RESOLVED,N,N,N,N,N,N,TREATMENT,2024-07-01,2024-07-07,86,92,
VISION-NSCLC,AE,VISION-NSCLC-SITE001-0094,6,AE6,OEDEMA PERIPHERAL,Oedema peripheral,,Oedema peripheral,10030124,Oedema NEC,10030095,Oedema NEC,10064690,General disorders and administration site conditions,10018065,General disorders and administration site conditions,10018065,MODERATE,N,DOSE NOT CHANGED,UNLIKELY RELATED,RECOVERED/RESOLVED,N,N,N,N,N,N,TREATMENT,2024-08-13,2024-08-15,129,131,
VISION-NSCLC,AE,VISION-NSCLC-SITE001-0094,7,AE7,PLEURAL EFFUSION,Pleural effusion,,Pleural effusion,10035598,Pleural conditions and effusions NEC,10035599,Respiratory disorders NEC,10063479,"Respiratory, thoracic and mediastinal disorders",10038738,"Respiratory, thoracic and mediastinal disorders",10038738,MODERATE,N,DOSE REDUCED,RELATED,RECOVERING/RESOLVING,N,N,N,N,N,N,TREATMENT,2024-09-01,2024-09-17,148,164,
VISION-NSCLC,AE,VISION-NSCLC-SITE001-0094,8,AE8,NAUSEA,Nausea,,Nausea,10028813,Nausea and vomiting symptoms,10028817,Gastrointestinal signs and symptoms,10017999,Gastrointestinal disorders,10017947,Gastrointestinal disorders,10017947,MILD,N,DOSE NOT CHANGED,NOT RELATED,RECOVERED/RESOLVED,N,N,N,N,N,N,TREATMENT,2024-09-06,2024-09-07,153,154,
VISION-NSCLC,AE,VISION-NSCLC-SITE001-0100,1,AE1,OEDEMA PERIPHERAL,Oedema peripheral,,Oedema peripheral,10030124,Oedema NEC,10030095,Oedema NEC,10064690,General disorders and administration site conditions,10018065,General disorders and administration site conditions,10018065,SEVERE,Y,DRUG WITHDRAWN,POSSIBLY RELATED,NOT RECOVERED/NOT RESOLVED,N,N,N,N,N,Y,TREATMENT,2024-07-06,,64,,DURING/AFTER
VISION-NSCLC,AE,VISION-NSCLC-SITE001-0103,1,AE1,OEDEMA PERIPHERAL,Oedema peripheral,,Oedema peripheral,10030124,Oedema NEC,10030095,Oedema NEC,10064690,General disorders and administration site conditions,10018065,General disorders and administration site conditions,10018065,MILD,N,DOSE NOT CHANGED,POSSIBLY RELATED,RECOVERED/RESOLVED,N,N,N,N,N,N,TREATMENT,2024-04-24,2024-04-25,1,2,
VISION-NSCLC,AE,VISION-NSCLC-SITE001-0103,2,AE2,VOMITING,Vomiting,,Vomiting,10047700,Nausea and vomiting symptoms,10028817,Gastrointestinal signs and symptoms,10017999,Gastrointestinal disorders,10017947,Gastrointestinal disorders,10017947,MILD,N,DOSE NOT CHANGED,NOT RELATED,RECOVERED/RESOLVED,N,N,N,N,N,N,TREATMENT,2024-05-11,2024-05-12,18,19,
VISION-NSCLC,AE,VISION-NSCLC-SITE001-0103,3,AE3,NAUSEA,Nausea,,Nausea,10028813,Nausea and vomiting symptoms,10028817,Gastrointestinal signs and symptoms,10017999,Gastrointestinal disorders,10017947,Gastrointestinal disorders,10017947,MILD,N,DOSE NOT CHANGED,UNLIKELY RELATED,RECOVERING/RESOLVING,N,N,N,N,N,N,TREATMENT,2024-05-26,2024-05-28,33,35,
VISION-NSCLC,AE,VISION-NSCLC-SITE001-0103,4,AE4,HYPOALBUMINAEMIA,Hypoalbuminaemia,,Hypoalbuminaemia,10020944,Protein metabolism disorders,10060816,Protein and amino acid metabolism disorders,10067088,Metabolism and nutrition disorders,10027433,Metabolism and nutrition disorders,10027433,SEVERE,Y,DRUG INTERRUPTED,POSSIBLY RELATED,RECOVERING/RESOLVING,N,N,N,Y,N,N,TREATMENT,2024-06-02,2024-06-11,40,49,
VISION-NSCLC,AE,VISION-NSCLC-SITE001-0103,5,AE5,HYPOALBUMINAEMIA,Hypoalbuminaemia,,Hypoalbuminaemia,10020944,Protein metabolism disorders,10060816,Protein and amino acid metabolism disorders,10067088,Metabolism and nutrition disorders,10027433,Metabolism and nutrition disorders,10027433,MILD,N,DOSE NOT CHANGED,NOT RELATED,RECOVERED/RESOLVED,N,N,N,N,N,N,TREATMENT,2024-06-05,2024-06-12,43,50,
VISION-NSCLC,AE,VISION-NSCLC-SITE001-0103,6,AE6,NAUSEA,Nausea,,Nausea,10028813,Nausea and vomiting symptoms,10028817,Gastrointestinal signs and symptoms,10017999,Gastrointestinal disorders,10017947,Gastrointestinal disorders,10017947,MILD,N,DOSE NOT CHANGED,NOT RELATED,RECOVERED/RESOLVED,N,N,N,N,N,N,TREATMENT,2024-06-20,2024-06-23,58,61,
VISION-NSCLC,AE,VISION-NSCLC-SITE001-0103,7,AE7,HYPOALBUMINAEMIA,Hypoalbuminaemia,,Hypoalbuminaemia,10020944,Protein metabolism disorders,10060816,Protein and amino acid metabolism disorders,10067088,Metabolism and nutrition disorders,10027433,Metabolism and nutrition disorders,10027433,MILD,N,DOSE NOT CHANGED,POSSIBLY RELATED,RECOVERED/RESOLVED,N,N,N,N,N,N,TREATMENT,2024-09-15,2024-09-19,145,149,
VISION-NSCLC,AE,VISION-NSCLC-SITE001-0103,8,AE8,OEDEMA PERIPHERAL,Oedema peripheral,,Oedema peripheral,10030124,Oedema NEC,10030095,Oedema NEC,10064690,General disorders and administration site conditions,10018065,General disorders and administration site conditions,10018065,MILD,N,DOSE REDUCED,POSSIBLY RELATED,NOT RECOVERED/NOT RESOLVED,N,N,N,N,N,N,TREATMENT,2024-09-19,,149,,DURING/AFTER
VISION-NSCLC,AE,VISION-NSCLC-SITE001-0106,1,AE1,OEDEMA PERIPHERAL,Oedema peripheral,,Oedema peripheral,10030124,Oedema NEC,10030095,Oedema NEC,10064690,General disorders and administration site conditions,10018065,General disorders and administration site conditions,10018065,MODERATE,N,DOSE NOT CHANGED,UNLIKELY RELATED,RECOVERING/RESOLVING,N,N,N,N,N,N,TREATMENT,2024-05-31,2024-06-22,43,65,
VISION-NSCLC,AE,VISION-NSCLC-SITE001-0106,2,AE2,OEDEMA PERIPHERAL,Oedema peripheral,,Oedema peripheral,10030124,Oedema NEC,10030095,Oedema NEC,10064690,General disorders and administration site conditions,10018065,General disorders and administration site conditions,10018065,MILD,N,DOSE NOT CHANGED,UNLIKELY RELATED,RECOVERED/RESOLVED,N,N,N,N,N,N,TREATMENT,2024-06-03,2024-06-16,46,59,
VISION-NSCLC,AE,VISION-NSCLC-SITE001-0106,3,AE3,NAUSEA,Nausea,,Nausea,10028813,Nausea and vomiting symptoms,10028817,Gastrointestinal signs and symptoms,10017999,Gastrointestinal disorders,10017947,Gastrointestinal disorders,10017947,MILD,N,DOSE NOT CHANGED,UNLIKELY RELATED,RECOVERED/RESOLVED,N,N,N,N,N,N,TREATMENT,2024-06-09,2024-06-12,52,55,
VISION-NSCLC,AE,VISION-NSCLC-SITE001-0106,4,AE4,OEDEMA PERIPHERAL,Oedema peripheral,,Oedema peripheral,10030124,Oedema NEC,10030095,Oedema NEC,10064690,General disorders and administration site conditions,10018065,General disorders and administration site conditions,10018065,SEVERE,Y,DOSE NOT CHANGED,UNLIKELY RELATED,NOT RECOVERED/NOT RESOLVED,N,N,N,Y,N,N,TREATMENT,2024-09-30,,165,,DURING/AFTER
VISION-NSCLC,AE,VISION-NSCLC-SITE001-0109,1,AE1,NAUSEA,Nausea,,Nausea,10028813,Nausea and vomiting symptoms,10028817,Gastrointestinal signs and symptoms,10017999,Gastrointestinal disorders,10017947,Gastrointestinal disorders,10017947,MODERATE,N,DOSE NOT CHANGED,NOT RELATED,NOT RECOVERED/NOT RESOLVED,N,N,N,N,N,N,TREATMENT,2024-03-24,,34,,DURING/AFTER
VISION-NSCLC,AE,VISION-NSCLC-SITE001-0109,2,AE2,VOMITING,Vomiting,,Vomiting,10047700,Nausea and vomiting symptoms,10028817,Gastrointestinal signs and symptoms,10017999,Gastrointestinal disorders,10017947,Gastrointestinal disorders,10017947,MODERATE,N,DOSE NOT CHANGED,UNLIKELY RELATED,RECOVERED/RESOLVED,N,N,N,N,N,N,TREATMENT,2024-05-26,2024-05-28,97,99,
VISION-NSCLC,AE,VISION-NSCLC-SITE001-0109,3,AE3,DYSPNOEA,Dyspnoea,,Dyspnoea,10013968,Breathing abnormalities,10006486,Respiratory tract signs and symptoms,10038734,"Respiratory, thoracic and mediastinal disorders",10038738,"Respiratory, thoracic and mediastinal disorders",10038738,SEVERE,Y,DOSE NOT CHANGED,UNLIKELY RELATED,RECOVERED/RESOLVED WITH SEQUELAE,N,N,N,N,N,Y,TREATMENT,2024-06-03,2024-08-02,105,165,
VISION-NSCLC,AE,VISION-NSCLC-SITE001-0109,4,AE4,NAUSEA,Nausea,,Nausea,10028813,Nausea and vomiting symptoms,10028817,Gastrointestinal signs and symptoms,10017999,Gastrointestinal disorders,10017947,Gastrointestinal disorders,10017947,MILD,N,DOSE NOT CHANGED,NOT RELATED,RECOVERING/RESOLVING,N,N,N,N,N,N,TREATMENT,2024-06-18,2024-06-21,120,123,
VISION-NSCLC,AE,VISION-NSCLC-SITE001-0109,5,AE5,DECREASED APPETITE,Decreased appetite,,Decreased appetite,10061428,Appetite disorders,10003052,Eating disorders and disturbances,10061427,Metabolism and nutrition disorders,10027433,Metabolism and nutrition disorders,10027433,MODERATE,N,DOSE NOT CHANGED,UNLIKELY RELATED,RECOVERED/RESOLVED,N,N,N,N,N,N,TREATMENT,2024-06-24,2024-07-05,126,137,
VISION-NSCLC,AE,VISION-NSCLC-SITE001-0109,6,AE6,FATIGUE,Fatigue,,Fatigue,10016256,Asthenic conditions,10003550,General system disorders NEC,10060892,General disorders and administration site conditions,10018065,General disorders and administration site conditions,10018065,MODERATE,N,DRUG INTERRUPTED,RELATED,RECOVERED/RESOLVED,N,N,N,N,N,N,TREATMENT,2024-07-20,2024-08-25,152,188,
VISION-NSCLC,AE,VISION-NSCLC-SITE001-0109,7,AE7,DIARRHOEA,Diarrhoea,,Diarrhoea,10012735,Diarrhoea (excl infective),10012736,Gastrointestinal motility and defaecation conditions,10017983,Gastrointestinal disorders,10017947,Gastrointestinal disorders,10017947,MILD,N,DOSE NOT CHANGED,UNLIKELY RELATED,RECOVERING/RESOLVING,N,N,N,N,N,N,TREATMENT,2024-07-23,2024-07-26,155,158,
VISION-NSCLC,AE,VISION-NSCLC-SITE001-0112,1,AE1,OEDEMA PERIPHERAL,Oedema peripheral,,Oedema peripheral,10030124,Oedema NEC,10030095,Oedema NEC,10064690,General disorders and administration site conditions,10018065,General disorders and administration site conditions,10018065,MILD,N,DOSE NOT CHANGED,NOT RELATED,RECOVERED/RESOLVED,N,N,N,N,N,N,TREATMENT,2024-05-09,2024-05-21,7,19,
VISION-NSCLC,AE,VISION-NSCLC-SITE001-0112,2,AE2,DECREASED APPETITE,Decreased appetite,,Decreased appetite,10061428,Appetite disorders,10003052,Eating disorders and disturbances,10061427,Metabolism and nutrition disorders,10027433,Metabolism and nutrition disorders,10027433,MILD,N,DOSE NOT CHANGED,NOT RELATED,RECOVERED/RESOLVED,N,N,N,N,N,N,TREATMENT,2024-06-30,2024-07-04,59,63,
VISION-NSCLC,AE,VISION-NSCLC-SITE001-0112,3,AE3,BLOOD CREATININE INCREASED,Blood creatinine increased,,Blood creatinine increased,10005483,Renal function analyses,10038432,Renal and urinary tract investigations and urinalyses,10062225,Investigations,10022891,Investigations,10022891,MILD,N,DOSE NOT CHANGED,NOT RELATED,RECOVERED/RESOLVED,N,N,N,N,N,N,TREATMENT,2024-07-16,2024-07-17,75,76,
VISION-NSCLC,AE,VISION-NSCLC-SITE001-0112,4,AE4,OEDEMA PERIPHERAL,Oedema peripheral,,Oedema peripheral,10030124,Oedema NEC,10030095,Oedema NEC,10064690,General disorders and administration site conditions,10018065,General disorders and administration site conditions,10018065,MODERATE,N,DOSE NOT CHANGED,UNLIKELY RELATED,RECOVERING/RESOLVING,N,N,N,N,N,N,TREATMENT,2024-07-22,2024-08-04,81,94,
VISION-NSCLC,AE,VISION-NSCLC-SITE001-0112,5,AE5,OEDEMA PERIPHERAL,Oedema peripheral,,Oedema peripheral,10030124,Oedema NEC,10030095,Oedema NEC,10064690,General disorders and administration site conditions,10018065,General disorders and administration site conditions,10018065,MILD,N,DOSE NOT CHANGED,UNLIKELY RELATED,RECOVERED/RESOLVED,N,N,N,N,N,N,TREATMENT,2024-08-05,2024-08-10,95,100,
VISION-NSCLC,AE,VISION-NSCLC-SITE001-0112,6,AE6,VOMITING,Vomiting,,Vomiting,10047700,Nausea and vomiting symptoms,10028817,Gastrointestinal signs and symptoms,10017999,Gastrointestinal disorders,10017947,Gastrointestinal disorders,10017947,SEVERE,Y,DOSE NOT CHANGED,NOT RELATED,RECOVERING/RESOLVING,N,N,N,Y,N,N,TREATMENT,2024-08-10,2024-08-13,100,103,
VISION-NSCLC,AE,VISION-NSCLC-SITE001-0112,7,AE7,OEDEMA PERIPHERAL,Oedema peripheral,,Oedema peripheral,10030124,Oedema NEC,10030095,Oedema NEC,10064690,General disorders and administration site conditions,10018065,General disorders and administration site conditions,10018065,SEVERE,Y,DOSE NOT CHANGED,UNLIKELY RELATED,RECOVERED/RESOLVED,N,N,N,Y,N,N,TREATMENT,2024-08-23,2024-08-25,113,115,
VISION-NSCLC,AE,VISION-NSCLC-SITE001-0112,8,AE8,OEDEMA PERIPHERAL,Oedema peripheral,,Oedema peripheral,10030124,Oedema NEC,10030095,Oedema NEC,10064690,General disorders and administration site conditions,10018065,General disorders and administration site conditions,10018065,MODERATE,N,DRUG INTERRUPTED,POSSIBLY RELATED,RECOVERED/RESOLVED,N,N,N,N,N,N,TREATMENT,2024-09-10,2024-09-14,131,135,
VISION-NSCLC,AE,VISION-NSCLC-SITE001-0112,9,AE9,OEDEMA PERIPHERAL,Oedema peripheral,,Oedema peripheral,10030124,Oedema NEC,10030095,Oedema NEC,10064690,General disorders and administration site conditions,10018065,General disorders and administration site conditions,10018065,MILD,N,DOSE NOT CHANGED,POSSIBLY RELATED,RECOVERED/RESOLVED,N,N,N,N,N,N,TREATMENT,2024-10-06,2024-10-13,157,164,
VISION-NSCLC,AE,VISION-NSCLC-SITE001-0118,1,AE1,DIARRHOEA,Diarrhoea,,Diarrhoea,10012735,Diarrhoea (excl infective),10012736,Gastrointestinal motility and defaecation conditions,10017983,Gastrointestinal disorders,10017947,Gastrointestinal disorders,10017947,MILD,N,DOSE NOT CHANGED,NOT RELATED,RECOVERED/RESOLVED,N,N,N,N,N,N,TREATMENT,2024-02-17,2024-02-21,11,15,
VISION-NSCLC,AE,VISION-NSCLC-SITE001-0118,2,AE2,VOMITING,Vomiting,,Vomiting,10047700,Nausea and vomiting symptoms,10028817,Gastrointestinal signs and symptoms,10017999,Gastrointestinal disorders,10017947,Gastrointestinal disorders,10017947,SEVERE,Y,DRUG INTERRUPTED,POSSIBLY RELATED,RECOVERING/RESOLVING,N,N,N,N,N,Y,TREATMENT,2024-03-10,2024-03-14,33,37,
VISION-NSCLC,AE,VISION-NSCLC-SITE001-0118,3,AE3,DIARRHOEA,Diarrhoea,,Diarrhoea,10012735,Diarrhoea (excl infective),10012736,Gastrointestinal motility and defaecation conditions,10017983,Gastrointestinal disorders,10017947,Gastrointestinal disorders,10017947,MODERATE,N,DOSE NOT CHANGED,POSSIBLY RELATED,RECOVERED/RESOLVED,N,N,N,N,N,N,TREATMENT,2024-03-13,2024-03-18,36,41,
VISION-NSCLC,AE,VISION-NSCLC-SITE001-0118,4,AE4,OEDEMA PERIPHERAL,Oedema peripheral,,Oedema peripheral,10030124,Oedema NEC,10030095,Oedema NEC,10064690,General disorders and administration site conditions,10018065,General disorders and administration site conditions,10018065,MILD,N,DOSE NOT CHANGED,POSSIBLY RELATED,RECOVERED/RESOLVED,N,N,N,N,N,N,TREATMENT,2024-03-17,2024-03-29,40,52,
VISION-NSCLC,AE,VISION-NSCLC-SITE001-0118,5,AE5,DYSPNOEA,Dyspnoea,,Dyspnoea,10013968,Breathing abnormalities,10006486,Respiratory tract signs and symptoms,10038734,"Respiratory, thoracic and mediastinal disorders",10038738,"Respiratory, thoracic and mediastinal disorders",10038738,MODERATE,N,DOSE NOT CHANGED,UNLIKELY RELATED,RECOVERED/RESOLVED,N,N,N,N,N,N,TREATMENT,2024-04-10,2024-05-09,64,93,
VISION-NSCLC,AE,VISION-NSCLC-SITE001-0118,6,AE6,BLOOD CREATININE INCREASED,Blood creatinine increased,,Blood creatinine increased,10005483,Renal function analyses,10038432,Renal and urinary tract investigations and urinalyses,10062225,Investigations,10022891,Investigations,10022891,MODERATE,N,DOSE NOT CHANGED,NOT RELATED,RECOVERED/RESOLVED,N,N,N,N,N,N,TREATMENT,2024-04-28,2024-05-12,82,96,
VISION-NSCLC,AE,VISION-NSCLC-SITE001-0118,7,AE7,VOMITING,Vomiting,,Vomiting,10047700,Nausea and vomiting symptoms,10028817,Gastrointestinal signs and symptoms,10017999,Gastrointestinal disorders,10017947,Gastrointestinal disorders,10017947,MODERATE,N,DOSE NOT CHANGED,POSSIBLY RELATED,RECOVERED/RESOLVED,N,N,N,N,N,N,TREATMENT,2024-04-28,2024-04-30,82,84,
VISION-NSCLC,AE,VISION-NSCLC-SITE001-0118,8,AE8,DIARRHOEA,Diarrhoea,,Diarrhoea,10012735,Diarrhoea (excl infective),10012736,Gastrointestinal motility and defaecation conditions,10017983,Gastrointestinal disorders,10017947,Gastrointestinal disorders,10017947,SEVERE,Y,DOSE REDUCED,POSSIBLY RELATED,RECOVERING/RESOLVING,N,N,N,Y,N,N,TREATMENT,2024-06-30,2024-07-28,145,173,
VISION-NSCLC,AE,VISION-NSCLC-SITE001-0118,9,AE9,OEDEMA PERIPHERAL,Oedema peripheral,,Oedema peripheral,10030124,Oedema NEC,10030095,Oedema NEC,10064690,General disorders and administration site conditions,10018065,General disorders and administration site conditions,10018065,MODERATE,N,DOSE NOT CHANGED,NOT RELATED,RECOVERED/RESOLVED,N,N,N,N,N,N,TREATMENT,2024-07-01,2024-07-24,146,169,
VISION-NSCLC,AE,VISION-NSCLC-SITE001-0118,10,AE10,NAUSEA,Nausea,,Nausea,10028813,Nausea and vomiting symptoms,10028817,Gastrointestinal signs and symptoms,10017999,Gastrointestinal disorders,10017947,Gastrointestinal disorders,10017947,MODERATE,N,DOSE NOT CHANGED,NOT RELATED,RECOVERED/RESOLVED,N,N,N,N,N,N,TREATMENT,2024-07-12,2024-07-19,157,164,
VISION-NSCLC,AE,VISION-NSCLC-SITE001-0118,11,AE11,DECREASED APPETITE,Decreased appetite,,Decreased appetite,10061428,Appetite disorders,10003052,Eating disorders and disturbances,10061427,Metabolism and nutrition disorders,10027433,Metabolism and nutrition disorders,10027433,MODERATE,N,DOSE REDUCED,POSSIBLY RELATED,UNKNOWN,N,N,N,N,N,N,TREATMENT,2024-07-15,2024-07-20,160,165,
VISION-NSCLC,AE,VISION-NSCLC-SITE001-0121,1,AE1,BLOOD CREATININE INCREASED,Blood creatinine increased,,Blood creatinine increased,10005483,Renal function analyses,10038432,Renal and urinary tract investigations and urinalyses,10062225,Investigations,10022891,Investigations,10022891,MILD,N,DOSE NOT CHANGED,RELATED,RECOVERING/RESOLVING,N,N,N,N,N,N,TREATMENT,2024-05-25,2024-06-07,84,97,
VISION-NSCLC,AE,VISION-NSCLC-SITE001-0121,2,AE2,OEDEMA PERIPHERAL,Oedema peripheral,,Oedema peripheral,10030124,Oedema NEC,10030095,Oedema NEC,10064690,General disorders and administration site conditions,10018065,General disorders and administration site conditions,10018065,MODERATE,N,DOSE NOT CHANGED,NOT RELATED,RECOVERED/RESOLVED,N,N,N,N,N,N,TREATMENT,2024-06-11,2024-06-15,101,105,
VISION-NSCLC,AE,VISION-NSCLC-SITE001-0121,3,AE3,NAUSEA,Nausea,,Nausea,10028813,Nausea and vomiting symptoms,10028817,Gastrointestinal signs and symptoms,10017999,Gastrointestinal disorders,10017947,Gastrointestinal disorders,10017947,MILD,N,DOSE NOT CHANGED,POSSIBLY RELATED,RECOVERED/RESOLVED,N,N,N,N,N,N,TREATMENT,2024-06-28,2024-07-01,118,121,
VISION-NSCLC,AE,VISION-NSCLC-SITE001-0124,1,AE1,VOMITING,Vomiting,,Vomiting,10047700,Nausea and vomiting symptoms,10028817,Gastrointestinal signs and symptoms,10017999,Gastrointestinal disorders,10017947,Gastrointestinal disorders,10017947,MODERATE,N,DOSE NOT CHANGED,UNLIKELY RELATED,RECOVERED/RESOLVED,N,N,N,N,N,N,TREATMENT,2024-03-29,2024-04-02,16,20,
VISION-NSCLC,AE,VISION-NSCLC-SITE001-0124,2,AE2,PULMONARY EMBOLISM,Pulmonary embolism,,Pulmonary embolism,10037377,Embolism and thrombosis,10014513,Embolism and thrombosis,10061169,Vascular disorders,10047065,Vascular disorders,10047065,SEVERE,Y,NOT APPLICABLE,UNLIKELY RELATED,FATAL,N,N,Y,N,Y,N,TREATMENT,2024-03-30,2024-04-02,17,20,
VISION-NSCLC,AE,VISION-NSCLC-SITE001-0127,1,AE1,OEDEMA PERIPHERAL,Oedema peripheral,,Oedema peripheral,10030124,Oedema NEC,10030095,Oedema NEC,10064690,General disorders and administration site conditions,10018065,General disorders and administration site conditions,10018065,MODERATE,N,DOSE NOT CHANGED,UNLIKELY RELATED,NOT RECOVERED/NOT RESOLVED,N,N,N,N,N,N,TREATMENT,2024-02-24,,6,,DURING/AFTER
VISION-NSCLC,AE,VISION-NSCLC-SITE001-0127,2,AE2,OEDEMA PERIPHERAL,Oedema peripheral,,Oedema peripheral,10030124,Oedema NEC,10030095,Oedema NEC,10064690,General disorders and administration site conditions,10018065,General disorders and administration site conditions,10018065,MILD,N,DOSE NOT CHANGED,UNLIKELY RELATED,RECOVERING/RESOLVING,N,N,N,N,N,N,TREATMENT,2024-03-02,2024-03-13,13,24,
VISION-NSCLC,AE,VISION-NSCLC-SITE001-0127,3,AE3,DIARRHOEA,Diarrhoea,,Diarrhoea,10012735,Diarrhoea (excl infective),10012736,Gastrointestinal motility and defaecation conditions,10017983,Gastrointestinal disorders,10017947,Gastrointestinal disorders,10017947,SEVERE,Y,DOSE REDUCED,PROBABLY RELATED,RECOVERED/RESOLVED,N,N,N,Y,N,N,TREATMENT,2024-03-20,2024-04-21,31,63,
VISION-NSCLC,AE,VISION-NSCLC-SITE001-0127,4,AE4,DIARRHOEA,Diarrhoea,,Diarrhoea,10012735,Diarrhoea (excl infective),10012736,Gastrointestinal motility and defaecation conditions,10017983,Gastrointestinal disorders,10017947,Gastrointestinal disorders,10017947,MODERATE,N,DOSE REDUCED,PROBABLY RELATED,RECOVERED/RESOLVED,N,N,N,N,N,N,TREATMENT,2024-05-08,2024-05-10,80,82,
VISION-NSCLC,AE,VISION-NSCLC-SITE001-0127,5,AE5,ASPARTATE AMINOTRANSFERASE INCREASED,Aspartate aminotransferase increased,,Aspartate aminotransferase increased,10003481,Liver function analyses,10024689,Hepatobiliary investigations,10019843,Investigations,10022891,Investigations,10022891,MILD,N,DOSE NOT CHANGED,NOT RELATED,RECOVERING/RESOLVING,N,N,N,N,N,N,TREATMENT,2024-05-10,2024-05-24,82,96,
VISION-NSCLC,AE,VISION-NSCLC-SITE001-0127,6,AE6,OEDEMA PERIPHERAL,Oedema peripheral,,Oedema peripheral,10030124,Oedema NEC,10030095,Oedema NEC,10064690,General disorders and administration site conditions,10018065,General disorders and administration site conditions,10018065,MODERATE,N,DOSE NOT CHANGED,NOT RELATED,RECOVERED/RESOLVED,N,N,N,N,N,N,TREATMENT,2024-06-17,2024-06-30,120,133,
VISION-NSCLC,AE,VISION-NSCLC-SITE001-0127,7,AE7,BLOOD CREATININE INCREASED,Blood creatinine increased,,Blood creatinine increased,10005483,Renal function analyses,10038432,Renal and urinary tract investigations and urinalyses,10062225,Investigations,10022891,Investigations,10022891,SEVERE,Y,DOSE NOT CHANGED,UNLIKELY RELATED,NOT RECOVERED/NOT RESOLVED,N,N,N,Y,N,N,TREATMENT,2024-07-05,,138,,DURING/AFTER
VISION-NSCLC,AE,VISION-NSCLC-SITE001-0127,8,AE8,ASPARTATE AMINOTRANSFERASE INCREASED,Aspartate aminotransferase increased,,Aspartate aminotransferase increased,10003481,Liver function analyses,10024689,Hepatobiliary investigations,10019843,Investigations,10022891,Investigations,10022891,MILD,N,DOSE NOT CHANGED,UNLIKELY RELATED,RECOVERED/RESOLVED,N,N,N,N,N,N,TREATMENT,2024-08-03,2024-08-28,167,192,
VISION-NSCLC,AE,VISION-NSCLC-SITE001-0127,9,AE9,DIARRHOEA,Diarrhoea,,Diarrhoea,10012735,Diarrhoea (excl infective),10012736,Gastrointestinal motility and defaecation conditions,10017983,Gastrointestinal disorders,10017947,Gastrointestinal disorders,10017947,MODERATE,N,DOSE NOT CHANGED,NOT RELATED,RECOVERED/RESOLVED,N,N,N,N,N,N,TREATMENT,2024-08-04,2024-08-09,168,173,
VISION-NSCLC,AE,VISION-NSCLC-SITE001-0130,1,AE1,ASPARTATE AMINOTRANSFERASE INCREASED,Aspartate aminotransferase increased,,Aspartate aminotransferase increased,10003481,Liver function analyses,10024689,Hepatobiliary investigations,10019843,Investigations,10022891,Investigations,10022891,MILD,N,DOSE NOT CHANGED,UNLIKELY RELATED,RECOVERING/RESOLVING,N,N,N,N,N,N,TREATMENT,2024-03-04,2024-03-15,14,25,
VISION-NSCLC,AE,VISION-NSCLC-SITE001-0130,2,AE2,NAUSEA,Nausea,,Nausea,10028813,Nausea and vomiting symptoms,10028817,Gastrointestinal signs and symptoms,10017999,Gastrointestinal disorders,10017947,Gastrointestinal disorders,10017947,SEVERE,Y,DRUG WITHDRAWN,RELATED,RECOVERED/RESOLVED,N,N,N,Y,N,N,TREATMENT,2024-03-15,2024-03-15,25,25,
VISION-NSCLC,AE,VISION-NSCLC-SITE001-0133,1,AE1,HYPOALBUMINAEMIA,Hypoalbuminaemia,,Hypoalbuminaemia,10020944,Protein metabolism disorders,10060816,Protein and amino acid metabolism disorders,10067088,Metabolism and nutrition disorders,10027433,Metabolism and nutrition disorders,10027433,SEVERE,Y,DOSE NOT CHANGED,NOT RELATED,RECOVERED/RESOLVED,N,N,N,Y,N,N,TREATMENT,2024-08-17,2024-10-02,154,200,
VISION-NSCLC,AE,VISION-NSCLC-SITE001-0136,1,AE1,OEDEMA PERIPHERAL,Oedema peripheral,,Oedema peripheral,10030124,Oedema NEC,10030095,Oedema NEC,10064690,General disorders and administration site conditions,10018065,General disorders and administration site conditions,10018065,MODERATE,N,DOSE NOT CHANGED,NOT RELATED,RECOVERING/RESOLVING,N,N,N,N,N,N,TREATMENT,2024-05-17,2024-05-29,17,29,
VISION-NSCLC,AE,VISION-NSCLC-SITE001-0136,2,AE2,OEDEMA PERIPHERAL,Oedema peripheral,,Oedema peripheral,10030124,Oedema NEC,10030095,Oedema NEC,10064690,General disorders and administration site conditions,10018065,General disorders and administration site conditions,10018065,MILD,N,DOSE NOT CHANGED,NOT RELATED,RECOVERED/RESOLVED,N,N,N,N,N,N,TREATMENT,2024-06-23,2024-07-01,54,62,
VISION-NSCLC,AE,VISION-NSCLC-SITE001-0136,3,AE3,DYSPNOEA,Dyspnoea,,Dyspnoea,10013968,Breathing abnormalities,10006486,Respiratory tract signs and symptoms,10038734,"Respiratory, thoracic and mediastinal disorders",10038738,"Respiratory, thoracic and mediastinal disorders",10038738,MILD,N,DOSE NOT CHANGED,NOT RELATED,RECOVERED/RESOLVED,N,N,N,N,N,N,TREATMENT,2024-07-01,2024-07-08,62,69,
VISION-NSCLC,AE,VISION-NSCLC-SITE001-0136,4,AE4,NAUSEA,Nausea,,Nausea,10028813,Nausea and vomiting symptoms,10028817,Gastrointestinal signs and symptoms,10017999,Gastrointestinal disorders,10017947,Gastrointestinal disorders,10017947,SEVERE,Y,DOSE NOT CHANGED,NOT RELATED,RECOVERED/RESOLVED,N,N,N,Y,N,N,TREATMENT,2024-08-01,2024-08-05,93,97,
VISION-NSCLC,AE,VISION-NSCLC-SITE001-0136,5,AE5,ALANINE AMINOTRANSFERASE INCREASED,Alanine aminotransferase increased,,Alanine aminotransferase increased,10001551,Liver function analyses,10024689,Hepatobiliary investigations,10019843,Investigations,10022891,Investigations,10022891,MILD,N,DOSE NOT CHANGED,NOT RELATED,RECOVERED/RESOLVED,N,N,N,N,N,N,TREATMENT,2024-08-05,2024-08-17,97,109,
VISION-NSCLC,AE,VISION-NSCLC-SITE001-0136,6,AE6,BLOOD CREATININE INCREASED,Blood creatinine increased,,Blood creatinine increased,10005483,Renal function analyses,10038432,Renal and urinary tract investigations and urinalyses,10062225,Investigations,10022891,Investigations,10022891,MODERATE,N,DOSE REDUCED,PROBABLY RELATED,RECOVERED/RESOLVED WITH SEQUELAE,N,N,N,N,N,N,TREATMENT,2024-08-31,2024-09-17,123,140,
VISION-NSCLC,AE,VISION-NSCLC-SITE001-0136,7,AE7,DYSPNOEA,Dyspnoea,,Dyspnoea,10013968,Breathing abnormalities,10006486,Respiratory tract signs and symptoms,10038734,"Respiratory, thoracic and mediastinal disorders",10038738,"Respiratory, thoracic and mediastinal disorders",10038738,MILD,N,DOSE NOT CHANGED,RELATED,RECOVERED/RESOLVED,N,N,N,N,N,N,TREATMENT,2024-09-07,2024-09-15,130,138,
VISION-NSCLC,AE,VISION-NSCLC-SITE001-0136,8,AE8,VOMITING,Vomiting,,Vomiting,10047700,Nausea and vomiting symptoms,10028817,Gastrointestinal signs and symptoms,10017999,Gastrointestinal disorders,10017947,Gastrointestinal disorders,10017947,MODERATE,N,DOSE REDUCED,PROBABLY RELATED,RECOVERED/RESOLVED,N,N,N,N,N,N,TREATMENT,2024-10-05,2024-10-07,158,160,
VISION-NSCLC,AE,VISION-NSCLC-SITE001-0136,9,AE9,ASPARTATE AMINOTRANSFERASE INCREASED,Aspartate aminotransferase increased,,Aspartate aminotransferase increased,10003481,Liver function analyses,10024689,Hepatobiliary investigations,10019843,Investigations,10022891,Investigations,10022891,MILD,N,DOSE NOT CHANGED,NOT RELATED,RECOVERED/RESOLVED,N,N,N,N,N,N,TREATMENT,2024-10-14,2024-11-07,167,191,
VISION-NSCLC,AE,VISION-NSCLC-SITE001-0139,1,AE1,OEDEMA PERIPHERAL,Oedema peripheral,,Oedema peripheral,10030124,Oedema NEC,10030095,Oedema NEC,10064690,General disorders and administration site conditions,10018065,General disorders and administration site conditions,10018065,MILD,N,DOSE NOT CHANGED,POSSIBLY RELATED,RECOVERED/RESOLVED,N,N,N,N,N,N,TREATMENT,2024-02-13,2024-02-25,5,17,
VISION-NSCLC,AE,VISION-NSCLC-SITE001-0139,2,AE2,HYPOALBUMINAEMIA,Hypoalbuminaemia,,Hypoalbuminaemia,10020944,Protein metabolism disorders,10060816,Protein and amino acid metabolism disorders,10067088,Metabolism and nutrition disorders,10027433,Metabolism and nutrition disorders,10027433,SEVERE,Y,DRUG INTERRUPTED,POSSIBLY RELATED,RECOVERING/RESOLVING,N,N,N,N,N,Y,TREATMENT,2024-03-06,2024-04-13,27,65,
VISION-NSCLC,AE,VISION-NSCLC-SITE001-0139,3,AE3,DECREASED APPETITE,Decreased appetite,,Decreased appetite,10061428,Appetite disorders,10003052,Eating disorders and disturbances,10061427,Metabolism and nutrition disorders,10027433,Metabolism and nutrition disorders,10027433,MODERATE,N,DOSE NOT CHANGED,POSSIBLY RELATED,RECOVERED/RESOLVED,N,N,N,N,N,N,TREATMENT,2024-03-14,2024-03-29,35,50,
VISION-NSCLC,AE,VISION-NSCLC-SITE001-0139,4,AE4,OEDEMA PERIPHERAL,Oedema peripheral,,Oedema peripheral,10030124,Oedema NEC,10030095,Oedema NEC,10064690,General disorders and administration site conditions,10018065,General disorders and administration site conditions,10018065,MODERATE,N,DOSE NOT CHANGED,NOT RELATED,RECOVERED/RESOLVED,N,N,N,N,N,N,TREATMENT,2024-03-24,2024-04-08,45,60,
VISION-NSCLC,AE,VISION-NSCLC-SITE001-0139,5,AE5,PNEUMONIA,Pneumonia,,Pneumonia,10035664,Lower respiratory and lung infections,10024968,Infections NEC,10021902,Infections and infestations,10021881,Infections and infestations,10021881,MODERATE,N,DOSE NOT CHANGED,UNLIKELY RELATED,RECOVERED/RESOLVED,N,N,N,N,N,N,TREATMENT,2024-04-02,2024-04-28,54,80,
VISION-NSCLC,AE,VISION-NSCLC-SITE001-0139,6,AE6,DIARRHOEA,Diarrhoea,,Diarrhoea,10012735,Diarrhoea (excl infective),10012736,Gastrointestinal motility and defaecation conditions,10017983,Gastrointestinal disorders,10017947,Gastrointestinal disorders,10017947,MODERATE,N,DRUG INTERRUPTED,POSSIBLY RELATED,RECOVERING/RESOLVING,N,N,N,N,N,N,TREATMENT,2024-04-07,2024-04-22,59,74,
VISION-NSCLC,AE,VISION-NSCLC-SITE001-0139,7,AE7,ALANINE AMINOTRANSFERASE INCREASED,Alanine aminotransferase increased,,Alanine aminotransferase increased,10001551,Liver function analyses,10024689,Hepatobiliary investigations,10019843,Investigations,10022891,Investigations,10022891,MODERATE,N,DOSE NOT CHANGED,NOT RELATED,RECOVERING/RESOLVING,N,N,N,N,N,N,TREATMENT,2024-04-14,2024-06-06,66,119,
VISION-NSCLC,AE,VISION-NSCLC-SITE001-0139,8,AE8,NAUSEA,Nausea,,Nausea,10028813,Nausea and vomiting symptoms,10028817,Gastrointestinal signs and symptoms,10017999,Gastrointestinal disorders,10017947,Gastrointestinal disorders,10017947,SEVERE,Y,DOSE NOT CHANGED,NOT RELATED,RECOVERED/RESOLVED,N,N,N,Y,N,N,TREATMENT,2024-05-14,2024-05-22,96,104,
VISION-NSCLC,AE,VISION-NSCLC-SITE001-0139,9,AE9,DIARRHOEA,Diarrhoea,,Diarrhoea,10012735,Diarrhoea (excl infective),10012736,Gastrointestinal motility and defaecation conditions,10017983,Gastrointestinal disorders,10017947,Gastrointestinal disorders,10017947,MILD,N,DOSE NOT CHANGED,UNLIKELY RELATED,RECOVERED/RESOLVED,N,N,N,N,N,N,TREATMENT,2024-05-17,2024-05-18,99,100,
VISION-NSCLC,AE,VISION-NSCLC-SITE001-0139,10,AE10,NAUSEA,Nausea,,Nausea,10028813,Nausea and vomiting symptoms,10028817,Gastrointestinal signs and symptoms,10017999,Gastrointestinal disorders,10017947,Gastrointestinal disorders,10017947,MODERATE,N,DOSE NOT CHANGED,UNLIKELY RELATED,NOT RECOVERED/NOT RESOLVED,N,N,N,N,N,N,TREATMENT,2024-05-20,,102,,DURING/AFTER
VISION-NSCLC,AE,VISION-NSCLC-SITE001-0139,11,AE11,OEDEMA PERIPHERAL,Oedema peripheral,,Oedema peripheral,10030124,Oedema NEC,10030095,Oedema NEC,10064690,General disorders and administration site conditions,10018065,General disorders and administration site conditions,10018065,MILD,N,DOSE NOT CHANGED,UNLIKELY RELATED,RECOVERING/RESOLVING,N,N,N,N,N,N,TREATMENT,2024-05-24,2024-06-06,106,119,
VISION-NSCLC,AE,VISION-NSCLC-SITE001-0139,12,AE12,PNEUMONIA,Pneumonia,,Pneumonia,10035664,Lower respiratory and lung infections,10024968,Infections NEC,10021902,Infections and infestations,10021881,Infections and infestations,10021881,MILD,N,DOSE NOT CHANGED,NOT RELATED,RECOVERING/RESOLVING,N,N,N,N,N,N,TREATMENT,2024-05-31,2024-06-14,113,127,
VISION-NSCLC,AE,VISION-NSCLC-SITE001-0139,13,AE13,DYSPNOEA,Dyspnoea,,Dyspnoea,10013968,Breathing abnormalities,10006486,Respiratory tract signs and symptoms,10038734,"Respiratory, thoracic and mediastinal disorders",10038738,"Respiratory, thoracic and mediastinal disorders",10038738,MILD,N,DOSE NOT CHANGED,NOT RELATED,RECOVERED/RESOLVED,N,N,N,N,N,N,TREATMENT,2024-06-04,2024-06-08,117,121,
VISION-NSCLC,AE,VISION-NSCLC-SITE001-0139,14,AE14,ALANINE AMINOTRANSFERASE INCREASED,Alanine aminotransferase increased,,Alanine aminotransferase increased,10001551,Liver function analyses,10024689,Hepatobiliary investigations,10019843,Investigations,10022891,Investigations,10022891,MILD,N,DOSE NOT CHANGED,NOT RELATED,RECOVERING/RESOLVING,N,N,N,N,N,N,TREATMENT,2024-06-30,2024-07-24,143,167,
VISION-NSCLC,AE,VISION-NSCLC-SITE001-0142,1,AE1,OEDEMA PERIPHERAL,Oedema peripheral,,Oedema peripheral,10030124,Oedema NEC,10030095,Oedema NEC,10064690,General disorders and administration site conditions,10018065,General disorders and administration site conditions,10018065,MODERATE,N,DOSE NOT CHANGED,UNLIKELY RELATED,RECOVERED/RESOLVED,N,N,N,N,N,N,TREATMENT,2024-03-21,2024-04-12,16,38,
VISION-NSCLC,AE,VISION-NSCLC-SITE001-0142,2,AE2,NAUSEA,Nausea,,Nausea,10028813,Nausea and vomiting symptoms,10028817,Gastrointestinal signs and symptoms,10017999,Gastrointestinal disorders,10017947,Gastrointestinal disorders,10017947,MODERATE,N,DRUG INTERRUPTED,POSSIBLY RELATED,RECOVERED/RESOLVED,N,N,N,N,N,N,TREATMENT,2024-03-24,2024-03-27,19,22,
VISION-NSCLC,AE,VISION-NSCLC-SITE001-0145,1,AE1,OEDEMA PERIPHERAL,Oedema peripheral,,Oedema peripheral,10030124,Oedema NEC,10030095,Oedema NEC,10064690,General disorders and administration site conditions,10018065,General disorders and administration site conditions,10018065,MILD,N,DOSE REDUCED,POSSIBLY RELATED,RECOVERED/RESOLVED,N,N,N,N,N,N,TREATMENT,2024-03-20,2024-03-30,12,22,
VISION-NSCLC,AE,VISION-NSCLC-SITE001-0148,1,AE1,HYPOALBUMINAEMIA,Hypoalbuminaemia,,Hypoalbuminaemia,10020944,Protein metabolism disorders,10060816,Protein and amino acid metabolism disorders,10067088,Metabolism and nutrition disorders,10027433,Metabolism and nutrition disorders,10027433,MILD,N,DOSE NOT CHANGED,RELATED,RECOVERED/RESOLVED,N,N,N,N,N,N,TREATMENT,2024-04-28,2024-05-12,36,50,
VISION-NSCLC,AE,VISION-NSCLC-SITE001-0148,2,AE2,HYPOALBUMINAEMIA,Hypoalbuminaemia,,Hypoalbuminaemia,10020944,Protein metabolism disorders,10060816,Protein and amino acid metabolism disorders,10067088,Metabolism and nutrition disorders,10027433,Metabolism and nutrition disorders,10027433,MILD,N,DOSE REDUCED,PROBABLY RELATED,RECOVERED/RESOLVED,N,N,N,N,N,N,TREATMENT,2024-05-22,2024-05-25,60,63,
VISION-NSCLC,AE,VISION-NSCLC-SITE001-0148,3,AE3,DIARRHOEA,Diarrhoea,,Diarrhoea,10012735,Diarrhoea (excl infective),10012736,Gastrointestinal motility and defaecation conditions,10017983,Gastrointestinal disorders,10017947,Gastrointestinal disorders,10017947,MILD,N,DOSE NOT CHANGED,PROBABLY RELATED,RECOVERED/RESOLVED WITH SEQUELAE,N,N,N,N,N,N,TREATMENT,2024-06-04,2024-06-08,73,77,
VISION-NSCLC,AE,VISION-NSCLC-SITE001-0148,4,AE4,NAUSEA,Nausea,,Nausea,10028813,Nausea and vomiting symptoms,10028817,Gastrointestinal signs and symptoms,10017999,Gastrointestinal disorders,10017947,Gastrointestinal disorders,10017947,MILD,N,DOSE NOT CHANGED,NOT RELATED,NOT RECOVERED/NOT RESOLVED,N,N,N,N,N,N,TREATMENT,2024-06-20,,89,,DURING/AFTER
VISION-NSCLC,AE,VISION-NSCLC-SITE001-0148,5,AE5,HYPOALBUMINAEMIA,Hypoalbuminaemia,,Hypoalbuminaemia,10020944,Protein metabolism disorders,10060816,Protein and amino acid metabolism disorders,10067088,Metabolism and nutrition disorders,10027433,Metabolism and nutrition disorders,10027433,MILD,N,DOSE NOT CHANGED,POSSIBLY RELATED,RECOVERING/RESOLVING,N,N,N,N,N,N,TREATMENT,2024-06-23,2024-06-30,92,99,
VISION-NSCLC,AE,VISION-NSCLC-SITE001-0148,6,AE6,ASPARTATE AMINOTRANSFERASE INCREASED,Aspartate aminotransferase increased,,Aspartate aminotransferase increased,10003481,Liver function analyses,10024689,Hepatobiliary investigations,10019843,Investigations,10022891,Investigations,10022891,MODERATE,N,DOSE NOT CHANGED,UNLIKELY RELATED,RECOVERED/RESOLVED WITH SEQUELAE,N,N,N,N,N,N,TREATMENT,2024-06-30,2024-08-13,99,143,
VISION-NSCLC,AE,VISION-NSCLC-SITE001-0148,7,AE7,ASPARTATE AMINOTRANSFERASE INCREASED,Aspartate aminotransferase increased,,Aspartate aminotransferase increased,10003481,Liver function analyses,10024689,Hepatobiliary investigations,10019843,Investigations,10022891,Investigations,10022891,SEVERE,Y,DOSE NOT CHANGED,NOT RELATED,RECOVERED/RESOLVED,N,N,N,N,N,Y,TREATMENT,2024-07-09,2024-08-19,108,149,
VISION-NSCLC,AE,VISION-NSCLC-SITE001-0148,8,AE8,PLEURAL EFFUSION,Pleural effusion,,Pleural effusion,10035598,Pleural conditions and effusions NEC,10035599,Respiratory disorders NEC,10063479,"Respiratory, thoracic and mediastinal disorders",10038738,"Respiratory, thoracic and mediastinal disorders",10038738,MILD,N,DOSE NOT CHANGED,NOT RELATED,RECOVERED/RESOLVED,N,N,N,N,N,N,TREATMENT,2024-08-08,2024-08-16,138,146,
VISION-NSCLC,AE,VISION-NSCLC-SITE001-0148,9,AE9,DIARRHOEA,Diarrhoea,,Diarrhoea,10012735,Diarrhoea (excl infective),10012736,Gastrointestinal motility and defaecation conditions,10017983,Gastrointestinal disorders,10017947,Gastrointestinal disorders,10017947,SEVERE,Y,DOSE NOT CHANGED,UNLIKELY RELATED,RECOVERED/RESOLVED,N,N,N,Y,N,N,TREATMENT,2024-08-11,2024-08-29,141,159,
VISION-NSCLC,AE,VISION-NSCLC-SITE001-0148,10,AE10,FATIGUE,Fatigue,,Fatigue,10016256,Asthenic conditions,10003550,General system disorders NEC,10060892,General disorders and administration site conditions,10018065,General disorders and administration site conditions,10018065,MODERATE,N,DRUG INTERRUPTED,POSSIBLY RELATED,NOT RECOVERED/NOT RESOLVED,N,N,N,N,N,N,TREATMENT,2024-08-23,,153,,DURING/AFTER
VISION-NSCLC,AE,VISION-NSCLC-SITE001-0151,1,AE1,NAUSEA,Nausea,,Nausea,10028813,Nausea and vomiting symptoms,10028817,Gastrointestinal signs and symptoms,10017999,Gastrointestinal disorders,10017947,Gastrointestinal disorders,10017947,MILD,N,DOSE NOT CHANGED,POSSIBLY RELATED,NOT RECOVERED/NOT RESOLVED,N,N,N,N,N,N,TREATMENT,2024-05-02,,21,,DURING/AFTER
VISION-NSCLC,AE,VISION-NSCLC-SITE001-0151,2,AE2,HYPOALBUMINAEMIA,Hypoalbuminaemia,,Hypoalbuminaemia,10020944,Protein metabolism disorders,10060816,Protein and amino acid metabolism disorders,10067088,Metabolism and nutrition disorders,10027433,Metabolism and nutrition disorders,10027433,MILD,N,DOSE NOT CHANGED,NOT RELATED,RECOVERED/RESOLVED,N,N,N,N,N,N,TREATMENT,2024-05-10,2024-05-20,29,39,
VISION-NSCLC,AE,VISION-NSCLC-SITE001-0151,3,AE3,VOMITING,Vomiting,,Vomiting,10047700,Nausea and vomiting symptoms,10028817,Gastrointestinal signs and symptoms,10017999,Gastrointestinal disorders,10017947,Gastrointestinal disorders,10017947,MILD,N,DOSE NOT CHANGED,UNLIKELY RELATED,RECOVERED/RESOLVED,N,N,N,N,N,N,TREATMENT,2024-05-18,2024-05-19,37,38,
VISION-NSCLC,AE,VISION-NSCLC-SITE001-0151,4,AE4,VOMITING,Vomiting,,Vomiting,10047700,Nausea and vomiting symptoms,10028817,Gastrointestinal signs and symptoms,10017999,Gastrointestinal disorders,10017947,Gastrointestinal disorders,10017947,MODERATE,N,DOSE NOT CHANGED,NOT RELATED,RECOVERING/RESOLVING,N,N,N,N,N,N,TREATMENT,2024-06-10,2024-06-11,60,61,
VISION-NSCLC,AE,VISION-NSCLC-SITE001-0151,5,AE5,OEDEMA PERIPHERAL,Oedema peripheral,,Oedema peripheral,10030124,Oedema NEC,10030095,Oedema NEC,10064690,General disorders and administration site conditions,10018065,General disorders and administration site conditions,10018065,SEVERE,Y,DOSE NOT CHANGED,NOT RELATED,RECOVERING/RESOLVING,N,N,N,N,N,Y,TREATMENT,2024-06-17,2024-06-24,67,74,
VISION-NSCLC,AE,VISION-NSCLC-SITE001-0151,6,AE6,DECREASED APPETITE,Decreased appetite,,Decreased appetite,10061428,Appetite disorders,10003052,Eating disorders and disturbances,10061427,Metabolism and nutrition disorders,10027433,Metabolism and nutrition disorders,10027433,MODERATE,N,DOSE NOT CHANGED,UNLIKELY RELATED,RECOVERED/RESOLVED,N,N,N,N,N,N,TREATMENT,2024-07-12,2024-07-15,92,95,
VISION-NSCLC,AE,VISION-NSCLC-SITE001-0151,7,AE7,FATIGUE,Fatigue,,Fatigue,10016256,Asthenic conditions,10003550,General system disorders NEC,10060892,General disorders and administration site conditions,10018065,General disorders and administration site conditions,10018065,SEVERE,Y,DOSE NOT CHANGED,NOT RELATED,RECOVERED/RESOLVED,N,N,N,N,N,Y,TREATMENT,2024-07-18,2024-09-12,98,154,
VISION-NSCLC,AE,VISION-NSCLC-SITE001-0151,8,AE8,NAUSEA,Nausea,,Nausea,10028813,Nausea and vomiting symptoms,10028817,Gastrointestinal signs and symptoms,10017999,Gastrointestinal disorders,10017947,Gastrointestinal disorders,10017947,MODERATE,N,DOSE NOT CHANGED,NOT RELATED,RECOVERING/RESOLVING,N,N,N,N,N,N,TREATMENT,2024-08-07,2024-08-12,118,123,
VISION-NSCLC,AE,VISION-NSCLC-SITE001-0151,9,AE9,DECREASED APPETITE,Decreased appetite,,Decreased appetite,10061428,Appetite disorders,10003052,Eating disorders and disturbances,10061427,Metabolism and nutrition disorders,10027433,Metabolism and nutrition disorders,10027433,MODERATE,N,DOSE REDUCED,POSSIBLY RELATED,RECOVERING/RESOLVING,N,N,N,N,N,N,TREATMENT,2024-09-10,2024-09-22,152,164,
VISION-NSCLC,AE,VISION-NSCLC-SITE001-0151,10,AE10,OEDEMA PERIPHERAL,Oedema peripheral,,Oedema peripheral,10030124,Oedema NEC,10030095,Oedema NEC,10064690,General disorders and administration site conditions,10018065,General disorders and administration site conditions,10018065,MILD,N,DOSE NOT CHANGED,NOT RELATED,RECOVERED/RESOLVED,N,N,N,N,N,N,TREATMENT,2024-09-22,2024-09-28,164,170,
VISION-NSCLC,AE,VISION-NSCLC-SITE001-0154,1,AE1,OEDEMA PERIPHERAL,Oedema peripheral,,Oedema peripheral,10030124,Oedema NEC,10030095,Oedema NEC,10064690,General disorders and administration site conditions,10018065,General disorders and administration site conditions,10018065,MILD,N,DOSE NOT CHANGED,POSSIBLY RELATED,RECOVERED/RESOLVED,N,N,N,N,N,N,TREATMENT,2024-02-18,2024-02-21,7,10,
VISION-NSCLC,AE,VISION-NSCLC-SITE001-0154,2,AE2,FATIGUE,Fatigue,,Fatigue,10016256,Asthenic conditions,10003550,General system disorders NEC,10060892,General disorders and administration site conditions,10018065,General disorders and administration site conditions,10018065,SEVERE,Y,DOSE REDUCED,RELATED,NOT RECOVERED/NOT RESOLVED,N,N,N,N,N,Y,TREATMENT,2024-03-05,,23,,DURING/AFTER
VISION-NSCLC,AE,VISION-NSCLC-SITE001-0154,3,AE3,OEDEMA PERIPHERAL,Oedema peripheral,,Oedema peripheral,10030124,Oedema NEC,10030095,Oedema NEC,10064690,General disorders and administration site conditions,10018065,General disorders and administration site conditions,10018065,MODERATE,N,DOSE NOT CHANGED,NOT RELATED,NOT RECOVERED/NOT RESOLVED,N,N,N,N,N,N,TREATMENT,2024-05-02,,81,,DURING/AFTER
VISION-NSCLC,AE,VISION-NSCLC-SITE001-0154,4,AE4,HYPOALBUMINAEMIA,Hypoalbuminaemia,,Hypoalbuminaemia,10020944,Protein metabolism disorders,10060816,Protein and amino acid metabolism disorders,10067088,Metabolism and nutrition disorders,10027433,Metabolism and nutrition disorders,10027433,SEVERE,Y,DOSE NOT CHANGED,NOT RELATED,RECOVERED/RESOLVED,N,N,N,Y,N,N,TREATMENT,2024-06-05,2024-06-15,115,125,
VISION-NSCLC,AE,VISION-NSCLC-SITE001-0154,5,AE5,PNEUMONIA,Pneumonia,,Pneumonia,10035664,Lower respiratory and lung infections,10024968,Infections NEC,10021902,Infections and infestations,10021881,Infections and infestations,10021881,MODERATE,N,DOSE NOT CHANGED,UNLIKELY RELATED,RECOVERED/RESOLVED,N,N,N,N,N,N,TREATMENT,2024-06-11,2024-06-18,121,128,
VISION-NSCLC,AE,VISION-NSCLC-SITE001-0157,1,AE1,VOMITING,Vomiting,,Vomiting,10047700,Nausea and vomiting symptoms,10028817,Gastrointestinal signs and symptoms,10017999,Gastrointestinal disorders,10017947,Gastrointestinal disorders,10017947,MODERATE,N,DOSE NOT CHANGED,POSSIBLY RELATED,RECOVERED/RESOLVED,N,N,N,N,N,N,TREATMENT,2024-04-16,2024-04-20,18,22,
VISION-NSCLC,AE,VISION-NSCLC-SITE001-0157,2,AE2,NAUSEA,Nausea,,Nausea,10028813,Nausea and vomiting symptoms,10028817,Gastrointestinal signs and symptoms,10017999,Gastrointestinal disorders,10017947,Gastrointestinal disorders,10017947,MODERATE,N,DOSE NOT CHANGED,POSSIBLY RELATED,RECOVERING/RESOLVING,N,N,N,N,N,N,TREATMENT,2024-04-22,2024-04-23,24,25,
VISION-NSCLC,AE,VISION-NSCLC-SITE001-0163,1,AE1,OEDEMA PERIPHERAL,Oedema peripheral,,Oedema peripheral,10030124,Oedema NEC,10030095,Oedema NEC,10064690,General disorders and administration site conditions,10018065,General disorders and administration site conditions,10018065,MODERATE,N,DOSE NOT CHANGED,NOT RELATED,RECOVERED/RESOLVED,N,N,N,N,N,N,TREATMENT,2024-03-08,2024-03-15,14,21,
VISION-NSCLC,AE,VISION-NSCLC-SITE001-0163,2,AE2,OEDEMA PERIPHERAL,Oedema peripheral,,Oedema peripheral,10030124,Oedema NEC,10030095,Oedema NEC,10064690,General disorders and administration site conditions,10018065,General disorders and administration site conditions,10018065,MODERATE,N,DOSE NOT CHANGED,POSSIBLY RELATED,RECOVERING/RESOLVING,N,N,N,N,N,N,TREATMENT,2024-03-10,2024-04-07,16,44,
VISION-NSCLC,AE,VISION-NSCLC-SITE001-0163,3,AE3,VOMITING,Vomiting,,Vomiting,10047700,Nausea and vomiting symptoms,10028817,Gastrointestinal signs and symptoms,10017999,Gastrointestinal disorders,10017947,Gastrointestinal disorders,10017947,SEVERE,Y,DOSE REDUCED,PROBABLY RELATED,RECOVERED/RESOLVED,N,N,N,N,N,Y,TREATMENT,2024-03-16,2024-03-27,22,33,
VISION-NSCLC,AE,VISION-NSCLC-SITE001-0163,4,AE4,NAUSEA,Nausea,,Nausea,10028813,Nausea and vomiting symptoms,10028817,Gastrointestinal signs and symptoms,10017999,Gastrointestinal disorders,10017947,Gastrointestinal disorders,10017947,MODERATE,N,DOSE NOT CHANGED,UNLIKELY RELATED,NOT RECOVERED/NOT RESOLVED,N,N,N,N,N,N,TREATMENT,2024-04-01,,38,,DURING/AFTER
VISION-NSCLC,AE,VISION-NSCLC-SITE001-0163,5,AE5,OEDEMA PERIPHERAL,Oedema peripheral,,Oedema peripheral,10030124,Oedema NEC,10030095,Oedema NEC,10064690,General disorders and administration site conditions,10018065,General disorders and administration site conditions,10018065,SEVERE,Y,DOSE NOT CHANGED,NOT RELATED,RECOVERED/RESOLVED,N,N,N,Y,N,N,TREATMENT,2024-05-26,2024-07-18,93,146,
VISION-NSCLC,AE,VISION-NSCLC-SITE001-0163,6,AE6,HYPOALBUMINAEMIA,Hypoalbuminaemia,,Hypoalbuminaemia,10020944,Protein metabolism disorders,10060816,Protein and amino acid metabolism disorders,10067088,Metabolism and nutrition disorders,10027433,Metabolism and nutrition disorders,10027433,MODERATE,N,DOSE NOT CHANGED,NOT RELATED,RECOVERING/RESOLVING,N,N,N,N,N,N,TREATMENT,2024-05-26,2024-06-12,93,110,
VISION-NSCLC,AE,VISION-NSCLC-SITE001-0163,7,AE7,HYPOALBUMINAEMIA,Hypoalbuminaemia,,Hypoalbuminaemia,10020944,Protein metabolism disorders,10060816,Protein and amino acid metabolism disorders,10067088,Metabolism and nutrition disorders,10027433,Metabolism and nutrition disorders,10027433,MODERATE,N,DOSE NOT CHANGED,UNLIKELY RELATED,RECOVERED/RESOLVED,N,N,N,N,N,N,TREATMENT,2024-06-07,2024-06-10,105,108,
VISION-NSCLC,AE,VISION-NSCLC-SITE001-0163,8,AE8,FATIGUE,Fatigue,,Fatigue,10016256,Asthenic conditions,10003550,General system disorders NEC,10060892,General disorders and administration site conditions,10018065,General disorders and administration site conditions,10018065,MILD,N,DOSE REDUCED,PROBABLY RELATED,RECOVERED/RESOLVED,N,N,N,N,N,N,TREATMENT,2024-07-15,2024-07-26,143,154,
VISION-NSCLC,AE,VISION-NSCLC-SITE001-0163,9,AE9,HYPOALBUMINAEMIA,Hypoalbuminaemia,,Hypoalbuminaemia,10020944,Protein metabolism disorders,10060816,Protein and amino acid metabolism disorders,10067088,Metabolism and nutrition disorders,10027433,Metabolism and nutrition disorders,10027433,SEVERE,Y,DOSE NOT CHANGED,NOT RELATED,RECOVERING/RESOLVING,N,N,N,Y,N,N,TREATMENT,2024-07-22,2024-08-19,150,178,
VISION-NSCLC,AE,VISION-NSCLC-SITE001-0163,10,AE10,HYPOALBUMINAEMIA,Hypoalbuminaemia,,Hypoalbuminaemia,10020944,Protein metabolism disorders,10060816,Protein and amino acid metabolism disorders,10067088,Metabolism and nutrition disorders,10027433,Metabolism and nutrition disorders,10027433,MODERATE,N,DOSE NOT CHANGED,NOT RELATED,RECOVERED/RESOLVED WITH SEQUELAE,N,N,N,N,N,N,TREATMENT,2024-07-30,2024-08-25,158,184,
VISION-NSCLC,AE,VISION-NSCLC-SITE001-0166,1,AE1,NAUSEA,Nausea,,Nausea,10028813,Nausea and vomiting symptoms,10028817,Gastrointestinal signs and symptoms,10017999,Gastrointestinal disorders,10017947,Gastrointestinal disorders,10017947,MILD,N,DOSE NOT CHANGED,UNLIKELY RELATED,RECOVERED/RESOLVED,N,N,N,N,N,N,TREATMENT,2024-04-29,2024-05-02,30,33,
VISION-NSCLC,AE,VISION-NSCLC-SITE001-0166,2,AE2,DYSPNOEA,Dyspnoea,,Dyspnoea,10013968,Breathing abnormalities,10006486,Respiratory tract signs and symptoms,10038734,"Respiratory, thoracic and mediastinal disorders",10038738,"Respiratory, thoracic and mediastinal disorders",10038738,MILD,N,DOSE NOT CHANGED,NOT RELATED,RECOVERED/RESOLVED WITH SEQUELAE,N,N,N,N,N,N,TREATMENT,2024-06-19,2024-07-01,81,93,
VISION-NSCLC,AE,VISION-NSCLC-SITE001-0166,3,AE3,DECREASED APPETITE,Decreased appetite,,Decreased appetite,10061428,Appetite disorders,10003052,Eating disorders and disturbances,10061427,Metabolism and nutrition disorders,10027433,Metabolism and nutrition disorders,10027433,MODERATE,N,DOSE NOT CHANGED,NOT RELATED,RECOVERED/RESOLVED,N,N,N,N,N,N,TREATMENT,2024-08-01,2024-08-25,124,148,
VISION-NSCLC,AE,VISION-NSCLC-SITE001-0166,4,AE4,ALANINE AMINOTRANSFERASE INCREASED,Alanine aminotransferase increased,,Alanine aminotransferase increased,10001551,Liver function analyses,10024689,Hepatobiliary investigations,10019843,Investigations,10022891,Investigations,10022891,SEVERE,Y,DOSE NOT CHANGED,NOT RELATED,RECOVERED/RESOLVED,N,N,N,Y,N,N,TREATMENT,2024-08-07,2024-10-21,130,205,
VISION-NSCLC,AE,VISION-NSCLC-SITE001-0166,5,AE5,ASPARTATE AMINOTRANSFERASE INCREASED,Aspartate aminotransferase increased,,Aspartate aminotransferase increased,10003481,Liver function analyses,10024689,Hepatobiliary investigations,10019843,Investigations,10022891,Investigations,10022891,MILD,N,DOSE NOT CHANGED,PROBABLY RELATED,RECOVERED/RESOLVED,N,N,N,N,N,N,TREATMENT,2024-08-13,2024-09-06,136,160,
VISION-NSCLC,AE,VISION-NSCLC-SITE001-0166,6,AE6,OEDEMA PERIPHERAL,Oedema peripheral,,Oedema peripheral,10030124,Oedema NEC,10030095,Oedema NEC,10064690,General disorders and administration site conditions,10018065,General disorders and administration site conditions,10018065,MILD,N,DOSE NOT CHANGED,PROBABLY RELATED,RECOVERING/RESOLVING,N,N,N,N,N,N,TREATMENT,2024-09-11,2024-09-20,165,174,
VISION-NSCLC,AE,VISION-NSCLC-SITE001-0166,7,AE7,ALANINE AMINOTRANSFERASE INCREASED,Alanine aminotransferase increased,,Alanine aminotransferase increased,10001551,Liver function analyses,10024689,Hepatobiliary investigations,10019843,Investigations,10022891,Investigations,10022891,MILD,N,DOSE NOT CHANGED,UNLIKELY RELATED,RECOVERED/RESOLVED,N,N,N,N,N,N,TREATMENT,2024-09-14,2024-09-24,168,178,
VISION-NSCLC,AE,VISION-NSCLC-SITE001-0175,1,AE1,DIARRHOEA,Diarrhoea,,Diarrhoea,10012735,Diarrhoea (excl infective),10012736,Gastrointestinal motility and defaecation conditions,10017983,Gastrointestinal disorders,10017947,Gastrointestinal disorders,10017947,MILD,N,DOSE NOT CHANGED,UNLIKELY RELATED,NOT RECOVERED/NOT RESOLVED,N,N,N,N,N,N,TREATMENT,2024-05-23,,12,,DURING/AFTER
VISION-NSCLC,AE,VISION-NSCLC-SITE001-0175,2,AE2,DIARRHOEA,Diarrhoea,,Diarrhoea,10012735,Diarrhoea (excl infective),10012736,Gastrointestinal motility and defaecation conditions,10017983,Gastrointestinal disorders,10017947,Gastrointestinal disorders,10017947,MODERATE,N,DOSE NOT CHANGED,NOT RELATED,RECOVERED/RESOLVED,N,N,N,N,N,N,TREATMENT,2024-06-29,2024-07-07,49,57,
VISION-NSCLC,AE,VISION-NSCLC-SITE001-0175,3,AE3,VOMITING,Vomiting,,Vomiting,10047700,Nausea and vomiting symptoms,10028817,Gastrointestinal signs and symptoms,10017999,Gastrointestinal disorders,10017947,Gastrointestinal disorders,10017947,MILD,N,DOSE NOT CHANGED,NOT RELATED,RECOVERED/RESOLVED,N,N,N,N,N,N,TREATMENT,2024-07-09,2024-07-10,59,60,
VISION-NSCLC,AE,VISION-NSCLC-SITE001-0175,4,AE4,ALANINE AMINOTRANSFERASE INCREASED,Alanine aminotransferase increased,,Alanine aminotransferase increased,10001551,Liver function analyses,10024689,Hepatobiliary investigations,10019843,Investigations,10022891,Investigations,10022891,SEVERE,Y,DOSE NOT CHANGED,NOT RELATED,NOT RECOVERED/NOT RESOLVED,N,N,N,Y,N,N,TREATMENT,2024-08-10,,91,,DURING/AFTER
VISION-NSCLC,AE,VISION-NSCLC-SITE001-0175,5,AE5,FATIGUE,Fatigue,,Fatigue,10016256,Asthenic conditions,10003550,General system disorders NEC,10060892,General disorders and administration site conditions,10018065,General disorders and administration site conditions,10018065,MILD,N,DOSE NOT CHANGED,NOT RELATED,RECOVERED/RESOLVED,N,N,N,N,N,N,TREATMENT,2024-08-24,2024-08-30,105,111,
VISION-NSCLC,AE,VISION-NSCLC-SITE001-0175,6,AE6,DIARRHOEA,Diarrhoea,,Diarrhoea,10012735,Diarrhoea (excl infective),10012736,Gastrointestinal motility and defaecation conditions,10017983,Gastrointestinal disorders,10017947,Gastrointestinal disorders,10017947,MILD,N,DOSE NOT CHANGED,UNLIKELY RELATED,NOT RECOVERED/NOT RESOLVED,N,N,N,N,N,N,TREATMENT,2024-08-26,,107,,DURING/AFTER
VISION-NSCLC,AE,VISION-NSCLC-SITE001-0181,1,AE1,BLOOD CREATININE INCREASED,Blood creatinine increased,,Blood creatinine increased,10005483,Renal function analyses,10038432,Renal and urinary tract investigations and urinalyses,10062225,Investigations,10022891,Investigations,10022891,MILD,N,DOSE NOT CHANGED,RELATED,RECOVERED/RESOLVED,N,N,N,N,N,N,TREATMENT,2024-03-07,2024-03-11,10,14,
VISION-NSCLC,AE,VISION-NSCLC-SITE001-0181,2,AE2,OEDEMA PERIPHERAL,Oedema peripheral,,Oedema peripheral,10030124,Oedema NEC,10030095,Oedema NEC,10064690,General disorders and administration site conditions,10018065,General disorders and administration site conditions,10018065,SEVERE,Y,DOSE NOT CHANGED,NOT RELATED,RECOVERED/RESOLVED WITH SEQUELAE,N,N,N,Y,N,N,TREATMENT,2024-03-10,2024-03-11,13,14,
VISION-NSCLC,AE,VISION-NSCLC-SITE001-0184,1,AE1,DIARRHOEA,Diarrhoea,,Diarrhoea,10012735,Diarrhoea (excl infective),10012736,Gastrointestinal motility and defaecation conditions,10017983,Gastrointestinal disorders,10017947,Gastrointestinal disorders,10017947,MODERATE,N,DOSE NOT CHANGED,NOT RELATED,RECOVERED/RESOLVED,N,N,N,N,N,N,TREATMENT,2024-04-04,2024-04-08,1,5,
VISION-NSCLC,AE,VISION-NSCLC-SITE001-0184,2,AE2,HYPOALBUMINAEMIA,Hypoalbuminaemia,,Hypoalbuminaemia,10020944,Protein metabolism disorders,10060816,Protein and amino acid metabolism disorders,10067088,Metabolism and nutrition disorders,10027433,Metabolism and nutrition disorders,10027433,MILD,N,DOSE NOT CHANGED,NOT RELATED,RECOVERED/RESOLVED WITH SEQUELAE,N,N,N,N,N,N,TREATMENT,2024-04-20,2024-05-04,17,31,
VISION-NSCLC,AE,VISION-NSCLC-SITE001-0184,3,AE3,VOMITING,Vomiting,,Vomiting,10047700,Nausea and vomiting symptoms,10028817,Gastrointestinal signs and symptoms,10017999,Gastrointestinal disorders,10017947,Gastrointestinal disorders,10017947,MODERATE,N,DOSE NOT CHANGED,NOT RELATED,RECOVERING/RESOLVING,N,N,N,N,N,N,TREATMENT,2024-04-28,2024-04-29,25,26,
VISION-NSCLC,AE,VISION-NSCLC-SITE001-0184,4,AE4,OEDEMA PERIPHERAL,Oedema peripheral,,Oedema peripheral,10030124,Oedema NEC,10030095,Oedema NEC,10064690,General disorders and administration site conditions,10018065,General disorders and administration site conditions,10018065,MILD,N,DOSE NOT CHANGED,POSSIBLY RELATED,RECOVERED/RESOLVED,N,N,N,N,N,N,TREATMENT,2024-05-26,2024-05-27,53,54,
VISION-NSCLC,AE,VISION-NSCLC-SITE001-0184,5,AE5,DYSPNOEA,Dyspnoea,,Dyspnoea,10013968,Breathing abnormalities,10006486,Respiratory tract signs and symptoms,10038734,"Respiratory, thoracic and mediastinal disorders",10038738,"Respiratory, thoracic and mediastinal disorders",10038738,MODERATE,N,DOSE NOT CHANGED,NOT RELATED,RECOVERED/RESOLVED,N,N,N,N,N,N,TREATMENT,2024-06-07,2024-06-25,65,83,
VISION-NSCLC,AE,VISION-NSCLC-SITE001-0184,6,AE6,ALANINE AMINOTRANSFERASE INCREASED,Alanine aminotransferase increased,,Alanine aminotransferase increased,10001551,Liver function analyses,10024689,Hepatobiliary investigations,10019843,Investigations,10022891,Investigations,10022891,SEVERE,Y,DOSE NOT CHANGED,UNLIKELY RELATED,RECOVERING/RESOLVING,N,N,N,N,N,Y,TREATMENT,2024-06-12,2024-08-03,70,122,
VISION-NSCLC,AE,VISION-NSCLC-SITE001-0184,7,AE7,VOMITING,Vomiting,,Vomiting,10047700,Nausea and vomiting symptoms,10028817,Gastrointestinal signs and symptoms,10017999,Gastrointestinal disorders,10017947,Gastrointestinal disorders,10017947,MILD,N,DOSE NOT CHANGED,POSSIBLY RELATED,RECOVERED/RESOLVED,N,N,N,N,N,N,TREATMENT,2024-06-17,2024-06-18,75,76,
VISION-NSCLC,AE,VISION-NSCLC-SITE001-0184,8,AE8,ASPARTATE AMINOTRANSFERASE INCREASED,Aspartate aminotransferase increased,,Aspartate aminotransferase increased,10003481,Liver function analyses,10024689,Hepatobiliary investigations,10019843,Investigations,10022891,Investigations,10022891,SEVERE,Y,DRUG INTERRUPTED,POSSIBLY RELATED,RECOVERED/RESOLVED,N,N,N,Y,N,N,TREATMENT,2024-08-07,2024-09-18,126,168,
VISION-NSCLC,AE,VISION-NSCLC-SITE001-0184,9,AE9,DIARRHOEA,Diarrhoea,,Diarrhoea,10012735,Diarrhoea (excl infective),10012736,Gastrointestinal motility and defaecation conditions,10017983,Gastrointestinal disorders,10017947,Gastrointestinal disorders,10017947,MILD,N,DOSE NOT CHANGED,NOT RELATED,RECOVERED/RESOLVED,N,N,N,N,N,N,TREATMENT,2024-08-13,2024-08-18,132,137,
VISION-NSCLC,AE,VISION-NSCLC-SITE001-0184,10,AE10,HYPOALBUMINAEMIA,Hypoalbuminaemia,,Hypoalbuminaemia,10020944,Protein metabolism disorders,10060816,Protein and amino acid metabolism disorders,10067088,Metabolism and nutrition disorders,10027433,Metabolism and nutrition disorders,10027433,MILD,N,DOSE NOT CHANGED,RELATED,RECOVERED/RESOLVED,N,N,N,N,N,N,TREATMENT,2024-08-17,2024-08-21,136,140,
VISION-NSCLC,AE,VISION-NSCLC-SITE001-0184,11,AE11,ALANINE AMINOTRANSFERASE INCREASED,Alanine aminotransferase increased,,Alanine aminotransferase increased,10001551,Liver function analyses,10024689,Hepatobiliary investigations,10019843,Investigations,10022891,Investigations,10022891,MODERATE,N,DRUG INTERRUPTED,POSSIBLY RELATED,RECOVERED/RESOLVED,N,N,N,N,N,N,TREATMENT,2024-08-26,2024-09-20,145,170,
VISION-NSCLC,AE,VISION-NSCLC-SITE001-0184,12,AE12,OEDEMA PERIPHERAL,Oedema peripheral,,Oedema peripheral,10030124,Oedema NEC,10030095,Oedema NEC,10064690,General disorders and administration site conditions,10018065,General disorders and administration site conditions,10018065,SEVERE,Y,DOSE NOT CHANGED,UNLIKELY RELATED,RECOVERED/RESOLVED,N,N,N,N,N,Y,TREATMENT,2024-08-30,2024-10-10,149,190,
VISION-NSCLC,AE,VISION-NSCLC-SITE001-0184,13,AE13,HYPOALBUMINAEMIA,Hypoalbuminaemia,,Hypoalbuminaemia,10020944,Protein metabolism disorders,10060816,Protein and amino acid metabolism disorders,10067088,Metabolism and nutrition disorders,10027433,Metabolism and nutrition disorders,10027433,MILD,N,DOSE NOT CHANGED,NOT RELATED,RECOVERING/RESOLVING,N,N,N,N,N,N,TREATMENT,2024-09-16,2024-09-20,166,170,
VISION-NSCLC,AE,VISION-NSCLC-SITE001-0184,14,AE14,PNEUMONIA,Pneumonia,,Pneumonia,10035664,Lower respiratory and lung infections,10024968,Infections NEC,10021902,Infections and infestations,10021881,Infections and infestations,10021881,MODERATE,N,DOSE NOT CHANGED,NOT RELATED,RECOVERED/RESOLVED,N,N,N,N,N,N,TREATMENT,2024-09-17,2024-09-24,167,174,
VISION-NSCLC,AE,VISION-NSCLC-SITE001-0187,1,AE1,ASPARTATE AMINOTRANSFERASE INCREASED,Aspartate aminotransferase increased,,Aspartate aminotransferase increased,10003481,Liver function analyses,10024689,Hepatobiliary investigations,10019843,Investigations,10022891,Investigations,10022891,SEVERE,Y,DOSE NOT CHANGED,NOT RELATED,RECOVERED/RESOLVED,N,N,N,Y,N,N,TREATMENT,2024-05-12,2024-08-09,8,97,
VISION-NSCLC,AE,VISION-NSCLC-SITE001-0187,2,AE2,OEDEMA PERIPHERAL,Oedema peripheral,,Oedema peripheral,10030124,Oedema NEC,10030095,Oedema NEC,10064690,General disorders and administration site conditions,10018065,General disorders and administration site conditions,10018065,MILD,N,DOSE NOT CHANGED,UNLIKELY RELATED,RECOVERED/RESOLVED,N,N,N,N,N,N,TREATMENT,2024-05-23,2024-06-05,19,32,
VISION-NSCLC,AE,VISION-NSCLC-SITE001-0187,3,AE3,BLOOD CREATININE INCREASED,Blood creatinine increased,,Blood creatinine increased,10005483,Renal function analyses,10038432,Renal and urinary tract investigations and urinalyses,10062225,Investigations,10022891,Investigations,10022891,SEVERE,Y,DOSE NOT CHANGED,NOT RELATED,RECOVERED/RESOLVED,N,N,N,Y,N,N,TREATMENT,2024-06-18,2024-07-23,45,80,
VISION-NSCLC,AE,VISION-NSCLC-SITE001-0187,4,AE4,DYSPNOEA,Dyspnoea,,Dyspnoea,10013968,Breathing abnormalities,10006486,Respiratory tract signs and symptoms,10038734,"Respiratory, thoracic and mediastinal disorders",10038738,"Respiratory, thoracic and mediastinal disorders",10038738,MILD,N,DOSE NOT CHANGED,POSSIBLY RELATED,RECOVERED/RESOLVED,N,N,N,N,N,N,TREATMENT,2024-06-24,2024-07-07,51,64,
VISION-NSCLC,AE,VISION-NSCLC-SITE001-0187,5,AE5,DIARRHOEA,Diarrhoea,,Diarrhoea,10012735,Diarrhoea (excl infective),10012736,Gastrointestinal motility and defaecation conditions,10017983,Gastrointestinal disorders,10017947,Gastrointestinal disorders,10017947,SEVERE,Y,DOSE NOT CHANGED,NOT RELATED,RECOVERING/RESOLVING,N,N,N,Y,N,N,TREATMENT,2024-07-03,2024-07-26,60,83,
VISION-NSCLC,AE,VISION-NSCLC-SITE001-0187,6,AE6,HYPOALBUMINAEMIA,Hypoalbuminaemia,,Hypoalbuminaemia,10020944,Protein metabolism disorders,10060816,Protein and amino acid metabolism disorders,10067088,Metabolism and nutrition disorders,10027433,Metabolism and nutrition disorders,10027433,MODERATE,N,DOSE NOT CHANGED,NOT RELATED,RECOVERING/RESOLVING,N,N,N,N,N,N,TREATMENT,2024-07-14,2024-07-30,71,87,
VISION-NSCLC,AE,VISION-NSCLC-SITE001-0187,7,AE7,DIARRHOEA,Diarrhoea,,Diarrhoea,10012735,Diarrhoea (excl infective),10012736,Gastrointestinal motility and defaecation conditions,10017983,Gastrointestinal disorders,10017947,Gastrointestinal disorders,10017947,MODERATE,N,DOSE NOT CHANGED,UNLIKELY RELATED,RECOVERED/RESOLVED,N,N,N,N,N,N,TREATMENT,2024-07-14,2024-07-27,71,84,
VISION-NSCLC,AE,VISION-NSCLC-SITE001-0187,8,AE8,OEDEMA PERIPHERAL,Oedema peripheral,,Oedema peripheral,10030124,Oedema NEC,10030095,Oedema NEC,10064690,General disorders and administration site conditions,10018065,General disorders and administration site conditions,10018065,MILD,N,DOSE NOT CHANGED,UNLIKELY RELATED,RECOVERED/RESOLVED,N,N,N,N,N,N,TREATMENT,2024-07-16,2024-07-17,73,74,
VISION-NSCLC,AE,VISION-NSCLC-SITE001-0187,9,AE9,PULMONARY EMBOLISM,Pulmonary embolism,,Pulmonary embolism,10037377,Embolism and thrombosis,10014513,Embolism and thrombosis,10061169,Vascular disorders,10047065,Vascular disorders,10047065,MODERATE,N,DOSE NOT CHANGED,NOT RELATED,RECOVERED/RESOLVED,N,N,N,N,N,N,TREATMENT,2024-08-28,2024-09-04,116,123,
VISION-NSCLC,AE,VISION-NSCLC-SITE001-0187,10,AE10,PLEURAL EFFUSION,Pleural effusion,,Pleural effusion,10035598,Pleural conditions and effusions NEC,10035599,Respiratory disorders NEC,10063479,"Respiratory, thoracic and mediastinal disorders",10038738,"Respiratory, thoracic and mediastinal disorders",10038738,MODERATE,N,DOSE NOT CHANGED,NOT RELATED,RECOVERED/RESOLVED,N,N,N,N,N,N,TREATMENT,2024-08-28,2024-09-04,116,123,
VISION-NSCLC,AE,VISION-NSCLC-SITE001-0187,11,AE11,ALANINE AMINOTRANSFERASE INCREASED,Alanine aminotransferase increased,,Alanine aminotransferase increased,10001551,Liver function analyses,10024689,Hepatobiliary investigations,10019843,Investigations,10022891,Investigations,10022891,MILD,N,DOSE NOT CHANGED,NOT RELATED,RECOVERED/RESOLVED,N,N,N,N,N,N,TREATMENT,2024-09-02,2024-09-12,121,131,
VISION-NSCLC,AE,VISION-NSCLC-SITE001-0187,12,AE12,OEDEMA PERIPHERAL,Oedema peripheral,,Oedema peripheral,10030124,Oedema NEC,10030095,Oedema NEC,10064690,General disorders and administration site conditions,10018065,General disorders and administration site conditions,10018065,SEVERE,Y,DOSE NOT CHANGED,NOT RELATED,RECOVERED/RESOLVED,N,N,N,Y,N,N,TREATMENT,2024-09-21,2024-11-14,140,194,
VISION-NSCLC,AE,VISION-NSCLC-SITE001-0187,13,AE13,OEDEMA PERIPHERAL,Oedema peripheral,,Oedema peripheral,10030124,Oedema NEC,10030095,Oedema NEC,10064690,General disorders and administration site conditions,10018065,General disorders and administration site conditions,10018065,MODERATE,N,DOSE NOT CHANGED,NOT RELATED,RECOVERED/RESOLVED,N,N,N,N,N,N,TREATMENT,2024-10-14,2024-11-03,163,183,
VISION-NSCLC,AE,VISION-NSCLC-SITE001-0187,14,AE14,PLEURAL EFFUSION,Pleural effusion,,Pleural effusion,10035598,Pleural conditions and effusions NEC,10035599,Respiratory disorders NEC,10063479,"Respiratory, thoracic and mediastinal disorders",10038738,"Respiratory, thoracic and mediastinal disorders",10038738,MODERATE,N,DOSE NOT CHANGED,NOT RELATED,RECOVERED/RESOLVED,N,N,N,N,N,N,TREATMENT,2024-10-17,2024-10-18,166,167,
VISION-NSCLC,AE,VISION-NSCLC-SITE001-0190,1,AE1,DIARRHOEA,Diarrhoea,,Diarrhoea,10012735,Diarrhoea (excl infective),10012736,Gastrointestinal motility and defaecation conditions,10017983,Gastrointestinal disorders,10017947,Gastrointestinal disorders,10017947,SEVERE,Y,DOSE NOT CHANGED,NOT RELATED,RECOVERED/RESOLVED,N,N,N,Y,N,N,TREATMENT,2024-03-13,2024-04-08,9,35,
VISION-NSCLC,AE,VISION-NSCLC-SITE001-0190,2,AE2,VOMITING,Vomiting,,Vomiting,10047700,Nausea and vomiting symptoms,10028817,Gastrointestinal signs and symptoms,10017999,Gastrointestinal disorders,10017947,Gastrointestinal disorders,10017947,MODERATE,N,DOSE NOT CHANGED,UNLIKELY RELATED,RECOVERED/RESOLVED,N,N,N,N,N,N,TREATMENT,2024-05-05,2024-05-09,62,66,
VISION-NSCLC,AE,VISION-NSCLC-SITE001-0190,3,AE3,DIARRHOEA,Diarrhoea,,Diarrhoea,10012735,Diarrhoea (excl infective),10012736,Gastrointestinal motility and defaecation conditions,10017983,Gastrointestinal disorders,10017947,Gastrointestinal disorders,10017947,MILD,N,DOSE NOT CHANGED,POSSIBLY RELATED,RECOVERED/RESOLVED,N,N,N,N,N,N,TREATMENT,2024-05-09,2024-05-10,66,67,
VISION-NSCLC,AE,VISION-NSCLC-SITE001-0190,4,AE4,PLEURAL EFFUSION,Pleural effusion,,Pleural effusion,10035598,Pleural conditions and effusions NEC,10035599,Respiratory disorders NEC,10063479,"Respiratory, thoracic and mediastinal disorders",10038738,"Respiratory, thoracic and mediastinal disorders",10038738,MILD,N,DOSE NOT CHANGED,NOT RELATED,RECOVERED/RESOLVED,N,N,N,N,N,N,TREATMENT,2024-05-22,2024-05-23,79,80,
VISION-NSCLC,AE,VISION-NSCLC-SITE001-0190,5,AE5,PLEURAL EFFUSION,Pleural effusion,,Pleural effusion,10035598,Pleural conditions and effusions NEC,10035599,Respiratory disorders NEC,10063479,"Respiratory, thoracic and mediastinal disorders",10038738,"Respiratory, thoracic and mediastinal disorders",10038738,MILD,N,DOSE NOT CHANGED,UNLIKELY RELATED,RECOVERED/RESOLVED,N,N,N,N,N,N,TREATMENT,2024-05-28,2024-06-06,85,94,
VISION-NSCLC,AE,VISION-NSCLC-SITE001-0190,6,AE6,NAUSEA,Nausea,,Nausea,10028813,Nausea and vomiting symptoms,10028817,Gastrointestinal signs and symptoms,10017999,Gastrointestinal disorders,10017947,Gastrointestinal disorders,10017947,MODERATE,N,DOSE NOT CHANGED,NOT RELATED,NOT RECOVERED/NOT RESOLVED,N,N,N,N,N,N,TREATMENT,2024-07-04,,122,,DURING/AFTER
VISION-NSCLC,AE,VISION-NSCLC-SITE001-0190,7,AE7,PULMONARY EMBOLISM,Pulmonary embolism,,Pulmonary embolism,10037377,Embolism and thrombosis,10014513,Embolism and thrombosis,10061169,Vascular disorders,10047065,Vascular disorders,10047065,MILD,N,DOSE NOT CHANGED,UNLIKELY RELATED,RECOVERED/RESOLVED,N,N,N,N,N,N,TREATMENT,2024-07-18,2024-07-20,136,138,
VISION-NSCLC,AE,VISION-NSCLC-SITE001-0190,8,AE8,VOMITING,Vomiting,,Vomiting,10047700,Nausea and vomiting symptoms,10028817,Gastrointestinal signs and symptoms,10017999,Gastrointestinal disorders,10017947,Gastrointestinal disorders,10017947,MILD,N,DOSE REDUCED,POSSIBLY RELATED,RECOVERED/RESOLVED,N,N,N,N,N,N,TREATMENT,2024-07-29,2024-07-30,147,148,
VISION-NSCLC,AE,VISION-NSCLC-SITE001-0193,1,AE1,DIARRHOEA,Diarrhoea,,Diarrhoea,10012735,Diarrhoea (excl infective),10012736,Gastrointestinal motility and defaecation conditions,10017983,Gastrointestinal disorders,10017947,Gastrointestinal disorders,10017947,MILD,N,DOSE NOT CHANGED,POSSIBLY RELATED,RECOVERING/RESOLVING,N,N,N,N,N,N,TREATMENT,2024-05-02,2024-05-05,6,9,
VISION-NSCLC,AE,VISION-NSCLC-SITE001-0193,2,AE2,OEDEMA PERIPHERAL,Oedema peripheral,,Oedema peripheral,10030124,Oedema NEC,10030095,Oedema NEC,10064690,General disorders and administration site conditions,10018065,General disorders and administration site conditions,10018065,MILD,N,DOSE NOT CHANGED,UNLIKELY RELATED,RECOVERED/RESOLVED,N,N,N,N,N,N,TREATMENT,2024-05-31,2024-06-07,35,42,
VISION-NSCLC,AE,VISION-NSCLC-SITE001-0193,3,AE3,ASPARTATE AMINOTRANSFERASE INCREASED,Aspartate aminotransferase increased,,Aspartate aminotransferase increased,10003481,Liver function analyses,10024689,Hepatobiliary investigations,10019843,Investigations,10022891,Investigations,10022891,SEVERE,Y,DOSE NOT CHANGED,NOT RELATED,RECOVERED/RESOLVED,N,N,N,Y,N,N,TREATMENT,2024-06-29,2024-08-16,64,112,
VISION-NSCLC,AE,VISION-NSCLC-SITE001-0193,4,AE4,NAUSEA,Nausea,,Nausea,10028813,Nausea and vomiting symptoms,10028817,Gastrointestinal signs and symptoms,10017999,Gastrointestinal disorders,10017947,Gastrointestinal disorders,10017947,SEVERE,Y,DOSE NOT CHANGED,UNLIKELY RELATED,RECOVERED/RESOLVED,N,N,N,N,N,Y,TREATMENT,2024-07-08,2024-07-21,73,86,
VISION-NSCLC,AE,VISION-NSCLC-SITE001-0193,5,AE5,ASPARTATE AMINOTRANSFERASE INCREASED,Aspartate aminotransferase increased,,Aspartate aminotransferase increased,10003481,Liver function analyses,10024689,Hepatobiliary investigations,10019843,Investigations,10022891,Investigations,10022891,MODERATE,N,DOSE REDUCED,RELATED,RECOVERED/RESOLVED,N,N,N,N,N,N,TREATMENT,2024-07-30,2024-08-19,95,115,
VISION-NSCLC,AE,VISION-NSCLC-SITE001-0193,6,AE6,PLEURAL EFFUSION,Pleural effusion,,Pleural effusion,10035598,Pleural conditions and effusions NEC,10035599,Respiratory disorders NEC,10063479,"Respiratory, thoracic and mediastinal disorders",10038738,"Respiratory, thoracic and mediastinal disorders",10038738,MODERATE,N,DOSE NOT CHANGED,UNLIKELY RELATED,RECOVERED/RESOLVED,N,N,N,N,N,N,TREATMENT,2024-08-09,2024-08-26,105,122,
VISION-NSCLC,AE,VISION-NSCLC-SITE001-0193,7,AE7,DECREASED APPETITE,Decreased appetite,,Decreased appetite,10061428,Appetite disorders,10003052,Eating disorders and disturbances,10061427,Metabolism and nutrition disorders,10027433,Metabolism and nutrition disorders,10027433,MILD,N,DOSE NOT CHANGED,NOT RELATED,RECOVERED/RESOLVED,N,N,N,N,N,N,TREATMENT,2024-09-03,2024-09-16,130,143,
VISION-NSCLC,AE,VISION-NSCLC-SITE001-0196,1,AE1,OEDEMA PERIPHERAL,Oedema peripheral,,Oedema peripheral,10030124,Oedema NEC,10030095,Oedema NEC,10064690,General disorders and administration site conditions,10018065,General disorders and administration site conditions,10018065,MODERATE,N,DOSE NOT CHANGED,NOT RELATED,RECOVERING/RESOLVING,N,N,N,N,N,N,TREATMENT,2024-05-28,2024-06-23,23,49,
VISION-NSCLC,AE,VISION-NSCLC-SITE001-0196,2,AE2,ASPARTATE AMINOTRANSFERASE INCREASED,Aspartate aminotransferase increased,,Aspartate aminotransferase increased,10003481,Liver function analyses,10024689,Hepatobiliary investigations,10019843,Investigations,10022891,Investigations,10022891,MILD,N,DOSE NOT CHANGED,NOT RELATED,RECOVERED/RESOLVED,N,N,N,N,N,N,TREATMENT,2024-06-15,2024-06-29,41,55,
VISION-NSCLC,AE,VISION-NSCLC-SITE001-0196,3,AE3,NAUSEA,Nausea,,Nausea,10028813,Nausea and vomiting symptoms,10028817,Gastrointestinal signs and symptoms,10017999,Gastrointestinal disorders,10017947,Gastrointestinal disorders,10017947,MILD,N,DOSE NOT CHANGED,RELATED,RECOVERED/RESOLVED,N,N,N,N,N,N,TREATMENT,2024-07-10,2024-07-13,66,69,
VISION-NSCLC,AE,VISION-NSCLC-SITE001-0196,4,AE4,HYPOALBUMINAEMIA,Hypoalbuminaemia,,Hypoalbuminaemia,10020944,Protein metabolism disorders,10060816,Protein and amino acid metabolism disorders,10067088,Metabolism and nutrition disorders,10027433,Metabolism and nutrition disorders,10027433,MILD,N,DOSE NOT CHANGED,NOT RELATED,RECOVERED/RESOLVED,N,N,N,N,N,N,TREATMENT,2024-08-02,2024-08-14,89,101,
VISION-NSCLC,AE,VISION-NSCLC-SITE001-0196,5,AE5,OEDEMA PERIPHERAL,Oedema peripheral,,Oedema peripheral,10030124,Oedema NEC,10030095,Oedema NEC,10064690,General disorders and administration site conditions,10018065,General disorders and administration site conditions,10018065,MILD,N,DOSE NOT CHANGED,POSSIBLY RELATED,RECOVERED/RESOLVED,N,N,N,N,N,N,TREATMENT,2024-08-19,2024-08-21,106,108,
VISION-NSCLC,AE,VISION-NSCLC-SITE001-0196,6,AE6,DIARRHOEA,Diarrhoea,,Diarrhoea,10012735,Diarrhoea (excl infective),10012736,Gastrointestinal motility and defaecation conditions,10017983,Gastrointestinal disorders,10017947,Gastrointestinal disorders,10017947,MILD,N,DOSE REDUCED,PROBABLY RELATED,RECOVERED/RESOLVED,N,N,N,N,N,N,TREATMENT,2024-08-28,2024-08-30,115,117,
VISION-NSCLC,AE,VISION-NSCLC-SITE001-0196,7,AE7,OEDEMA PERIPHERAL,Oedema peripheral,,Oedema peripheral,10030124,Oedema NEC,10030095,Oedema NEC,10064690,General disorders and administration site conditions,10018065,General disorders and administration site conditions,10018065,SEVERE,Y,DOSE NOT CHANGED,UNLIKELY RELATED,RECOVERED/RESOLVED,N,N,N,Y,N,N,TREATMENT,2024-08-29,2024-10-10,116,158,
VISION-NSCLC,AE,VISION-NSCLC-SITE001-0196,8,AE8,NAUSEA,Nausea,,Nausea,10028813,Nausea and vomiting symptoms,10028817,Gastrointestinal signs and symptoms,10017999,Gastrointestinal disorders,10017947,Gastrointestinal disorders,10017947,SEVERE,Y,DOSE NOT CHANGED,UNLIKELY RELATED,RECOVERED/RESOLVED,N,N,N,Y,N,N,TREATMENT,2024-09-08,2024-09-11,126,129,
VISION-NSCLC,AE,VISION-NSCLC-SITE001-0199,1,AE1,FATIGUE,Fatigue,,Fatigue,10016256,Asthenic conditions,10003550,General system disorders NEC,10060892,General disorders and administration site conditions,10018065,General disorders and administration site conditions,10018065,MILD,N,DOSE NOT CHANGED,NOT RELATED,RECOVERED/RESOLVED,N,N,N,N,N,N,TREATMENT,2024-04-23,2024-05-07,82,96,
VISION-NSCLC,AE,VISION-NSCLC-SITE001-0199,2,AE2,OEDEMA PERIPHERAL,Oedema peripheral,,Oedema peripheral,10030124,Oedema NEC,10030095,Oedema NEC,10064690,General disorders and administration site conditions,10018065,General disorders and administration site conditions,10018065,MODERATE,N,DRUG INTERRUPTED,PROBABLY RELATED,RECOVERED/RESOLVED,N,N,N,N,N,N,TREATMENT,2024-04-25,2024-05-11,84,100,
VISION-NSCLC,AE,VISION-NSCLC-SITE001-0199,3,AE3,DIARRHOEA,Diarrhoea,,Diarrhoea,10012735,Diarrhoea (excl infective),10012736,Gastrointestinal motility and defaecation conditions,10017983,Gastrointestinal disorders,10017947,Gastrointestinal disorders,10017947,MODERATE,N,DOSE REDUCED,POSSIBLY RELATED,RECOVERED/RESOLVED,N,N,N,N,N,N,TREATMENT,2024-06-29,2024-07-11,149,161,
VISION-NSCLC,AE,VISION-NSCLC-SITE001-0199,4,AE4,OEDEMA PERIPHERAL,Oedema peripheral,,Oedema peripheral,10030124,Oedema NEC,10030095,Oedema NEC,10064690,General disorders and administration site conditions,10018065,General disorders and administration site conditions,10018065,SEVERE,Y,DRUG INTERRUPTED,POSSIBLY RELATED,RECOVERED/RESOLVED,N,N,N,Y,N,N,TREATMENT,2024-06-29,2024-07-08,149,158,
VISION-NSCLC,AE,VISION-NSCLC-SITE001-0199,5,AE5,DECREASED APPETITE,Decreased appetite,,Decreased appetite,10061428,Appetite disorders,10003052,Eating disorders and disturbances,10061427,Metabolism and nutrition disorders,10027433,Metabolism and nutrition disorders,10027433,MODERATE,N,DOSE NOT CHANGED,NOT RELATED,RECOVERED/RESOLVED,N,N,N,N,N,N,TREATMENT,2024-06-29,2024-07-23,149,173,
VISION-NSCLC,AE,VISION-NSCLC-SITE001-0202,1,AE1,FATIGUE,Fatigue,,Fatigue,10016256,Asthenic conditions,10003550,General system disorders NEC,10060892,General disorders and administration site conditions,10018065,General disorders and administration site conditions,10018065,MILD,N,DOSE NOT CHANGED,NOT RELATED,RECOVERED/RESOLVED,N,N,N,N,N,N,TREATMENT,2024-05-12,2024-05-23,8,19,
VISION-NSCLC,AE,VISION-NSCLC-SITE001-0202,2,AE2,DIARRHOEA,Diarrhoea,,Diarrhoea,10012735,Diarrhoea (excl infective),10012736,Gastrointestinal motility and defaecation conditions,10017983,Gastrointestinal disorders,10017947,Gastrointestinal disorders,10017947,MILD,N,DOSE NOT CHANGED,POSSIBLY RELATED,RECOVERING/RESOLVING,N,N,N,N,N,N,TREATMENT,2024-06-09,2024-06-10,36,37,
VISION-NSCLC,AE,VISION-NSCLC-SITE001-0202,3,AE3,NAUSEA,Nausea,,Nausea,10028813,Nausea and vomiting symptoms,10028817,Gastrointestinal signs and symptoms,10017999,Gastrointestinal disorders,10017947,Gastrointestinal disorders,10017947,SEVERE,Y,DOSE NOT CHANGED,NOT RELATED,RECOVERING/RESOLVING,N,N,N,Y,N,N,TREATMENT,2024-06-16,2024-06-19,43,46,
VISION-NSCLC,AE,VISION-NSCLC-SITE001-0202,4,AE4,DECREASED APPETITE,Decreased appetite,,Decreased appetite,10061428,Appetite disorders,10003052,Eating disorders and disturbances,10061427,Metabolism and nutrition disorders,10027433,Metabolism and nutrition disorders,10027433,MILD,N,DOSE NOT CHANGED,UNLIKELY RELATED,RECOVERED/RESOLVED,N,N,N,N,N,N,TREATMENT,2024-08-05,2024-08-19,93,107,
VISION-NSCLC,AE,VISION-NSCLC-SITE001-0205,1,AE1,OEDEMA PERIPHERAL,Oedema peripheral,,Oedema peripheral,10030124,Oedema NEC,10030095,Oedema NEC,10064690,General disorders and administration site conditions,10018065,General disorders and administration site conditions,10018065,MILD,N,DOSE NOT CHANGED,UNLIKELY RELATED,RECOVERING/RESOLVING,N,N,N,N,N,N,TREATMENT,2024-04-17,2024-04-30,36,49,
VISION-NSCLC,AE,VISION-NSCLC-SITE001-0205,2,AE2,OEDEMA PERIPHERAL,Oedema peripheral,,Oedema peripheral,10030124,Oedema NEC,10030095,Oedema NEC,10064690,General disorders and administration site conditions,10018065,General disorders and administration site conditions,10018065,MODERATE,N,DOSE NOT CHANGED,NOT RELATED,RECOVERED/RESOLVED,N,N,N,N,N,N,TREATMENT,2024-04-24,2024-05-07,43,56,
VISION-NSCLC,AE,VISION-NSCLC-SITE001-0205,3,AE3,OEDEMA PERIPHERAL,Oedema peripheral,,Oedema peripheral,10030124,Oedema NEC,10030095,Oedema NEC,10064690,General disorders and administration site conditions,10018065,General disorders and administration site conditions,10018065,MILD,N,DOSE NOT CHANGED,POSSIBLY RELATED,RECOVERED/RESOLVED,N,N,N,N,N,N,TREATMENT,2024-05-13,2024-05-27,62,76,
VISION-NSCLC,AE,VISION-NSCLC-SITE001-0205,4,AE4,OEDEMA PERIPHERAL,Oedema peripheral,,Oedema peripheral,10030124,Oedema NEC,10030095,Oedema NEC,10064690,General disorders and administration site conditions,10018065,General disorders and administration site conditions,10018065,MODERATE,N,DOSE REDUCED,PROBABLY RELATED,RECOVERING/RESOLVING,N,N,N,N,N,N,TREATMENT,2024-05-16,2024-05-20,65,69,
VISION-NSCLC,AE,VISION-NSCLC-SITE001-0205,5,AE5,DYSPNOEA,Dyspnoea,,Dyspnoea,10013968,Breathing abnormalities,10006486,Respiratory tract signs and symptoms,10038734,"Respiratory, thoracic and mediastinal disorders",10038738,"Respiratory, thoracic and mediastinal disorders",10038738,SEVERE,Y,DOSE REDUCED,RELATED,RECOVERING/RESOLVING,N,N,N,Y,N,N,TREATMENT,2024-05-21,2024-07-15,70,125,
VISION-NSCLC,AE,VISION-NSCLC-SITE001-0205,6,AE6,OEDEMA PERIPHERAL,Oedema peripheral,,Oedema peripheral,10030124,Oedema NEC,10030095,Oedema NEC,10064690,General disorders and administration site conditions,10018065,General disorders and administration site conditions,10018065,MILD,N,DOSE NOT CHANGED,POSSIBLY RELATED,RECOVERED/RESOLVED,N,N,N,N,N,N,TREATMENT,2024-07-18,2024-07-28,128,138,
VISION-NSCLC,AE,VISION-NSCLC-SITE001-0205,7,AE7,OEDEMA PERIPHERAL,Oedema peripheral,,Oedema peripheral,10030124,Oedema NEC,10030095,Oedema NEC,10064690,General disorders and administration site conditions,10018065,General disorders and administration site conditions,10018065,SEVERE,Y,DRUG WITHDRAWN,POSSIBLY RELATED,RECOVERED/RESOLVED,N,N,N,Y,N,N,TREATMENT,2024-08-15,2024-08-15,156,156,
VISION-NSCLC,AE,VISION-NSCLC-SITE001-0208,1,AE1,ASPARTATE AMINOTRANSFERASE INCREASED,Aspartate aminotransferase increased,,Aspartate aminotransferase increased,10003481,Liver function analyses,10024689,Hepatobiliary investigations,10019843,Investigations,10022891,Investigations,10022891,MILD,N,DOSE REDUCED,POSSIBLY RELATED,RECOVERED/RESOLVED,N,N,N,N,N,N,TREATMENT,2024-07-25,2024-08-07,96,109,
VISION-NSCLC,AE,VISION-NSCLC-SITE001-0208,2,AE2,OEDEMA PERIPHERAL,Oedema peripheral,,Oedema peripheral,10030124,Oedema NEC,10030095,Oedema NEC,10064690,General disorders and administration site conditions,10018065,General disorders and administration site conditions,10018065,MODERATE,N,DOSE NOT CHANGED,NOT RELATED,RECOVERED/RESOLVED,N,N,N,N,N,N,TREATMENT,2024-07-30,2024-08-07,101,109,
VISION-NSCLC,AE,VISION-NSCLC-SITE001-0208,3,AE3,OEDEMA PERIPHERAL,Oedema peripheral,,Oedema peripheral,10030124,Oedema NEC,10030095,Oedema NEC,10064690,General disorders and administration site conditions,10018065,General disorders and administration site conditions,10018065,SEVERE,Y,DRUG WITHDRAWN,PROBABLY RELATED,RECOVERED/RESOLVED,N,N,N,Y,N,N,TREATMENT,2024-08-07,2024-08-07,109,109,
VISION-NSCLC,AE,VISION-NSCLC-SITE001-0214,1,AE1,NAUSEA,Nausea,,Nausea,10028813,Nausea and vomiting symptoms,10028817,Gastrointestinal signs and symptoms,10017999,Gastrointestinal disorders,10017947,Gastrointestinal disorders,10017947,MILD,N,DOSE NOT CHANGED,NOT RELATED,RECOVERING/RESOLVING,N,N,N,N,N,N,TREATMENT,2024-03-11,2024-03-13,8,10,
VISION-NSCLC,AE,VISION-NSCLC-SITE001-0220,1,AE1,VOMITING,Vomiting,,Vomiting,10047700,Nausea and vomiting symptoms,10028817,Gastrointestinal signs and symptoms,10017999,Gastrointestinal disorders,10017947,Gastrointestinal disorders,10017947,MODERATE,N,DOSE NOT CHANGED,NOT RELATED,NOT RECOVERED/NOT RESOLVED,N,N,N,N,N,N,TREATMENT,2024-03-29,,5,,DURING/AFTER
VISION-NSCLC,AE,VISION-NSCLC-SITE001-0220,2,AE2,VOMITING,Vomiting,,Vomiting,10047700,Nausea and vomiting symptoms,10028817,Gastrointestinal signs and symptoms,10017999,Gastrointestinal disorders,10017947,Gastrointestinal disorders,10017947,MILD,N,DOSE NOT CHANGED,UNLIKELY RELATED,RECOVERING/RESOLVING,N,N,N,N,N,N,TREATMENT,2024-04-05,2024-04-07,12,14,
VISION-NSCLC,AE,VISION-NSCLC-SITE001-0220,3,AE3,OEDEMA PERIPHERAL,Oedema peripheral,,Oedema peripheral,10030124,Oedema NEC,10030095,Oedema NEC,10064690,General disorders and administration site conditions,10018065,General disorders and administration site conditions,10018065,SEVERE,Y,DRUG INTERRUPTED,PROBABLY RELATED,RECOVERED/RESOLVED,N,N,N,Y,N,N,TREATMENT,2024-04-08,2024-04-30,15,37,
VISION-NSCLC,AE,VISION-NSCLC-SITE001-0220,4,AE4,OEDEMA PERIPHERAL,Oedema peripheral,,Oedema peripheral,10030124,Oedema NEC,10030095,Oedema NEC,10064690,General disorders and administration site conditions,10018065,General disorders and administration site conditions,10018065,MILD,N,DOSE NOT CHANGED,NOT RELATED,RECOVERED/RESOLVED,N,N,N,N,N,N,TREATMENT,2024-04-27,2024-05-07,34,44,
VISION-NSCLC,AE,VISION-NSCLC-SITE001-0220,5,AE5,OEDEMA PERIPHERAL,Oedema peripheral,,Oedema peripheral,10030124,Oedema NEC,10030095,Oedema NEC,10064690,General disorders and administration site conditions,10018065,General disorders and administration site conditions,10018065,SEVERE,Y,DRUG WITHDRAWN,PROBABLY RELATED,RECOVERED/RESOLVED,N,N,N,Y,N,N,TREATMENT,2024-05-17,2024-05-17,54,54,
VISION-NSCLC,AE,VISION-NSCLC-SITE001-0223,1,AE1,HYPOALBUMINAEMIA,Hypoalbuminaemia,,Hypoalbuminaemia,10020944,Protein metabolism disorders,10060816,Protein and amino acid metabolism disorders,10067088,Metabolism and nutrition disorders,10027433,Metabolism and nutrition disorders,10027433,MODERATE,N,DOSE NOT CHANGED,PROBABLY RELATED,RECOVERED/RESOLVED,N,N,N,N,N,N,TREATMENT,2024-04-14,2024-05-02,9,27,
VISION-NSCLC,AE,VISION-NSCLC-SITE001-0223,2,AE2,VOMITING,Vomiting,,Vomiting,10047700,Nausea and vomiting symptoms,10028817,Gastrointestinal signs and symptoms,10017999,Gastrointestinal disorders,10017947,Gastrointestinal disorders,10017947,MODERATE,N,DOSE NOT CHANGED,UNLIKELY RELATED,RECOVERED/RESOLVED,N,N,N,N,N,N,TREATMENT,2024-05-11,2024-05-12,36,37,
VISION-NSCLC,AE,VISION-NSCLC-SITE001-0223,3,AE3,ALANINE AMINOTRANSFERASE INCREASED,Alanine aminotransferase increased,,Alanine aminotransferase increased,10001551,Liver function analyses,10024689,Hepatobiliary investigations,10019843,Investigations,10022891,Investigations,10022891,MODERATE,N,DOSE NOT CHANGED,NOT RELATED,NOT RECOVERED/NOT RESOLVED,N,N,N,N,N,N,TREATMENT,2024-06-11,,67,,DURING/AFTER
VISION-NSCLC,AE,VISION-NSCLC-SITE001-0223,4,AE4,OEDEMA PERIPHERAL,Oedema peripheral,,Oedema peripheral,10030124,Oedema NEC,10030095,Oedema NEC,10064690,General disorders and administration site conditions,10018065,General disorders and administration site conditions,10018065,MILD,N,DOSE NOT CHANGED,UNLIKELY RELATED,RECOVERED/RESOLVED,N,N,N,N,N,N,TREATMENT,2024-07-16,2024-07-20,102,106,
VISION-NSCLC,AE,VISION-NSCLC-SITE001-0223,5,AE5,NAUSEA,Nausea,,Nausea,10028813,Nausea and vomiting symptoms,10028817,Gastrointestinal signs and symptoms,10017999,Gastrointestinal disorders,10017947,Gastrointestinal disorders,10017947,MODERATE,N,DOSE NOT CHANGED,UNLIKELY RELATED,UNKNOWN,N,N,N,N,N,N,TREATMENT,2024-08-19,2024-08-24,136,141,
VISION-NSCLC,AE,VISION-NSCLC-SITE001-0223,6,AE6,ALANINE AMINOTRANSFERASE INCREASED,Alanine aminotransferase increased,,Alanine aminotransferase increased,10001551,Liver function analyses,10024689,Hepatobiliary investigations,10019843,Investigations,10022891,Investigations,10022891,MODERATE,N,DOSE NOT CHANGED,NOT RELATED,RECOVERED/RESOLVED,N,N,N,N,N,N,TREATMENT,2024-09-18,2024-10-26,166,204,
VISION-NSCLC,AE,VISION-NSCLC-SITE001-0223,7,AE7,OEDEMA PERIPHERAL,Oedema peripheral,,Oedema peripheral,10030124,Oedema NEC,10030095,Oedema NEC,10064690,General disorders and administration site conditions,10018065,General disorders and administration site conditions,10018065,MILD,N,DOSE NOT CHANGED,PROBABLY RELATED,RECOVERED/RESOLVED,N,N,N,N,N,N,TREATMENT,2024-09-20,2024-09-27,168,175,
VISION-NSCLC,AE,VISION-NSCLC-SITE001-0226,1,AE1,NAUSEA,Nausea,,Nausea,10028813,Nausea and vomiting symptoms,10028817,Gastrointestinal signs and symptoms,10017999,Gastrointestinal disorders,10017947,Gastrointestinal disorders,10017947,MODERATE,N,DOSE NOT CHANGED,POSSIBLY RELATED,RECOVERED/RESOLVED,N,N,N,N,N,N,TREATMENT,2024-04-10,2024-04-15,14,19,
VISION-NSCLC,AE,VISION-NSCLC-SITE001-0226,2,AE2,NAUSEA,Nausea,,Nausea,10028813,Nausea and vomiting symptoms,10028817,Gastrointestinal signs and symptoms,10017999,Gastrointestinal disorders,10017947,Gastrointestinal disorders,10017947,SEVERE,Y,DOSE NOT CHANGED,NOT RELATED,RECOVERED/RESOLVED,N,N,N,Y,N,N,TREATMENT,2024-05-16,2024-05-19,50,53,
VISION-NSCLC,AE,VISION-NSCLC-SITE001-0226,3,AE3,OEDEMA PERIPHERAL,Oedema peripheral,,Oedema peripheral,10030124,Oedema NEC,10030095,Oedema NEC,10064690,General disorders and administration site conditions,10018065,General disorders and administration site conditions,10018065,MILD,N,DOSE NOT CHANGED,UNLIKELY RELATED,RECOVERING/RESOLVING,N,N,N,N,N,N,TREATMENT,2024-05-17,2024-05-27,51,61,
VISION-NSCLC,AE,VISION-NSCLC-SITE001-0226,4,AE4,DIARRHOEA,Diarrhoea,,Diarrhoea,10012735,Diarrhoea (excl infective),10012736,Gastrointestinal motility and defaecation conditions,10017983,Gastrointestinal disorders,10017947,Gastrointestinal disorders,10017947,SEVERE,Y,DOSE NOT CHANGED,NOT RELATED,NOT RECOVERED/NOT RESOLVED,N,N,N,Y,N,N,TREATMENT,2024-05-22,,56,,DURING/AFTER
VISION-NSCLC,AE,VISION-NSCLC-SITE001-0226,5,AE5,NAUSEA,Nausea,,Nausea,10028813,Nausea and vomiting symptoms,10028817,Gastrointestinal signs and symptoms,10017999,Gastrointestinal disorders,10017947,Gastrointestinal disorders,10017947,MILD,N,DOSE NOT CHANGED,NOT RELATED,RECOVERED/RESOLVED,N,N,N,N,N,N,TREATMENT,2024-05-23,2024-05-25,57,59,
VISION-NSCLC,AE,VISION-NSCLC-SITE001-0226,6,AE6,ALANINE AMINOTRANSFERASE INCREASED,Alanine aminotransferase increased,,Alanine aminotransferase increased,10001551,Liver function analyses,10024689,Hepatobiliary investigations,10019843,Investigations,10022891,Investigations,10022891,MILD,N,DOSE NOT CHANGED,UNLIKELY RELATED,RECOVERED/RESOLVED,N,N,N,N,N,N,TREATMENT,2024-06-30,2024-07-20,95,115,
VISION-NSCLC,AE,VISION-NSCLC-SITE001-0226,7,AE7,BLOOD CREATININE INCREASED,Blood creatinine increased,,Blood creatinine increased,10005483,Renal function analyses,10038432,Renal and urinary tract investigations and urinalyses,10062225,Investigations,10022891,Investigations,10022891,MILD,N,DOSE NOT CHANGED,POSSIBLY RELATED,NOT RECOVERED/NOT RESOLVED,N,N,N,N,N,N,TREATMENT,2024-07-20,,115,,DURING/AFTER
VISION-NSCLC,AE,VISION-NSCLC-SITE001-0226,8,AE8,NAUSEA,Nausea,,Nausea,10028813,Nausea and vomiting symptoms,10028817,Gastrointestinal signs and symptoms,10017999,Gastrointestinal disorders,10017947,Gastrointestinal disorders,10017947,MODERATE,N,DOSE REDUCED,POSSIBLY RELATED,RECOVERED/RESOLVED,N,N,N,N,N,N,TREATMENT,2024-07-31,2024-08-03,126,129,
VISION-NSCLC,AE,VISION-NSCLC-SITE001-0229,1,AE1,DIARRHOEA,Diarrhoea,,Diarrhoea,10012735,Diarrhoea (excl infective),10012736,Gastrointestinal motility and defaecation conditions,10017983,Gastrointestinal disorders,10017947,Gastrointestinal disorders,10017947,MILD,N,DOSE NOT CHANGED,NOT RELATED,RECOVERED/RESOLVED,N,N,N,N,N,N,TREATMENT,2024-04-24,2024-04-27,3,6,
VISION-NSCLC,AE,VISION-NSCLC-SITE001-0229,2,AE2,BLOOD CREATININE INCREASED,Blood creatinine increased,,Blood creatinine increased,10005483,Renal function analyses,10038432,Renal and urinary tract investigations and urinalyses,10062225,Investigations,10022891,Investigations,10022891,SEVERE,Y,DOSE NOT CHANGED,NOT RELATED,NOT RECOVERED/NOT RESOLVED,N,N,N,N,N,Y,TREATMENT,2024-05-08,,17,,DURING/AFTER
VISION-NSCLC,AE,VISION-NSCLC-SITE001-0229,3,AE3,PNEUMONIA,Pneumonia,,Pneumonia,10035664,Lower respiratory and lung infections,10024968,Infections NEC,10021902,Infections and infestations,10021881,Infections and infestations,10021881,SEVERE,Y,DOSE NOT CHANGED,NOT RELATED,RECOVERED/RESOLVED,N,N,N,Y,N,N,TREATMENT,2024-05-25,2024-07-19,34,89,
VISION-NSCLC,AE,VISION-NSCLC-SITE001-0229,4,AE4,DIARRHOEA,Diarrhoea,,Diarrhoea,10012735,Diarrhoea (excl infective),10012736,Gastrointestinal motility and defaecation conditions,10017983,Gastrointestinal disorders,10017947,Gastrointestinal disorders,10017947,MILD,N,DOSE NOT CHANGED,POSSIBLY RELATED,RECOVERED/RESOLVED,N,N,N,N,N,N,TREATMENT,2024-06-02,2024-06-05,42,45,
VISION-NSCLC,AE,VISION-NSCLC-SITE001-0229,5,AE5,DIARRHOEA,Diarrhoea,,Diarrhoea,10012735,Diarrhoea (excl infective),10012736,Gastrointestinal motility and defaecation conditions,10017983,Gastrointestinal disorders,10017947,Gastrointestinal disorders,10017947,MILD,N,DOSE NOT CHANGED,POSSIBLY RELATED,RECOVERED/RESOLVED,N,N,N,N,N,N,TREATMENT,2024-06-04,2024-06-06,44,46,
VISION-NSCLC,AE,VISION-NSCLC-SITE001-0229,6,AE6,ASPARTATE AMINOTRANSFERASE INCREASED,Aspartate aminotransferase increased,,Aspartate aminotransferase increased,10003481,Liver function analyses,10024689,Hepatobiliary investigations,10019843,Investigations,10022891,Investigations,10022891,MODERATE,N,DOSE NOT CHANGED,UNLIKELY RELATED,RECOVERED/RESOLVED,N,N,N,N,N,N,TREATMENT,2024-06-20,2024-07-14,60,84,
VISION-NSCLC,AE,VISION-NSCLC-SITE001-0229,7,AE7,OEDEMA PERIPHERAL,Oedema peripheral,,Oedema peripheral,10030124,Oedema NEC,10030095,Oedema NEC,10064690,General disorders and administration site conditions,10018065,General disorders and administration site conditions,10018065,MILD,N,DOSE NOT CHANGED,PROBABLY RELATED,RECOVERED/RESOLVED,N,N,N,N,N,N,TREATMENT,2024-07-12,2024-07-22,82,92,
VISION-NSCLC,AE,VISION-NSCLC-SITE001-0229,8,AE8,FATIGUE,Fatigue,,Fatigue,10016256,Asthenic conditions,10003550,General system disorders NEC,10060892,General disorders and administration site conditions,10018065,General disorders and administration site conditions,10018065,MILD,N,DOSE NOT CHANGED,NOT RELATED,RECOVERED/RESOLVED,N,N,N,N,N,N,TREATMENT,2024-07-14,2024-07-23,84,93,
VISION-NSCLC,AE,VISION-NSCLC-SITE001-0229,9,AE9,OEDEMA PERIPHERAL,Oedema peripheral,,Oedema peripheral,10030124,Oedema NEC,10030095,Oedema NEC,10064690,General disorders and administration site conditions,10018065,General disorders and administration site conditions,10018065,MILD,N,DOSE NOT CHANGED,NOT RELATED,RECOVERED/RESOLVED,N,N,N,N,N,N,TREATMENT,2024-07-15,2024-07-16,85,86,
VISION-NSCLC,AE,VISION-NSCLC-SITE001-0229,10,AE10,DYSPNOEA,Dyspnoea,,Dyspnoea,10013968,Breathing abnormalities,10006486,Respiratory tract signs and symptoms,10038734,"Respiratory, thoracic and mediastinal disorders",10038738,"Respiratory, thoracic and mediastinal disorders",10038738,SEVERE,Y,DOSE NOT CHANGED,NOT RELATED,RECOVERING/RESOLVING,N,N,N,Y,N,N,TREATMENT,2024-09-06,2024-09-23,138,155,
VISION-NSCLC,AE,VISION-NSCLC-SITE001-0229,11,AE11,OEDEMA PERIPHERAL,Oedema peripheral,,Oedema peripheral,10030124,Oedema NEC,10030095,Oedema NEC,10064690,General disorders and administration site conditions,10018065,General disorders and administration site conditions,10018065,SEVERE,Y,DRUG INTERRUPTED,PROBABLY RELATED,RECOVERED/RESOLVED,N,N,N,Y,N,N,TREATMENT,2024-09-07,2024-10-24,139,186,
VISION-NSCLC,AE,VISION-NSCLC-SITE001-0229,12,AE12,HYPOALBUMINAEMIA,Hypoalbuminaemia,,Hypoalbuminaemia,10020944,Protein metabolism disorders,10060816,Protein and amino acid metabolism disorders,10067088,Metabolism and nutrition disorders,10027433,Metabolism and nutrition disorders,10027433,MILD,N,DOSE NOT CHANGED,NOT RELATED,RECOVERED/RESOLVED WITH SEQUELAE,N,N,N,N,N,N,TREATMENT,2024-09-08,2024-09-10,140,142,
VISION-NSCLC,AE,VISION-NSCLC-SITE001-0229,13,AE13,VOMITING,Vomiting,,Vomiting,10047700,Nausea and vomiting symptoms,10028817,Gastrointestinal signs and symptoms,10017999,Gastrointestinal disorders,10017947,Gastrointestinal disorders,10017947,SEVERE,Y,DRUG INTERRUPTED,POSSIBLY RELATED,RECOVERED/RESOLVED,N,N,N,N,N,Y,TREATMENT,2024-09-16,2024-09-19,148,151,
VISION-NSCLC,AE,VISION-NSCLC-SITE001-0229,14,AE14,DIARRHOEA,Diarrhoea,,Diarrhoea,10012735,Diarrhoea (excl infective),10012736,Gastrointestinal motility and defaecation conditions,10017983,Gastrointestinal disorders,10017947,Gastrointestinal disorders,10017947,MODERATE,N,DOSE NOT CHANGED,PROBABLY RELATED,RECOVERED/RESOLVED,N,N,N,N,N,N,TREATMENT,2024-09-24,2024-10-02,156,164,
VISION-NSCLC,AE,VISION-NSCLC-SITE001-0232,1,AE1,OEDEMA PERIPHERAL,Oedema peripheral,,Oedema peripheral,10030124,Oedema NEC,10030095,Oedema NEC,10064690,General disorders and administration site conditions,10018065,General disorders and administration site conditions,10018065,SEVERE,Y,DRUG INTERRUPTED,POSSIBLY RELATED,RECOVERED/RESOLVED,N,N,N,Y,N,N,TREATMENT,2024-03-02,2024-03-15,15,28,
VISION-NSCLC,AE,VISION-NSCLC-SITE001-0235,1,AE1,DIARRHOEA,Diarrhoea,,Diarrhoea,10012735,Diarrhoea (excl infective),10012736,Gastrointestinal motility and defaecation conditions,10017983,Gastrointestinal disorders,10017947,Gastrointestinal disorders,10017947,MILD,N,DOSE NOT CHANGED,UNLIKELY RELATED,RECOVERED/RESOLVED,N,N,N,N,N,N,TREATMENT,2024-06-28,2024-06-29,46,47,
VISION-NSCLC,AE,VISION-NSCLC-SITE001-0235,2,AE2,NAUSEA,Nausea,,Nausea,10028813,Nausea and vomiting symptoms,10028817,Gastrointestinal signs and symptoms,10017999,Gastrointestinal disorders,10017947,Gastrointestinal disorders,10017947,MODERATE,N,DOSE NOT CHANGED,NOT RELATED,RECOVERED/RESOLVED WITH SEQUELAE,N,N,N,N,N,N,TREATMENT,2024-07-08,2024-07-12,56,60,
VISION-NSCLC,AE,VISION-NSCLC-SITE001-0235,3,AE3,OEDEMA PERIPHERAL,Oedema peripheral,,Oedema peripheral,10030124,Oedema NEC,10030095,Oedema NEC,10064690,General disorders and administration site conditions,10018065,General disorders and administration site conditions,10018065,MILD,N,DOSE NOT CHANGED,POSSIBLY RELATED,RECOVERED/RESOLVED,N,N,N,N,N,N,TREATMENT,2024-07-29,2024-07-31,77,79,
VISION-NSCLC,AE,VISION-NSCLC-SITE001-0238,1,AE1,DIARRHOEA,Diarrhoea,,Diarrhoea,10012735,Diarrhoea (excl infective),10012736,Gastrointestinal motility and defaecation conditions,10017983,Gastrointestinal disorders,10017947,Gastrointestinal disorders,10017947,MODERATE,N,DOSE REDUCED,POSSIBLY RELATED,RECOVERED/RESOLVED,N,N,N,N,N,N,TREATMENT,2024-04-21,2024-04-24,13,16,
VISION-NSCLC,AE,VISION-NSCLC-SITE001-0238,2,AE2,NAUSEA,Nausea,,Nausea,10028813,Nausea and vomiting symptoms,10028817,Gastrointestinal signs and symptoms,10017999,Gastrointestinal disorders,10017947,Gastrointestinal disorders,10017947,MODERATE,N,DOSE NOT CHANGED,NOT RELATED,RECOVERING/RESOLVING,N,N,N,N,N,N,TREATMENT,2024-05-31,2024-06-03,53,56,
VISION-NSCLC,AE,VISION-NSCLC-SITE001-0238,3,AE3,OEDEMA PERIPHERAL,Oedema peripheral,,Oedema peripheral,10030124,Oedema NEC,10030095,Oedema NEC,10064690,General disorders and administration site conditions,10018065,General disorders and administration site conditions,10018065,MILD,N,DOSE NOT CHANGED,NOT RELATED,RECOVERED/RESOLVED,N,N,N,N,N,N,TREATMENT,2024-06-08,2024-06-20,61,73,
VISION-NSCLC,AE,VISION-NSCLC-SITE001-0238,4,AE4,DYSPNOEA,Dyspnoea,,Dyspnoea,10013968,Breathing abnormalities,10006486,Respiratory tract signs and symptoms,10038734,"Respiratory, thoracic and mediastinal disorders",10038738,"Respiratory, thoracic and mediastinal disorders",10038738,MODERATE,N,DOSE NOT CHANGED,RELATED,RECOVERED/RESOLVED,N,N,N,N,N,N,TREATMENT,2024-07-10,2024-07-28,93,111,
VISION-NSCLC,AE,VISION-NSCLC-SITE001-0238,5,AE5,OEDEMA PERIPHERAL,Oedema peripheral,,Oedema peripheral,10030124,Oedema NEC,10030095,Oedema NEC,10064690,General disorders and administration site conditions,10018065,General disorders and administration site conditions,10018065,MODERATE,N,DOSE NOT CHANGED,NOT RELATED,RECOVERED/RESOLVED,N,N,N,N,N,N,TREATMENT,2024-08-13,2024-09-06,127,151,
VISION-NSCLC,AE,VISION-NSCLC-SITE001-0238,6,AE6,DYSPNOEA,Dyspnoea,,Dyspnoea,10013968,Breathing abnormalities,10006486,Respiratory tract signs and symptoms,10038734,"Respiratory, thoracic and mediastinal disorders",10038738,"Respiratory, thoracic and mediastinal disorders",10038738,MILD,N,DOSE NOT CHANGED,NOT RELATED,RECOVERED/RESOLVED,N,N,N,N,N,N,TREATMENT,2024-09-22,2024-10-04,167,179,
VISION-NSCLC,AE,VISION-NSCLC-SITE001-0241,1,AE1,FATIGUE,Fatigue,,Fatigue,10016256,Asthenic conditions,10003550,General system disorders NEC,10060892,General disorders and administration site conditions,10018065,General disorders and administration site conditions,10018065,MILD,N,DOSE NOT CHANGED,NOT RELATED,UNKNOWN,N,N,N,N,N,N,TREATMENT,2024-04-09,2024-04-17,31,39,
VISION-NSCLC,AE,VISION-NSCLC-SITE001-0241,2,AE2,DIARRHOEA,Diarrhoea,,Diarrhoea,10012735,Diarrhoea (excl infective),10012736,Gastrointestinal motility and defaecation conditions,10017983,Gastrointestinal disorders,10017947,Gastrointestinal disorders,10017947,MODERATE,N,DOSE NOT CHANGED,POSSIBLY RELATED,RECOVERED/RESOLVED,N,N,N,N,N,N,TREATMENT,2024-05-23,2024-06-07,75,90,
VISION-NSCLC,AE,VISION-NSCLC-SITE001-0241,3,AE3,NAUSEA,Nausea,,Nausea,10028813,Nausea and vomiting symptoms,10028817,Gastrointestinal signs and symptoms,10017999,Gastrointestinal disorders,10017947,Gastrointestinal disorders,10017947,MODERATE,N,DRUG INTERRUPTED,PROBABLY RELATED,NOT RECOVERED/NOT RESOLVED,N,N,N,N,N,N,TREATMENT,2024-05-25,,77,,DURING/AFTER
VISION-NSCLC,AE,VISION-NSCLC-SITE001-0241,4,AE4,DYSPNOEA,Dyspnoea,,Dyspnoea,10013968,Breathing abnormalities,10006486,Respiratory tract signs and symptoms,10038734,"Respiratory, thoracic and mediastinal disorders",10038738,"Respiratory, thoracic and mediastinal disorders",10038738,MILD,N,DOSE NOT CHANGED,PROBABLY RELATED,RECOVERED/RESOLVED,N,N,N,N,N,N,TREATMENT,2024-06-08,2024-06-16,91,99,
VISION-NSCLC,AE,VISION-NSCLC-SITE001-0241,5,AE5,PLEURAL EFFUSION,Pleural effusion,,Pleural effusion,10035598,Pleural conditions and effusions NEC,10035599,Respiratory disorders NEC,10063479,"Respiratory, thoracic and mediastinal disorders",10038738,"Respiratory, thoracic and mediastinal disorders",10038738,MILD,N,DOSE NOT CHANGED,POSSIBLY RELATED,RECOVERED/RESOLVED,N,N,N,N,N,N,TREATMENT,2024-08-14,2024-08-26,158,170,
VISION-NSCLC,AE,VISION-NSCLC-SITE001-0244,1,AE1,VOMITING,Vomiting,,Vomiting,10047700,Nausea and vomiting symptoms,10028817,Gastrointestinal signs and symptoms,10017999,Gastrointestinal disorders,10017947,Gastrointestinal disorders,10017947,SEVERE,Y,DOSE NOT CHANGED,NOT RELATED,RECOVERED/RESOLVED,N,N,N,Y,N,N,TREATMENT,2024-05-22,2024-06-02,35,46,
VISION-NSCLC,AE,VISION-NSCLC-SITE001-0244,2,AE2,OEDEMA PERIPHERAL,Oedema peripheral,,Oedema peripheral,10030124,Oedema NEC,10030095,Oedema NEC,10064690,General disorders and administration site conditions,10018065,General disorders and administration site conditions,10018065,MILD,N,DOSE NOT CHANGED,RELATED,RECOVERED/RESOLVED,N,N,N,N,N,N,TREATMENT,2024-05-26,2024-05-28,39,41,
VISION-NSCLC,AE,VISION-NSCLC-SITE001-0244,3,AE3,OEDEMA PERIPHERAL,Oedema peripheral,,Oedema peripheral,10030124,Oedema NEC,10030095,Oedema NEC,10064690,General disorders and administration site conditions,10018065,General disorders and administration site conditions,10018065,SEVERE,Y,DOSE NOT CHANGED,UNLIKELY RELATED,RECOVERED/RESOLVED,N,N,N,Y,N,N,TREATMENT,2024-06-28,2024-07-06,72,80,
VISION-NSCLC,AE,VISION-NSCLC-SITE001-0244,4,AE4,ALANINE AMINOTRANSFERASE INCREASED,Alanine aminotransferase increased,,Alanine aminotransferase increased,10001551,Liver function analyses,10024689,Hepatobiliary investigations,10019843,Investigations,10022891,Investigations,10022891,MILD,N,DOSE NOT CHANGED,NOT RELATED,RECOVERED/RESOLVED,N,N,N,N,N,N,TREATMENT,2024-07-23,2024-08-08,97,113,
VISION-NSCLC,AE,VISION-NSCLC-SITE001-0244,5,AE5,PLEURAL EFFUSION,Pleural effusion,,Pleural effusion,10035598,Pleural conditions and effusions NEC,10035599,Respiratory disorders NEC,10063479,"Respiratory, thoracic and mediastinal disorders",10038738,"Respiratory, thoracic and mediastinal disorders",10038738,MODERATE,N,DOSE REDUCED,POSSIBLY RELATED,RECOVERED/RESOLVED,N,N,N,N,N,N,TREATMENT,2024-08-06,2024-08-07,111,112,
VISION-NSCLC,AE,VISION-NSCLC-SITE001-0244,6,AE6,OEDEMA PERIPHERAL,Oedema peripheral,,Oedema peripheral,10030124,Oedema NEC,10030095,Oedema NEC,10064690,General disorders and administration site conditions,10018065,General disorders and administration site conditions,10018065,MILD,N,DOSE NOT CHANGED,NOT RELATED,RECOVERED/RESOLVED,N,N,N,N,N,N,TREATMENT,2024-08-08,2024-08-17,113,122,
VISION-NSCLC,AE,VISION-NSCLC-SITE001-0244,7,AE7,DYSPNOEA,Dyspnoea,,Dyspnoea,10013968,Breathing abnormalities,10006486,Respiratory tract signs and symptoms,10038734,"Respiratory, thoracic and mediastinal disorders",10038738,"Respiratory, thoracic and mediastinal disorders",10038738,MILD,N,DOSE NOT CHANGED,POSSIBLY RELATED,RECOVERED/RESOLVED,N,N,N,N,N,N,TREATMENT,2024-08-15,2024-08-17,120,122,
VISION-NSCLC,AE,VISION-NSCLC-SITE001-0244,8,AE8,OEDEMA PERIPHERAL,Oedema peripheral,,Oedema peripheral,10030124,Oedema NEC,10030095,Oedema NEC,10064690,General disorders and administration site conditions,10018065,General disorders and administration site conditions,10018065,SEVERE,Y,DOSE NOT CHANGED,UNLIKELY RELATED,RECOVERED/RESOLVED,N,N,N,N,N,Y,TREATMENT,2024-09-02,2024-10-08,138,174,
VISION-NSCLC,AE,VISION-NSCLC-SITE001-0244,9,AE9,FATIGUE,Fatigue,,Fatigue,10016256,Asthenic conditions,10003550,General system disorders NEC,10060892,General disorders and administration site conditions,10018065,General disorders and administration site conditions,10018065,MODERATE,N,DOSE NOT CHANGED,NOT RELATED,RECOVERED/RESOLVED,N,N,N,N,N,N,TREATMENT,2024-09-04,2024-10-08,140,174,
VISION-NSCLC,AE,VISION-NSCLC-SITE001-0244,10,AE10,OEDEMA PERIPHERAL,Oedema peripheral,,Oedema peripheral,10030124,Oedema NEC,10030095,Oedema NEC,10064690,General disorders and administration site conditions,10018065,General disorders and administration site conditions,10018065,MILD,N,DOSE NOT CHANGED,NOT RELATED,RECOVERING/RESOLVING,N,N,N,N,N,N,TREATMENT,2024-09-15,2024-09-17,151,153,
VISION-NSCLC,AE,VISION-NSCLC-SITE001-0244,11,AE11,OEDEMA PERIPHERAL,Oedema peripheral,,Oedema peripheral,10030124,Oedema NEC,10030095,Oedema NEC,10064690,General disorders and administration site conditions,10018065,General disorders and administration site conditions,10018065,MILD,N,DOSE NOT CHANGED,PROBABLY RELATED,RECOVERED/RESOLVED,N,N,N,N,N,N,TREATMENT,2024-09-18,2024-09-25,154,161,
VISION-NSCLC,AE,VISION-NSCLC-SITE001-0244,12,AE12,VOMITING,Vomiting,,Vomiting,10047700,Nausea and vomiting symptoms,10028817,Gastrointestinal signs and symptoms,10017999,Gastrointestinal disorders,10017947,Gastrointestinal disorders,10017947,MILD,N,DOSE NOT CHANGED,NOT RELATED,RECOVERED/RESOLVED,N,N,N,N,N,N,TREATMENT,2024-09-21,2024-09-23,157,159,
VISION-NSCLC,AE,VISION-NSCLC-SITE001-0244,13,AE13,DIARRHOEA,Diarrhoea,,Diarrhoea,10012735,Diarrhoea (excl infective),10012736,Gastrointestinal motility and defaecation conditions,10017983,Gastrointestinal disorders,10017947,Gastrointestinal disorders,10017947,SEVERE,Y,DOSE NOT CHANGED,NOT RELATED,RECOVERED/RESOLVED,N,N,N,Y,N,N,TREATMENT,2024-09-22,2024-10-13,158,179,
VISION-NSCLC,AE,VISION-NSCLC-SITE001-0247,1,AE1,OEDEMA PERIPHERAL,Oedema peripheral,,Oedema peripheral,10030124,Oedema NEC,10030095,Oedema NEC,10064690,General disorders and administration site conditions,10018065,General disorders and administration site conditions,10018065,SEVERE,Y,DOSE NOT CHANGED,NOT RELATED,RECOVERED/RESOLVED,N,N,N,Y,N,N,TREATMENT,2024-05-03,2024-05-12,8,17,
VISION-NSCLC,AE,VISION-NSCLC-SITE001-0247,2,AE2,VOMITING,Vomiting,,Vomiting,10047700,Nausea and vomiting symptoms,10028817,Gastrointestinal signs and symptoms,10017999,Gastrointestinal disorders,10017947,Gastrointestinal disorders,10017947,MODERATE,N,DOSE NOT CHANGED,NOT RELATED,RECOVERED/RESOLVED,N,N,N,N,N,N,TREATMENT,2024-05-10,2024-05-11,15,16,
VISION-NSCLC,AE,VISION-NSCLC-SITE001-0247,3,AE3,PULMONARY EMBOLISM,Pulmonary embolism,,Pulmonary embolism,10037377,Embolism and thrombosis,10014513,Embolism and thrombosis,10061169,Vascular disorders,10047065,Vascular disorders,10047065,MILD,N,DOSE NOT CHANGED,NOT RELATED,RECOVERED/RESOLVED WITH SEQUELAE,N,N,N,N,N,N,TREATMENT,2024-05-10,2024-05-13,15,18,
VISION-NSCLC,AE,VISION-NSCLC-SITE001-0247,4,AE4,NAUSEA,Nausea,,Nausea,10028813,Nausea and vomiting symptoms,10028817,Gastrointestinal signs and symptoms,10017999,Gastrointestinal disorders,10017947,Gastrointestinal disorders,10017947,SEVERE,Y,DOSE NOT CHANGED,UNLIKELY RELATED,RECOVERING/RESOLVING,N,N,N,Y,N,N,TREATMENT,2024-05-17,2024-05-23,22,28,
VISION-NSCLC,AE,VISION-NSCLC-SITE001-0247,5,AE5,DIARRHOEA,Diarrhoea,,Diarrhoea,10012735,Diarrhoea (excl infective),10012736,Gastrointestinal motility and defaecation conditions,10017983,Gastrointestinal disorders,10017947,Gastrointestinal disorders,10017947,SEVERE,Y,DOSE REDUCED,RELATED,RECOVERING/RESOLVING,N,N,N,N,N,Y,TREATMENT,2024-05-17,2024-05-27,22,32,
VISION-NSCLC,AE,VISION-NSCLC-SITE001-0247,6,AE6,OEDEMA PERIPHERAL,Oedema peripheral,,Oedema peripheral,10030124,Oedema NEC,10030095,Oedema NEC,10064690,General disorders and administration site conditions,10018065,General disorders and administration site conditions,10018065,MODERATE,N,DRUG INTERRUPTED,POSSIBLY RELATED,RECOVERED/RESOLVED,N,N,N,N,N,N,TREATMENT,2024-06-16,2024-07-04,52,70,
VISION-NSCLC,AE,VISION-NSCLC-SITE001-0247,7,AE7,NAUSEA,Nausea,,Nausea,10028813,Nausea and vomiting symptoms,10028817,Gastrointestinal signs and symptoms,10017999,Gastrointestinal disorders,10017947,Gastrointestinal disorders,10017947,SEVERE,Y,DRUG INTERRUPTED,POSSIBLY RELATED,RECOVERED/RESOLVED,N,N,N,Y,N,N,TREATMENT,2024-06-21,2024-06-25,57,61,
VISION-NSCLC,AE,VISION-NSCLC-SITE001-0247,8,AE8,BLOOD CREATININE INCREASED,Blood creatinine increased,,Blood creatinine increased,10005483,Renal function analyses,10038432,Renal and urinary tract investigations and urinalyses,10062225,Investigations,10022891,Investigations,10022891,MILD,N,DOSE NOT CHANGED,PROBABLY RELATED,RECOVERING/RESOLVING,N,N,N,N,N,N,TREATMENT,2024-06-25,2024-07-02,61,68,
VISION-NSCLC,AE,VISION-NSCLC-SITE001-0247,9,AE9,ALANINE AMINOTRANSFERASE INCREASED,Alanine aminotransferase increased,,Alanine aminotransferase increased,10001551,Liver function analyses,10024689,Hepatobiliary investigations,10019843,Investigations,10022891,Investigations,10022891,MILD,N,DOSE NOT CHANGED,UNLIKELY RELATED,RECOVERED/RESOLVED,N,N,N,N,N,N,TREATMENT,2024-07-05,2024-07-23,71,89,
VISION-NSCLC,AE,VISION-NSCLC-SITE001-0247,10,AE10,DIARRHOEA,Diarrhoea,,Diarrhoea,10012735,Diarrhoea (excl infective),10012736,Gastrointestinal motility and defaecation conditions,10017983,Gastrointestinal disorders,10017947,Gastrointestinal disorders,10017947,MILD,N,DOSE NOT CHANGED,NOT RELATED,RECOVERED/RESOLVED,N,N,N,N,N,N,TREATMENT,2024-07-07,2024-07-10,73,76,
VISION-NSCLC,AE,VISION-NSCLC-SITE001-0247,11,AE11,VOMITING,Vomiting,,Vomiting,10047700,Nausea and vomiting symptoms,10028817,Gastrointestinal signs and symptoms,10017999,Gastrointestinal disorders,10017947,Gastrointestinal disorders,10017947,SEVERE,Y,DOSE REDUCED,POSSIBLY RELATED,RECOVERED/RESOLVED,N,N,N,Y,N,N,TREATMENT,2024-07-23,2024-07-28,89,94,
VISION-NSCLC,AE,VISION-NSCLC-SITE001-0247,12,AE12,HYPOALBUMINAEMIA,Hypoalbuminaemia,,Hypoalbuminaemia,10020944,Protein metabolism disorders,10060816,Protein and amino acid metabolism disorders,10067088,Metabolism and nutrition disorders,10027433,Metabolism and nutrition disorders,10027433,MILD,N,DOSE NOT CHANGED,POSSIBLY RELATED,RECOVERED/RESOLVED,N,N,N,N,N,N,TREATMENT,2024-08-24,2024-09-04,121,132,
VISION-NSCLC,AE,VISION-NSCLC-SITE001-0247,13,AE13,OEDEMA PERIPHERAL,Oedema peripheral,,Oedema peripheral,10030124,Oedema NEC,10030095,Oedema NEC,10064690,General disorders and administration site conditions,10018065,General disorders and administration site conditions,10018065,MILD,N,DOSE REDUCED,RELATED,RECOVERED/RESOLVED,N,N,N,N,N,N,TREATMENT,2024-08-27,2024-08-31,124,128,
VISION-NSCLC,AE,VISION-NSCLC-SITE001-0247,14,AE14,FATIGUE,Fatigue,,Fatigue,10016256,Asthenic conditions,10003550,General system disorders NEC,10060892,General disorders and administration site conditions,10018065,General disorders and administration site conditions,10018065,SEVERE,Y,DRUG INTERRUPTED,POSSIBLY RELATED,RECOVERING/RESOLVING,N,N,N,N,N,Y,TREATMENT,2024-09-22,2024-11-14,150,203,
VISION-NSCLC,AE,VISION-NSCLC-SITE001-0247,15,AE15,NAUSEA,Nausea,,Nausea,10028813,Nausea and vomiting symptoms,10028817,Gastrointestinal signs and symptoms,10017999,Gastrointestinal disorders,10017947,Gastrointestinal disorders,10017947,MODERATE,N,DOSE NOT CHANGED,NOT RELATED,RECOVERED/RESOLVED,N,N,N,N,N,N,TREATMENT,2024-09-26,2024-10-03,154,161,
VISION-NSCLC,AE,VISION-NSCLC-SITE001-0250,1,AE1,OEDEMA PERIPHERAL,Oedema peripheral,,Oedema peripheral,10030124,Oedema NEC,10030095,Oedema NEC,10064690,General disorders and administration site conditions,10018065,General disorders and administration site conditions,10018065,SEVERE,Y,DOSE NOT CHANGED,NOT RELATED,RECOVERED/RESOLVED,N,N,N,Y,N,N,TREATMENT,2024-04-13,2024-04-25,3,15,
VISION-NSCLC,AE,VISION-NSCLC-SITE001-0250,2,AE2,NAUSEA,Nausea,,Nausea,10028813,Nausea and vomiting symptoms,10028817,Gastrointestinal signs and symptoms,10017999,Gastrointestinal disorders,10017947,Gastrointestinal disorders,10017947,MILD,N,DOSE NOT CHANGED,UNLIKELY RELATED,RECOVERED/RESOLVED,N,N,N,N,N,N,TREATMENT,2024-04-15,2024-04-18,5,8,
VISION-NSCLC,AE,VISION-NSCLC-SITE001-0250,3,AE3,DIARRHOEA,Diarrhoea,,Diarrhoea,10012735,Diarrhoea (excl infective),10012736,Gastrointestinal motility and defaecation conditions,10017983,Gastrointestinal disorders,10017947,Gastrointestinal disorders,10017947,MODERATE,N,DOSE NOT CHANGED,RELATED,RECOVERED/RESOLVED,N,N,N,N,N,N,TREATMENT,2024-04-15,2024-04-29,5,19,
VISION-NSCLC,AE,VISION-NSCLC-SITE001-0250,4,AE4,PULMONARY EMBOLISM,Pulmonary embolism,,Pulmonary embolism,10037377,Embolism and thrombosis,10014513,Embolism and thrombosis,10061169,Vascular disorders,10047065,Vascular disorders,10047065,SEVERE,Y,DRUG INTERRUPTED,POSSIBLY RELATED,RECOVERED/RESOLVED,N,N,N,Y,N,N,TREATMENT,2024-05-06,2024-06-07,26,58,
VISION-NSCLC,AE,VISION-NSCLC-SITE001-0250,5,AE5,OEDEMA PERIPHERAL,Oedema peripheral,,Oedema peripheral,10030124,Oedema NEC,10030095,Oedema NEC,10064690,General disorders and administration site conditions,10018065,General disorders and administration site conditions,10018065,MODERATE,N,DOSE NOT CHANGED,NOT RELATED,RECOVERED/RESOLVED,N,N,N,N,N,N,TREATMENT,2024-05-13,2024-05-29,33,49,
VISION-NSCLC,AE,VISION-NSCLC-SITE001-0250,6,AE6,DIARRHOEA,Diarrhoea,,Diarrhoea,10012735,Diarrhoea (excl infective),10012736,Gastrointestinal motility and defaecation conditions,10017983,Gastrointestinal disorders,10017947,Gastrointestinal disorders,10017947,MILD,N,DOSE NOT CHANGED,NOT RELATED,RECOVERED/RESOLVED,N,N,N,N,N,N,TREATMENT,2024-05-24,2024-05-29,44,49,
VISION-NSCLC,AE,VISION-NSCLC-SITE001-0250,7,AE7,DYSPNOEA,Dyspnoea,,Dyspnoea,10013968,Breathing abnormalities,10006486,Respiratory tract signs and symptoms,10038734,"Respiratory, thoracic and mediastinal disorders",10038738,"Respiratory, thoracic and mediastinal disorders",10038738,MODERATE,N,DRUG INTERRUPTED,POSSIBLY RELATED,RECOVERING/RESOLVING,N,N,N,N,N,N,TREATMENT,2024-05-26,2024-06-14,46,65,
VISION-NSCLC,AE,VISION-NSCLC-SITE001-0250,8,AE8,DYSPNOEA,Dyspnoea,,Dyspnoea,10013968,Breathing abnormalities,10006486,Respiratory tract signs and symptoms,10038734,"Respiratory, thoracic and mediastinal disorders",10038738,"Respiratory, thoracic and mediastinal disorders",10038738,MODERATE,N,DRUG INTERRUPTED,POSSIBLY RELATED,RECOVERED/RESOLVED,N,N,N,N,N,N,TREATMENT,2024-07-31,2024-08-08,112,120,
VISION-NSCLC,AE,VISION-NSCLC-SITE001-0250,9,AE9,NAUSEA,Nausea,,Nausea,10028813,Nausea and vomiting symptoms,10028817,Gastrointestinal signs and symptoms,10017999,Gastrointestinal disorders,10017947,Gastrointestinal disorders,10017947,MILD,N,DOSE NOT CHANGED,NOT RELATED,RECOVERING/RESOLVING,N,N,N,N,N,N,TREATMENT,2024-08-05,2024-08-06,117,118,
VISION-NSCLC,AE,VISION-NSCLC-SITE001-0250,10,AE10,PLEURAL EFFUSION,Pleural effusion,,Pleural effusion,10035598,Pleural conditions and effusions NEC,10035599,Respiratory disorders NEC,10063479,"Respiratory, thoracic and mediastinal disorders",10038738,"Respiratory, thoracic and mediastinal disorders",10038738,MILD,N,DOSE REDUCED,PROBABLY RELATED,RECOVERED/RESOLVED,N,N,N,N,N,N,TREATMENT,2024-08-08,2024-08-09,120,121,
VISION-NSCLC,AE,VISION-NSCLC-SITE001-0250,11,AE11,OEDEMA PERIPHERAL,Oedema peripheral,,Oedema peripheral,10030124,Oedema NEC,10030095,Oedema NEC,10064690,General disorders and administration site conditions,10018065,General disorders and administration site conditions,10018065,MILD,N,DOSE NOT CHANGED,UNLIKELY RELATED,RECOVERED/RESOLVED,N,N,N,N,N,N,TREATMENT,2024-08-16,2024-08-27,128,139,
VISION-NSCLC,AE,VISION-NSCLC-SITE001-0250,12,AE12,OEDEMA PERIPHERAL,Oedema peripheral,,Oedema peripheral,10030124,Oedema NEC,10030095,Oedema NEC,10064690,General disorders and administration site conditions,10018065,General disorders and administration site conditions,10018065,MODERATE,N,DOSE REDUCED,PROBABLY RELATED,RECOVERED/RESOLVED,N,N,N,N,N,N,TREATMENT,2024-09-02,2024-09-11,145,154,
VISION-NSCLC,AE,VISION-NSCLC-SITE001-0253,1,AE1,DECREASED APPETITE,Decreased appetite,,Decreased appetite,10061428,Appetite disorders,10003052,Eating disorders and disturbances,10061427,Metabolism and nutrition disorders,10027433,Metabolism and nutrition disorders,10027433,MILD,N,DOSE NOT CHANGED,NOT RELATED,RECOVERED/RESOLVED,N,N,N,N,N,N,TREATMENT,2024-04-23,2024-05-03,10,20,
VISION-NSCLC,AE,VISION-NSCLC-SITE001-0253,2,AE2,FATIGUE,Fatigue,,Fatigue,10016256,Asthenic conditions,10003550,General system disorders NEC,10060892,General disorders and administration site conditions,10018065,General disorders and administration site conditions,10018065,MODERATE,N,DOSE NOT CHANGED,NOT RELATED,RECOVERED/RESOLVED,N,N,N,N,N,N,TREATMENT,2024-04-24,2024-05-02,11,19,
VISION-NSCLC,AE,VISION-NSCLC-SITE001-0253,3,AE3,DECREASED APPETITE,Decreased appetite,,Decreased appetite,10061428,Appetite disorders,10003052,Eating disorders and disturbances,10061427,Metabolism and nutrition disorders,10027433,Metabolism and nutrition disorders,10027433,SEVERE,Y,DOSE NOT CHANGED,NOT RELATED,RECOVERED/RESOLVED,N,N,N,Y,N,N,TREATMENT,2024-05-09,2024-05-30,26,47,
VISION-NSCLC,AE,VISION-NSCLC-SITE001-0253,4,AE4,DYSPNOEA,Dyspnoea,,Dyspnoea,10013968,Breathing abnormalities,10006486,Respiratory tract signs and symptoms,10038734,"Respiratory, thoracic and mediastinal disorders",10038738,"Respiratory, thoracic and mediastinal disorders",10038738,SEVERE,Y,DOSE NOT CHANGED,NOT RELATED,RECOVERED/RESOLVED,N,N,N,Y,N,N,TREATMENT,2024-06-07,2024-06-10,55,58,
VISION-NSCLC,AE,VISION-NSCLC-SITE001-0253,5,AE5,BLOOD CREATININE INCREASED,Blood creatinine increased,,Blood creatinine increased,10005483,Renal function analyses,10038432,Renal and urinary tract investigations and urinalyses,10062225,Investigations,10022891,Investigations,10022891,MILD,N,DOSE NOT CHANGED,PROBABLY RELATED,RECOVERED/RESOLVED,N,N,N,N,N,N,TREATMENT,2024-07-04,2024-07-16,82,94,
VISION-NSCLC,AE,VISION-NSCLC-SITE001-0253,6,AE6,HYPOALBUMINAEMIA,Hypoalbuminaemia,,Hypoalbuminaemia,10020944,Protein metabolism disorders,10060816,Protein and amino acid metabolism disorders,10067088,Metabolism and nutrition disorders,10027433,Metabolism and nutrition disorders,10027433,MILD,N,DOSE REDUCED,POSSIBLY RELATED,RECOVERED/RESOLVED,N,N,N,N,N,N,TREATMENT,2024-08-18,2024-08-27,127,136,
VISION-NSCLC,AE,VISION-NSCLC-SITE001-0253,7,AE7,BLOOD CREATININE INCREASED,Blood creatinine increased,,Blood creatinine increased,10005483,Renal function analyses,10038432,Renal and urinary tract investigations and urinalyses,10062225,Investigations,10022891,Investigations,10022891,SEVERE,Y,DRUG WITHDRAWN,PROBABLY RELATED,RECOVERED/RESOLVED,N,N,N,Y,N,N,TREATMENT,2024-09-06,2024-09-06,146,146,
VISION-NSCLC,AE,VISION-NSCLC-SITE001-0256,1,AE1,OEDEMA PERIPHERAL,Oedema peripheral,,Oedema peripheral,10030124,Oedema NEC,10030095,Oedema NEC,10064690,General disorders and administration site conditions,10018065,General disorders and administration site conditions,10018065,MILD,N,DOSE NOT CHANGED,POSSIBLY RELATED,RECOVERED/RESOLVED,N,N,N,N,N,N,TREATMENT,2024-04-06,2024-04-10,17,21,
VISION-NSCLC,AE,VISION-NSCLC-SITE001-0256,2,AE2,NAUSEA,Nausea,,Nausea,10028813,Nausea and vomiting symptoms,10028817,Gastrointestinal signs and symptoms,10017999,Gastrointestinal disorders,10017947,Gastrointestinal disorders,10017947,MODERATE,N,DOSE NOT CHANGED,UNLIKELY RELATED,RECOVERED/RESOLVED,N,N,N,N,N,N,TREATMENT,2024-04-07,2024-04-09,18,20,
VISION-NSCLC,AE,VISION-NSCLC-SITE001-0256,3,AE3,NAUSEA,Nausea,,Nausea,10028813,Nausea and vomiting symptoms,10028817,Gastrointestinal signs and symptoms,10017999,Gastrointestinal disorders,10017947,Gastrointestinal disorders,10017947,MILD,N,DOSE NOT CHANGED,UNLIKELY RELATED,RECOVERED/RESOLVED,N,N,N,N,N,N,TREATMENT,2024-05-11,2024-05-14,52,55,
VISION-NSCLC,AE,VISION-NSCLC-SITE001-0256,4,AE4,OEDEMA PERIPHERAL,Oedema peripheral,,Oedema peripheral,10030124,Oedema NEC,10030095,Oedema NEC,10064690,General disorders and administration site conditions,10018065,General disorders and administration site conditions,10018065,MILD,N,DOSE NOT CHANGED,NOT RELATED,RECOVERED/RESOLVED,N,N,N,N,N,N,TREATMENT,2024-06-10,2024-06-19,82,91,
VISION-NSCLC,AE,VISION-NSCLC-SITE001-0256,5,AE5,HYPOALBUMINAEMIA,Hypoalbuminaemia,,Hypoalbuminaemia,10020944,Protein metabolism disorders,10060816,Protein and amino acid metabolism disorders,10067088,Metabolism and nutrition disorders,10027433,Metabolism and nutrition disorders,10027433,MILD,N,DOSE NOT CHANGED,POSSIBLY RELATED,RECOVERING/RESOLVING,N,N,N,N,N,N,TREATMENT,2024-06-27,2024-07-08,99,110,
VISION-NSCLC,AE,VISION-NSCLC-SITE001-0256,6,AE6,OEDEMA PERIPHERAL,Oedema peripheral,,Oedema peripheral,10030124,Oedema NEC,10030095,Oedema NEC,10064690,General disorders and administration site conditions,10018065,General disorders and administration site conditions,10018065,MILD,N,DOSE NOT CHANGED,POSSIBLY RELATED,RECOVERING/RESOLVING,N,N,N,N,N,N,TREATMENT,2024-08-03,2024-08-14,136,147,
VISION-NSCLC,AE,VISION-NSCLC-SITE001-0259,1,AE1,ALANINE AMINOTRANSFERASE INCREASED,Alanine aminotransferase increased,,Alanine aminotransferase increased,10001551,Liver function analyses,10024689,Hepatobiliary investigations,10019843,Investigations,10022891,Investigations,10022891,MILD,N,DOSE REDUCED,POSSIBLY RELATED,RECOVERED/RESOLVED,N,N,N,N,N,N,TREATMENT,2024-04-15,2024-05-07,48,70,
VISION-NSCLC,AE,VISION-NSCLC-SITE001-0259,2,AE2,OEDEMA PERIPHERAL,Oedema peripheral,,Oedema peripheral,10030124,Oedema NEC,10030095,Oedema NEC,10064690,General disorders and administration site conditions,10018065,General disorders and administration site conditions,10018065,MILD,N,DOSE NOT CHANGED,POSSIBLY RELATED,RECOVERED/RESOLVED,N,N,N,N,N,N,TREATMENT,2024-05-06,2024-05-09,69,72,
VISION-NSCLC,AE,VISION-NSCLC-SITE001-0259,3,AE3,OEDEMA PERIPHERAL,Oedema peripheral,,Oedema peripheral,10030124,Oedema NEC,10030095,Oedema NEC,10064690,General disorders and administration site conditions,10018065,General disorders and administration site conditions,10018065,MODERATE,N,DOSE NOT CHANGED,NOT RELATED,RECOVERED/RESOLVED,N,N,N,N,N,N,TREATMENT,2024-06-16,2024-06-26,110,120,
VISION-NSCLC,AE,VISION-NSCLC-SITE001-0259,4,AE4,FATIGUE,Fatigue,,Fatigue,10016256,Asthenic conditions,10003550,General system disorders NEC,10060892,General disorders and administration site conditions,10018065,General disorders and administration site conditions,10018065,MODERATE,N,DOSE NOT CHANGED,PROBABLY RELATED,RECOVERED/RESOLVED,N,N,N,N,N,N,TREATMENT,2024-07-04,2024-07-12,128,136,
VISION-NSCLC,AE,VISION-NSCLC-SITE001-0259,5,AE5,DYSPNOEA,Dyspnoea,,Dyspnoea,10013968,Breathing abnormalities,10006486,Respiratory tract signs and symptoms,10038734,"Respiratory, thoracic and mediastinal disorders",10038738,"Respiratory, thoracic and mediastinal disorders",10038738,SEVERE,Y,DRUG WITHDRAWN,POSSIBLY RELATED,RECOVERED/RESOLVED,N,N,N,Y,N,N,TREATMENT,2024-07-12,2024-07-12,136,136,
VISION-NSCLC,AE,VISION-NSCLC-SITE001-0268,1,AE1,NAUSEA,Nausea,,Nausea,10028813,Nausea and vomiting symptoms,10028817,Gastrointestinal signs and symptoms,10017999,Gastrointestinal disorders,10017947,Gastrointestinal disorders,10017947,MODERATE,N,DOSE NOT CHANGED,NOT RELATED,RECOVERED/RESOLVED,N,N,N,N,N,N,TREATMENT,2024-08-03,2024-08-06,95,98,
VISION-NSCLC,AE,VISION-NSCLC-SITE001-0268,2,AE2,FATIGUE,Fatigue,,Fatigue,10016256,Asthenic conditions,10003550,General system disorders NEC,10060892,General disorders and administration site conditions,10018065,General disorders and administration site conditions,10018065,MILD,N,DOSE NOT CHANGED,UNLIKELY RELATED,RECOVERED/RESOLVED,N,N,N,N,N,N,TREATMENT,2024-08-31,2024-09-16,123,139,
VISION-NSCLC,AE,VISION-NSCLC-SITE001-0271,1,AE1,FATIGUE,Fatigue,,Fatigue,10016256,Asthenic conditions,10003550,General system disorders NEC,10060892,General disorders and administration site conditions,10018065,General disorders and administration site conditions,10018065,MILD,N,DOSE REDUCED,PROBABLY RELATED,RECOVERED/RESOLVED,N,N,N,N,N,N,TREATMENT,2024-05-04,2024-05-18,57,71,
VISION-NSCLC,AE,VISION-NSCLC-SITE001-0271,2,AE2,NAUSEA,Nausea,,Nausea,10028813,Nausea and vomiting symptoms,10028817,Gastrointestinal signs and symptoms,10017999,Gastrointestinal disorders,10017947,Gastrointestinal disorders,10017947,MODERATE,N,DOSE NOT CHANGED,NOT RELATED,RECOVERED/RESOLVED,N,N,N,N,N,N,TREATMENT,2024-05-22,2024-05-25,75,78,
VISION-NSCLC,AE,VISION-NSCLC-SITE001-0274,1,AE1,FATIGUE,Fatigue,,Fatigue,10016256,Asthenic conditions,10003550,General system disorders NEC,10060892,General disorders and administration site conditions,10018065,General disorders and administration site conditions,10018065,SEVERE,Y,DRUG INTERRUPTED,POSSIBLY RELATED,RECOVERED/RESOLVED,N,N,N,Y,N,N,TREATMENT,2024-05-04,2024-07-09,22,88,
VISION-NSCLC,AE,VISION-NSCLC-SITE001-0274,2,AE2,ASPARTATE AMINOTRANSFERASE INCREASED,Aspartate aminotransferase increased,,Aspartate aminotransferase increased,10003481,Liver function analyses,10024689,Hepatobiliary investigations,10019843,Investigations,10022891,Investigations,10022891,MODERATE,N,DOSE NOT CHANGED,NOT RELATED,RECOVERED/RESOLVED,N,N,N,N,N,N,TREATMENT,2024-05-25,2024-06-26,43,75,
VISION-NSCLC,AE,VISION-NSCLC-SITE001-0274,3,AE3,NAUSEA,Nausea,,Nausea,10028813,Nausea and vomiting symptoms,10028817,Gastrointestinal signs and symptoms,10017999,Gastrointestinal disorders,10017947,Gastrointestinal disorders,10017947,MODERATE,N,DOSE NOT CHANGED,UNLIKELY RELATED,RECOVERING/RESOLVING,N,N,N,N,N,N,TREATMENT,2024-05-29,2024-05-31,47,49,
VISION-NSCLC,AE,VISION-NSCLC-SITE001-0274,4,AE4,VOMITING,Vomiting,,Vomiting,10047700,Nausea and vomiting symptoms,10028817,Gastrointestinal signs and symptoms,10017999,Gastrointestinal disorders,10017947,Gastrointestinal disorders,10017947,MILD,N,DOSE NOT CHANGED,NOT RELATED,NOT RECOVERED/NOT RESOLVED,N,N,N,N,N,N,TREATMENT,2024-06-04,,53,,DURING/AFTER
VISION-NSCLC,AE,VISION-NSCLC-SITE001-0274,5,AE5,FATIGUE,Fatigue,,Fatigue,10016256,Asthenic conditions,10003550,General system disorders NEC,10060892,General disorders and administration site conditions,10018065,General disorders and administration site conditions,10018065,MILD,N,DOSE NOT CHANGED,NOT RELATED,RECOVERED/RESOLVED,N,N,N,N,N,N,TREATMENT,2024-06-30,2024-07-10,79,89,
VISION-NSCLC,AE,VISION-NSCLC-SITE001-0274,6,AE6,HYPOALBUMINAEMIA,Hypoalbuminaemia,,Hypoalbuminaemia,10020944,Protein metabolism disorders,10060816,Protein and amino acid metabolism disorders,10067088,Metabolism and nutrition disorders,10027433,Metabolism and nutrition disorders,10027433,SEVERE,Y,DOSE NOT CHANGED,UNLIKELY RELATED,RECOVERED/RESOLVED,N,N,N,Y,N,N,TREATMENT,2024-07-01,2024-08-15,80,125,
VISION-NSCLC,AE,VISION-NSCLC-SITE001-0274,7,AE7,OEDEMA PERIPHERAL,Oedema peripheral,,Oedema peripheral,10030124,Oedema NEC,10030095,Oedema NEC,10064690,General disorders and administration site conditions,10018065,General disorders and administration site conditions,10018065,MILD,N,DOSE NOT CHANGED,UNLIKELY RELATED,RECOVERED/RESOLVED,N,N,N,N,N,N,TREATMENT,2024-07-06,2024-07-11,85,90,
VISION-NSCLC,AE,VISION-NSCLC-SITE001-0274,8,AE8,PULMONARY EMBOLISM,Pulmonary embolism,,Pulmonary embolism,10037377,Embolism and thrombosis,10014513,Embolism and thrombosis,10061169,Vascular disorders,10047065,Vascular disorders,10047065,SEVERE,Y,DOSE NOT CHANGED,NOT RELATED,RECOVERED/RESOLVED,N,N,N,N,N,Y,TREATMENT,2024-07-13,2024-09-03,92,144,
VISION-NSCLC,AE,VISION-NSCLC-SITE001-0274,9,AE9,OEDEMA PERIPHERAL,Oedema peripheral,,Oedema peripheral,10030124,Oedema NEC,10030095,Oedema NEC,10064690,General disorders and administration site conditions,10018065,General disorders and administration site conditions,10018065,MODERATE,N,DOSE REDUCED,POSSIBLY RELATED,RECOVERED/RESOLVED WITH SEQUELAE,N,N,N,N,N,N,TREATMENT,2024-07-26,2024-08-19,105,129,
VISION-NSCLC,AE,VISION-NSCLC-SITE001-0274,10,AE10,ALANINE AMINOTRANSFERASE INCREASED,Alanine aminotransferase increased,,Alanine aminotransferase increased,10001551,Liver function analyses,10024689,Hepatobiliary investigations,10019843,Investigations,10022891,Investigations,10022891,SEVERE,Y,DOSE NOT CHANGED,NOT RELATED,RECOVERED/RESOLVED,N,N,N,Y,N,N,TREATMENT,2024-07-28,2024-10-20,107,191,
VISION-NSCLC,AE,VISION-NSCLC-SITE001-0274,11,AE11,VOMITING,Vomiting,,Vomiting,10047700,Nausea and vomiting symptoms,10028817,Gastrointestinal signs and symptoms,10017999,Gastrointestinal disorders,10017947,Gastrointestinal disorders,10017947,MILD,N,DOSE NOT CHANGED,NOT RELATED,RECOVERED/RESOLVED,N,N,N,N,N,N,TREATMENT,2024-08-14,2024-08-16,124,126,
VISION-NSCLC,AE,VISION-NSCLC-SITE001-0274,12,AE12,FATIGUE,Fatigue,,Fatigue,10016256,Asthenic conditions,10003550,General system disorders NEC,10060892,General disorders and administration site conditions,10018065,General disorders and administration site conditions,10018065,MILD,N,DOSE NOT CHANGED,POSSIBLY RELATED,RECOVERING/RESOLVING,N,N,N,N,N,N,TREATMENT,2024-08-28,2024-09-13,138,154,
VISION-NSCLC,AE,VISION-NSCLC-SITE001-0274,13,AE13,OEDEMA PERIPHERAL,Oedema peripheral,,Oedema peripheral,10030124,Oedema NEC,10030095,Oedema NEC,10064690,General disorders and administration site conditions,10018065,General disorders and administration site conditions,10018065,MILD,N,DOSE NOT CHANGED,RELATED,RECOVERING/RESOLVING,N,N,N,N,N,N,TREATMENT,2024-09-12,2024-09-17,153,158,
VISION-NSCLC,AE,VISION-NSCLC-SITE001-0277,1,AE1,HYPOALBUMINAEMIA,Hypoalbuminaemia,,Hypoalbuminaemia,10020944,Protein metabolism disorders,10060816,Protein and amino acid metabolism disorders,10067088,Metabolism and nutrition disorders,10027433,Metabolism and nutrition disorders,10027433,MODERATE,N,DOSE NOT CHANGED,UNLIKELY RELATED,RECOVERED/RESOLVED,N,N,N,N,N,N,TREATMENT,2024-07-03,2024-07-20,56,73,
VISION-NSCLC,AE,VISION-NSCLC-SITE001-0277,2,AE2,OEDEMA PERIPHERAL,Oedema peripheral,,Oedema peripheral,10030124,Oedema NEC,10030095,Oedema NEC,10064690,General disorders and administration site conditions,10018065,General disorders and administration site conditions,10018065,MILD,N,DOSE NOT CHANGED,PROBABLY RELATED,RECOVERED/RESOLVED,N,N,N,N,N,N,TREATMENT,2024-07-04,2024-07-10,57,63,
VISION-NSCLC,AE,VISION-NSCLC-SITE001-0277,3,AE3,NAUSEA,Nausea,,Nausea,10028813,Nausea and vomiting symptoms,10028817,Gastrointestinal signs and symptoms,10017999,Gastrointestinal disorders,10017947,Gastrointestinal disorders,10017947,MODERATE,N,DRUG INTERRUPTED,POSSIBLY RELATED,RECOVERED/RESOLVED WITH SEQUELAE,N,N,N,N,N,N,TREATMENT,2024-08-17,2024-08-22,101,106,
VISION-NSCLC,AE,VISION-NSCLC-SITE001-0277,4,AE4,OEDEMA PERIPHERAL,Oedema peripheral,,Oedema peripheral,10030124,Oedema NEC,10030095,Oedema NEC,10064690,General disorders and administration site conditions,10018065,General disorders and administration site conditions,10018065,MILD,N,DOSE NOT CHANGED,NOT RELATED,RECOVERING/RESOLVING,N,N,N,N,N,N,TREATMENT,2024-08-19,2024-08-22,103,106,
VISION-NSCLC,AE,VISION-NSCLC-SITE001-0277,5,AE5,PULMONARY EMBOLISM,Pulmonary embolism,,Pulmonary embolism,10037377,Embolism and thrombosis,10014513,Embolism and thrombosis,10061169,Vascular disorders,10047065,Vascular disorders,10047065,MILD,N,DOSE REDUCED,POSSIBLY RELATED,RECOVERING/RESOLVING,N,N,N,N,N,N,TREATMENT,2024-08-20,2024-08-25,104,109,
VISION-NSCLC,AE,VISION-NSCLC-SITE001-0277,6,AE6,FATIGUE,Fatigue,,Fatigue,10016256,Asthenic conditions,10003550,General system disorders NEC,10060892,General disorders and administration site conditions,10018065,General disorders and administration site conditions,10018065,MILD,N,DOSE NOT CHANGED,UNLIKELY RELATED,RECOVERED/RESOLVED WITH SEQUELAE,N,N,N,N,N,N,TREATMENT,2024-08-28,2024-09-09,112,124,
VISION-NSCLC,AE,VISION-NSCLC-SITE001-0277,7,AE7,OEDEMA PERIPHERAL,Oedema peripheral,,Oedema peripheral,10030124,Oedema NEC,10030095,Oedema NEC,10064690,General disorders and administration site conditions,10018065,General disorders and administration site conditions,10018065,SEVERE,Y,DOSE NOT CHANGED,UNLIKELY RELATED,RECOVERED/RESOLVED,N,N,N,N,N,Y,TREATMENT,2024-08-30,2024-09-06,114,121,
VISION-NSCLC,AE,VISION-NSCLC-SITE001-0280,1,AE1,OEDEMA PERIPHERAL,Oedema peripheral,,Oedema peripheral,10030124,Oedema NEC,10030095,Oedema NEC,10064690,General disorders and administration site conditions,10018065,General disorders and administration site conditions,10018065,MODERATE,N,DOSE NOT CHANGED,UNLIKELY RELATED,NOT RECOVERED/NOT RESOLVED,N,N,N,N,N,N,TREATMENT,2024-05-13,,19,,DURING/AFTER
VISION-NSCLC,AE,VISION-NSCLC-SITE001-0280,2,AE2,DIARRHOEA,Diarrhoea,,Diarrhoea,10012735,Diarrhoea (excl infective),10012736,Gastrointestinal motility and defaecation conditions,10017983,Gastrointestinal disorders,10017947,Gastrointestinal disorders,10017947,SEVERE,Y,DRUG INTERRUPTED,RELATED,RECOVERING/RESOLVING,N,N,N,Y,N,N,TREATMENT,2024-05-28,2024-06-20,34,57,
VISION-NSCLC,AE,VISION-NSCLC-SITE001-0280,3,AE3,PLEURAL EFFUSION,Pleural effusion,,Pleural effusion,10035598,Pleural conditions and effusions NEC,10035599,Respiratory disorders NEC,10063479,"Respiratory, thoracic and mediastinal disorders",10038738,"Respiratory, thoracic and mediastinal disorders",10038738,MODERATE,N,DOSE NOT CHANGED,POSSIBLY RELATED,NOT RECOVERED/NOT RESOLVED,N,N,N,N,N,N,TREATMENT,2024-06-22,,59,,DURING/AFTER
VISION-NSCLC,AE,VISION-NSCLC-SITE001-0280,4,AE4,OEDEMA PERIPHERAL,Oedema peripheral,,Oedema peripheral,10030124,Oedema NEC,10030095,Oedema NEC,10064690,General disorders and administration site conditions,10018065,General disorders and administration site conditions,10018065,SEVERE,Y,DOSE NOT CHANGED,UNLIKELY RELATED,RECOVERED/RESOLVED,N,N,N,N,N,Y,TREATMENT,2024-07-26,2024-08-28,93,126,
VISION-NSCLC,AE,VISION-NSCLC-SITE001-0280,5,AE5,DIARRHOEA,Diarrhoea,,Diarrhoea,10012735,Diarrhoea (excl infective),10012736,Gastrointestinal motility and defaecation conditions,10017983,Gastrointestinal disorders,10017947,Gastrointestinal disorders,10017947,SEVERE,Y,DOSE REDUCED,POSSIBLY RELATED,RECOVERED/RESOLVED,N,N,N,Y,N,N,TREATMENT,2024-08-15,2024-09-02,113,131,
VISION-NSCLC,AE,VISION-NSCLC-SITE001-0283,1,AE1,DIARRHOEA,Diarrhoea,,Diarrhoea,10012735,Diarrhoea (excl infective),10012736,Gastrointestinal motility and defaecation conditions,10017983,Gastrointestinal disorders,10017947,Gastrointestinal disorders,10017947,MILD,N,DOSE NOT CHANGED,NOT RELATED,NOT RECOVERED/NOT RESOLVED,N,N,N,N,N,N,TREATMENT,2024-04-16,,10,,DURING/AFTER
VISION-NSCLC,AE,VISION-NSCLC-SITE001-0283,2,AE2,FATIGUE,Fatigue,,Fatigue,10016256,Asthenic conditions,10003550,General system disorders NEC,10060892,General disorders and administration site conditions,10018065,General disorders and administration site conditions,10018065,MODERATE,N,DOSE NOT CHANGED,POSSIBLY RELATED,RECOVERED/RESOLVED,N,N,N,N,N,N,TREATMENT,2024-04-18,2024-05-24,12,48,
VISION-NSCLC,AE,VISION-NSCLC-SITE001-0283,3,AE3,FATIGUE,Fatigue,,Fatigue,10016256,Asthenic conditions,10003550,General system disorders NEC,10060892,General disorders and administration site conditions,10018065,General disorders and administration site conditions,10018065,MODERATE,N,DOSE NOT CHANGED,NOT RELATED,RECOVERED/RESOLVED,N,N,N,N,N,N,TREATMENT,2024-04-27,2024-05-07,21,31,
VISION-NSCLC,AE,VISION-NSCLC-SITE001-0283,4,AE4,OEDEMA PERIPHERAL,Oedema peripheral,,Oedema peripheral,10030124,Oedema NEC,10030095,Oedema NEC,10064690,General disorders and administration site conditions,10018065,General disorders and administration site conditions,10018065,SEVERE,Y,DOSE NOT CHANGED,UNLIKELY RELATED,RECOVERED/RESOLVED,N,N,N,Y,N,N,TREATMENT,2024-07-02,2024-07-05,87,90,
VISION-NSCLC,AE,VISION-NSCLC-SITE001-0283,5,AE5,DECREASED APPETITE,Decreased appetite,,Decreased appetite,10061428,Appetite disorders,10003052,Eating disorders and disturbances,10061427,Metabolism and nutrition disorders,10027433,Metabolism and nutrition disorders,10027433,MODERATE,N,DOSE REDUCED,POSSIBLY RELATED,RECOVERED/RESOLVED,N,N,N,N,N,N,TREATMENT,2024-07-05,2024-07-09,90,94,
VISION-NSCLC,AE,VISION-NSCLC-SITE001-0283,6,AE6,OEDEMA PERIPHERAL,Oedema peripheral,,Oedema peripheral,10030124,Oedema NEC,10030095,Oedema NEC,10064690,General disorders and administration site conditions,10018065,General disorders and administration site conditions,10018065,SEVERE,Y,DOSE NOT CHANGED,NOT RELATED,RECOVERED/RESOLVED,N,N,N,N,N,Y,TREATMENT,2024-07-21,2024-08-09,106,125,
VISION-NSCLC,AE,VISION-NSCLC-SITE001-0283,7,AE7,OEDEMA PERIPHERAL,Oedema peripheral,,Oedema peripheral,10030124,Oedema NEC,10030095,Oedema NEC,10064690,General disorders and administration site conditions,10018065,General disorders and administration site conditions,10018065,MILD,N,DOSE NOT CHANGED,POSSIBLY RELATED,RECOVERED/RESOLVED,N,N,N,N,N,N,TREATMENT,2024-07-23,2024-07-25,108,110,
VISION-NSCLC,AE,VISION-NSCLC-SITE001-0283,8,AE8,VOMITING,Vomiting,,Vomiting,10047700,Nausea and vomiting symptoms,10028817,Gastrointestinal signs and symptoms,10017999,Gastrointestinal disorders,10017947,Gastrointestinal disorders,10017947,MILD,N,DOSE NOT CHANGED,POSSIBLY RELATED,RECOVERED/RESOLVED,N,N,N,N,N,N,TREATMENT,2024-07-28,2024-07-29,113,114,
VISION-NSCLC,AE,VISION-NSCLC-SITE001-0283,9,AE9,VOMITING,Vomiting,,Vomiting,10047700,Nausea and vomiting symptoms,10028817,Gastrointestinal signs and symptoms,10017999,Gastrointestinal disorders,10017947,Gastrointestinal disorders,10017947,MODERATE,N,DOSE NOT CHANGED,NOT RELATED,RECOVERED/RESOLVED,N,N,N,N,N,N,TREATMENT,2024-08-28,2024-08-29,144,145,
VISION-NSCLC,AE,VISION-NSCLC-SITE001-0283,10,AE10,OEDEMA PERIPHERAL,Oedema peripheral,,Oedema peripheral,10030124,Oedema NEC,10030095,Oedema NEC,10064690,General disorders and administration site conditions,10018065,General disorders and administration site conditions,10018065,MODERATE,N,DOSE NOT CHANGED,NOT RELATED,RECOVERED/RESOLVED,N,N,N,N,N,N,TREATMENT,2024-09-20,2024-09-25,167,172,
VISION-NSCLC,AE,VISION-NSCLC-SITE001-0292,1,AE1,PLEURAL EFFUSION,Pleural effusion,,Pleural effusion,10035598,Pleural conditions and effusions NEC,10035599,Respiratory disorders NEC,10063479,"Respiratory, thoracic and mediastinal disorders",10038738,"Respiratory, thoracic and mediastinal disorders",10038738,MODERATE,N,DOSE REDUCED,POSSIBLY RELATED,UNKNOWN,N,N,N,N,N,N,TREATMENT,2024-04-01,2024-04-04,71,74,
VISION-NSCLC,AE,VISION-NSCLC-SITE001-0292,2,AE2,FATIGUE,Fatigue,,Fatigue,10016256,Asthenic conditions,10003550,General system disorders NEC,10060892,General disorders and administration site conditions,10018065,General disorders and administration site conditions,10018065,MODERATE,N,DOSE NOT CHANGED,NOT RELATED,RECOVERING/RESOLVING,N,N,N,N,N,N,TREATMENT,2024-04-14,2024-04-24,84,94,
VISION-NSCLC,AE,VISION-NSCLC-SITE001-0295,1,AE1,OEDEMA PERIPHERAL,Oedema peripheral,,Oedema peripheral,10030124,Oedema NEC,10030095,Oedema NEC,10064690,General disorders and administration site conditions,10018065,General disorders and administration site conditions,10018065,MODERATE,N,DOSE NOT CHANGED,NOT RELATED,RECOVERED/RESOLVED,N,N,N,N,N,N,TREATMENT,2024-04-23,2024-05-05,40,52,
VISION-NSCLC,AE,VISION-NSCLC-SITE001-0295,2,AE2,DIARRHOEA,Diarrhoea,,Diarrhoea,10012735,Diarrhoea (excl infective),10012736,Gastrointestinal motility and defaecation conditions,10017983,Gastrointestinal disorders,10017947,Gastrointestinal disorders,10017947,SEVERE,Y,DOSE REDUCED,RELATED,RECOVERED/RESOLVED,N,N,N,N,N,Y,TREATMENT,2024-06-24,2024-07-23,102,131,
VISION-NSCLC,AE,VISION-NSCLC-SITE001-0295,3,AE3,OEDEMA PERIPHERAL,Oedema peripheral,,Oedema peripheral,10030124,Oedema NEC,10030095,Oedema NEC,10064690,General disorders and administration site conditions,10018065,General disorders and administration site conditions,10018065,SEVERE,Y,DOSE NOT CHANGED,NOT RELATED,RECOVERING/RESOLVING,N,N,N,Y,N,N,TREATMENT,2024-06-29,2024-08-23,107,162,
VISION-NSCLC,AE,VISION-NSCLC-SITE001-0298,1,AE1,DECREASED APPETITE,Decreased appetite,,Decreased appetite,10061428,Appetite disorders,10003052,Eating disorders and disturbances,10061427,Metabolism and nutrition disorders,10027433,Metabolism and nutrition disorders,10027433,MODERATE,N,DOSE NOT CHANGED,NOT RELATED,RECOVERED/RESOLVED,N,N,N,N,N,N,TREATMENT,2024-03-05,2024-03-30,3,28,
VISION-NSCLC,AE,VISION-NSCLC-SITE001-0298,2,AE2,OEDEMA PERIPHERAL,Oedema peripheral,,Oedema peripheral,10030124,Oedema NEC,10030095,Oedema NEC,10064690,General disorders and administration site conditions,10018065,General disorders and administration site conditions,10018065,SEVERE,Y,DOSE NOT CHANGED,UNLIKELY RELATED,RECOVERED/RESOLVED WITH SEQUELAE,N,N,N,N,N,Y,TREATMENT,2024-03-08,2024-03-28,6,26,
VISION-NSCLC,AE,VISION-NSCLC-SITE001-0298,3,AE3,DECREASED APPETITE,Decreased appetite,,Decreased appetite,10061428,Appetite disorders,10003052,Eating disorders and disturbances,10061427,Metabolism and nutrition disorders,10027433,Metabolism and nutrition disorders,10027433,MILD,N,DOSE NOT CHANGED,UNLIKELY RELATED,RECOVERING/RESOLVING,N,N,N,N,N,N,TREATMENT,2024-03-28,2024-04-09,26,38,
VISION-NSCLC,AE,VISION-NSCLC-SITE001-0298,4,AE4,OEDEMA PERIPHERAL,Oedema peripheral,,Oedema peripheral,10030124,Oedema NEC,10030095,Oedema NEC,10064690,General disorders and administration site conditions,10018065,General disorders and administration site conditions,10018065,MODERATE,N,DOSE NOT CHANGED,UNLIKELY RELATED,RECOVERED/RESOLVED,N,N,N,N,N,N,TREATMENT,2024-03-29,2024-04-25,27,54,
VISION-NSCLC,AE,VISION-NSCLC-SITE001-0298,5,AE5,HYPOALBUMINAEMIA,Hypoalbuminaemia,,Hypoalbuminaemia,10020944,Protein metabolism disorders,10060816,Protein and amino acid metabolism disorders,10067088,Metabolism and nutrition disorders,10027433,Metabolism and nutrition disorders,10027433,SEVERE,Y,DOSE NOT CHANGED,NOT RELATED,RECOVERED/RESOLVED,N,N,N,N,N,Y,TREATMENT,2024-04-29,2024-05-15,58,74,
VISION-NSCLC,AE,VISION-NSCLC-SITE001-0298,6,AE6,DECREASED APPETITE,Decreased appetite,,Decreased appetite,10061428,Appetite disorders,10003052,Eating disorders and disturbances,10061427,Metabolism and nutrition disorders,10027433,Metabolism and nutrition disorders,10027433,MODERATE,N,DOSE NOT CHANGED,NOT RELATED,UNKNOWN,N,N,N,N,N,N,TREATMENT,2024-05-01,2024-05-20,60,79,
VISION-NSCLC,AE,VISION-NSCLC-SITE001-0298,7,AE7,DIARRHOEA,Diarrhoea,,Diarrhoea,10012735,Diarrhoea (excl infective),10012736,Gastrointestinal motility and defaecation conditions,10017983,Gastrointestinal disorders,10017947,Gastrointestinal disorders,10017947,MODERATE,N,DOSE NOT CHANGED,NOT RELATED,RECOVERING/RESOLVING,N,N,N,N,N,N,TREATMENT,2024-06-26,2024-06-29,116,119,
VISION-NSCLC,AE,VISION-NSCLC-SITE001-0298,8,AE8,VOMITING,Vomiting,,Vomiting,10047700,Nausea and vomiting symptoms,10028817,Gastrointestinal signs and symptoms,10017999,Gastrointestinal disorders,10017947,Gastrointestinal disorders,10017947,MODERATE,N,DOSE NOT CHANGED,UNLIKELY RELATED,RECOVERED/RESOLVED,N,N,N,N,N,N,TREATMENT,2024-08-09,2024-08-13,160,164,
VISION-NSCLC,AE,VISION-NSCLC-SITE001-0298,9,AE9,ALANINE AMINOTRANSFERASE INCREASED,Alanine aminotransferase increased,,Alanine aminotransferase increased,10001551,Liver function analyses,10024689,Hepatobiliary investigations,10019843,Investigations,10022891,Investigations,10022891,SEVERE,Y,DOSE NOT CHANGED,NOT RELATED,RECOVERED/RESOLVED,N,N,N,Y,N,N,TREATMENT,2024-08-14,2024-09-17,165,199,
VISION-NSCLC,AE,VISION-NSCLC-SITE001-0304,1,AE1,DECREASED APPETITE,Decreased appetite,,Decreased appetite,10061428,Appetite disorders,10003052,Eating disorders and disturbances,10061427,Metabolism and nutrition disorders,10027433,Metabolism and nutrition disorders,10027433,MILD,N,DOSE NOT CHANGED,NOT RELATED,RECOVERED/RESOLVED,N,N,N,N,N,N,TREATMENT,2024-03-28,2024-03-29,2,3,
VISION-NSCLC,AE,VISION-NSCLC-SITE001-0307,1,AE1,OEDEMA PERIPHERAL,Oedema peripheral,,Oedema peripheral,10030124,Oedema NEC,10030095,Oedema NEC,10064690,General disorders and administration site conditions,10018065,General disorders and administration site conditions,10018065,MODERATE,N,DOSE NOT CHANGED,NOT RELATED,RECOVERED/RESOLVED,N,N,N,N,N,N,TREATMENT,2024-05-18,2024-05-24,37,43,
VISION-NSCLC,AE,VISION-NSCLC-SITE001-0307,2,AE2,OEDEMA PERIPHERAL,Oedema peripheral,,Oedema peripheral,10030124,Oedema NEC,10030095,Oedema NEC,10064690,General disorders and administration site conditions,10018065,General disorders and administration site conditions,10018065,MODERATE,N,DOSE NOT CHANGED,NOT RELATED,RECOVERING/RESOLVING,N,N,N,N,N,N,TREATMENT,2024-08-02,2024-08-17,113,128,
VISION-NSCLC,AE,VISION-NSCLC-SITE001-0307,3,AE3,OEDEMA PERIPHERAL,Oedema peripheral,,Oedema peripheral,10030124,Oedema NEC,10030095,Oedema NEC,10064690,General disorders and administration site conditions,10018065,General disorders and administration site conditions,10018065,MILD,N,DOSE NOT CHANGED,NOT RELATED,RECOVERED/RESOLVED,N,N,N,N,N,N,TREATMENT,2024-08-15,2024-08-16,126,127,
VISION-NSCLC,AE,VISION-NSCLC-SITE001-0307,4,AE4,PNEUMONIA,Pneumonia,,Pneumonia,10035664,Lower respiratory and lung infections,10024968,Infections NEC,10021902,Infections and infestations,10021881,Infections and infestations,10021881,SEVERE,Y,DOSE NOT CHANGED,NOT RELATED,RECOVERED/RESOLVED,N,N,N,Y,N,N,TREATMENT,2024-08-18,2024-09-04,129,146,
VISION-NSCLC,AE,VISION-NSCLC-SITE001-0310,1,AE1,BLOOD CREATININE INCREASED,Blood creatinine increased,,Blood creatinine increased,10005483,Renal function analyses,10038432,Renal and urinary tract investigations and urinalyses,10062225,Investigations,10022891,Investigations,10022891,MODERATE,N,DOSE NOT CHANGED,NOT RELATED,NOT RECOVERED/NOT RESOLVED,N,N,N,N,N,N,TREATMENT,2024-04-13,,51,,DURING/AFTER
VISION-NSCLC,AE,VISION-NSCLC-SITE001-0310,2,AE2,NAUSEA,Nausea,,Nausea,10028813,Nausea and vomiting symptoms,10028817,Gastrointestinal signs and symptoms,10017999,Gastrointestinal disorders,10017947,Gastrointestinal disorders,10017947,SEVERE,Y,DRUG WITHDRAWN,POSSIBLY RELATED,RECOVERED/RESOLVED,N,N,N,N,N,Y,TREATMENT,2024-04-19,2024-04-19,57,57,
VISION-NSCLC,AE,VISION-NSCLC-SITE001-0313,1,AE1,DECREASED APPETITE,Decreased appetite,,Decreased appetite,10061428,Appetite disorders,10003052,Eating disorders and disturbances,10061427,Metabolism and nutrition disorders,10027433,Metabolism and nutrition disorders,10027433,SEVERE,Y,DRUG INTERRUPTED,POSSIBLY RELATED,RECOVERING/RESOLVING,N,N,N,Y,N,N,TREATMENT,2024-03-08,2024-03-10,4,6,
VISION-NSCLC,AE,VISION-NSCLC-SITE001-0313,2,AE2,NAUSEA,Nausea,,Nausea,10028813,Nausea and vomiting symptoms,10028817,Gastrointestinal signs and symptoms,10017999,Gastrointestinal disorders,10017947,Gastrointestinal disorders,10017947,MODERATE,N,DOSE NOT CHANGED,UNLIKELY RELATED,RECOVERED/RESOLVED,N,N,N,N,N,N,TREATMENT,2024-06-20,2024-06-21,108,109,
VISION-NSCLC,AE,VISION-NSCLC-SITE001-0313,3,AE3,DIARRHOEA,Diarrhoea,,Diarrhoea,10012735,Diarrhoea (excl infective),10012736,Gastrointestinal motility and defaecation conditions,10017983,Gastrointestinal disorders,10017947,Gastrointestinal disorders,10017947,MODERATE,N,DOSE NOT CHANGED,NOT RELATED,NOT RECOVERED/NOT RESOLVED,N,N,N,N,N,N,TREATMENT,2024-07-15,,133,,DURING/AFTER
