{"subject_id":"VISION-NSCLC-SITE002-0077","study_id":"VISION-NSCLC","generated_at":"2026-06-16T10:08:23.600102+00:00","sdtmig_version":"3.4","flags":{"has_serious_ae":true,"has_fatal_ae":false,"has_protocol_deviation":true,"n_protocol_deviations":5,"n_adverse_events":8,"n_concomitant_meds":7,"max_ae_severity":"SEVERE","screen_failure":false,"discontinued_early":false,"discontinuation_reason":null,"death":false,"exposure_days":126},"timeline":[{"dtc":"2024-04-01","dy":"-29","event":"INFORMED CONSENT OBTAINED","domain":"DS","category":"milestone"},{"dtc":"2024-04-05","dy":"-25","event":"VISIT: SCREENING","domain":"SV","category":"visit"},{"dtc":"2024-04-30","dy":"1","event":"RANDOMIZED","domain":"DS","category":"milestone"},{"dtc":"2024-04-30","dy":"1","event":"FIRST DOSE: TEPOTINIB","domain":"EX","category":"exposure"},{"dtc":"2024-04-30","dy":"1","event":"VISIT: C1D1","domain":"SV","category":"visit"},{"dtc":"2024-05-13","dy":"14","event":"DEVIATION: VISIT OCCURRED OUTSIDE VISIT WINDOW","domain":"DV","category":"deviation"},{"dtc":"2024-05-13","dy":"14","event":"VISIT: C1D15","domain":"SV","category":"visit"},{"dtc":"2024-05-15","dy":"16","event":"AE: Oedema peripheral (SEVERE) [SERIOUS]","domain":"AE","category":"adverse_event"},{"dtc":"2024-05-15","dy":"16","event":"CM START: FUROSEMIDE","domain":"CM","category":"concomitant_med"},{"dtc":"2024-05-29","dy":"30","event":"VISIT: C2D1","domain":"SV","category":"visit"},{"dtc":"2024-05-30","dy":"31","event":"AE: Oedema peripheral (MODERATE)","domain":"AE","category":"adverse_event"},{"dtc":"2024-06-02","dy":"34","event":"AE: Oedema peripheral (MILD)","domain":"AE","category":"adverse_event"},{"dtc":"2024-06-02","dy":"34","event":"CM START: FUROSEMIDE","domain":"CM","category":"concomitant_med"},{"dtc":"2024-06-15","dy":"47","event":"DEVIATION: MISSED DOSE","domain":"DV","category":"deviation"},{"dtc":"2024-06-22","dy":"54","event":"DEVIATION: MISSED DOSE","domain":"DV","category":"deviation"},{"dtc":"2024-06-26","dy":"58","event":"CM START: IBUPROFEN","domain":"CM","category":"concomitant_med"},{"dtc":"2024-06-27","dy":"59","event":"VISIT: C3D1","domain":"SV","category":"visit"},{"dtc":"2024-07-06","dy":"68","event":"CM START: PARACETAMOL","domain":"CM","category":"concomitant_med"},{"dtc":"2024-07-08","dy":"70","event":"DEVIATION: MISSED DOSE","domain":"DV","category":"deviation"},{"dtc":"2024-07-23","dy":"85","event":"DEVIATION: MISSED DOSE","domain":"DV","category":"deviation"},{"dtc":"2024-07-23","dy":"85","event":"VISIT: C4D1","domain":"SV","category":"visit"},{"dtc":"2024-08-05","dy":"98","event":"CM START: ASPIRIN","domain":"CM","category":"concomitant_med"},{"dtc":"2024-08-16","dy":"109","event":"AE: Oedema peripheral (MILD)","domain":"AE","category":"adverse_event"},{"dtc":"2024-08-17","dy":"110","event":"AE: Aspartate aminotransferase increased (MILD)","domain":"AE","category":"adverse_event"},{"dtc":"2024-08-22","dy":"115","event":"AE: Oedema peripheral (MODERATE)","domain":"AE","category":"adverse_event"},{"dtc":"2024-08-23","dy":"116","event":"AE: Oedema peripheral (MODERATE)","domain":"AE","category":"adverse_event"},{"dtc":"2024-08-23","dy":"116","event":"CM START: FUROSEMIDE","domain":"CM","category":"concomitant_med"},{"dtc":"2024-09-03","dy":"127","event":"LAST DOSE: TEPOTINIB","domain":"EX","category":"exposure"},{"dtc":"2024-09-15","dy":"139","event":"VISIT: C6D1","domain":"SV","category":"visit"},{"dtc":"2024-09-26","dy":"150","event":"AE: Decreased appetite (MODERATE)","domain":"AE","category":"adverse_event"},{"dtc":"2024-09-26","dy":"150","event":"CM START: MEGESTROL","domain":"CM","category":"concomitant_med"},{"dtc":"2024-10-14","dy":"168","event":"VISIT: EOT","domain":"SV","category":"visit"},{"dtc":"2024-11-08","dy":"193","event":"VISIT: FOLLOW-UP","domain":"SV","category":"visit"},{"dtc":"2024-12-11","dy":"226","event":"COMPLETED","domain":"DS","category":"milestone"}],"section_1_demographics":{"usubjid":"VISION-NSCLC-SITE002-0077","subjid":"0077","siteid":"SITE002","age":"46","ageu":"YEARS","sex":"F","race":"ASIAN","ethnicity":"HISPANIC OR LATINO","country":"USA","arm":"Tepotinib 500mg QD","armcd":"TEP500","actarm":"Tepotinib 500mg QD","actarmcd":"TEP500","randomization_date":null,"informed_consent_date":"2024-04-01","reference_start_date":"2024-04-30","reference_end_date":"2024-12-11","screen_failure":false,"death_flag":null,"death_date":null,"subject_characteristics":[{"testcd":"ALCUSE","test":"Alcohol Use","orres":"NON-DRINKER","stresc":"NON-DRINKER","visit":null,"dtc":"2024-04-01"},{"testcd":"BMI","test":"Body Mass Index","orres":"18.9","stresc":"18.9","visit":null,"dtc":"2024-04-01"},{"testcd":"TOBUSE","test":"Tobacco Use","orres":"NEVER SMOKED","stresc":"NEVER SMOKED","visit":null,"dtc":"2024-04-01"}]},"section_2_medical_history":{"items":[]},"section_3_inclusion_exclusion":{"criteria":[]},"section_4_trial_participation":{"visits":[{"visitnum":"1.0","visit":"SCREENING","start_dtc":"2024-04-05","end_dtc":"2024-04-05","updes":null},{"visitnum":"2.0","visit":"C1D1","start_dtc":"2024-04-30","end_dtc":"2024-04-30","updes":null},{"visitnum":"3.0","visit":"C1D15","start_dtc":"2024-05-13","end_dtc":"2024-05-13","updes":null},{"visitnum":"4.0","visit":"C2D1","start_dtc":"2024-05-29","end_dtc":"2024-05-29","updes":null},{"visitnum":"5.0","visit":"C3D1","start_dtc":"2024-06-27","end_dtc":"2024-06-27","updes":null},{"visitnum":"6.0","visit":"C4D1","start_dtc":"2024-07-23","end_dtc":"2024-07-23","updes":null},{"visitnum":"7.0","visit":"C6D1","start_dtc":"2024-09-15","end_dtc":"2024-09-15","updes":null},{"visitnum":"8.0","visit":"EOT","start_dtc":"2024-10-14","end_dtc":"2024-10-14","updes":null},{"visitnum":"9.0","visit":"FOLLOW-UP","start_dtc":"2024-11-08","end_dtc":"2024-11-08","updes":null}],"epochs":[{"seq":"1","etcd":"SCRN","element":"Screening","start_dtc":"2024-04-02","end_dtc":"2024-04-30","updes":null},{"seq":"2","etcd":"TRT","element":"Treatment","start_dtc":"2024-04-30","end_dtc":"2024-10-15","updes":null},{"seq":"3","etcd":"FU","element":"Follow-up","start_dtc":"2024-10-15","end_dtc":"2024-11-13","updes":null}],"visit_count":9},"section_5_concomitant_medications":{"medications":[{"seq":"1","trt":"FUROSEMIDE","decod":"FUROSEMIDE","cat":"CONCOMITANT","dose":"20.0","doseu":null,"dosef":"QD","route":"ORAL","indication":"OEDEMA PERIPHERAL","start_dtc":"2024-05-15","end_dtc":"2024-05-28","ongoing":null,"visit":null},{"seq":"2","trt":"FUROSEMIDE","decod":"FUROSEMIDE","cat":"CONCOMITANT","dose":"20.0","doseu":null,"dosef":"QD","route":"ORAL","indication":"OEDEMA PERIPHERAL","start_dtc":"2024-06-02","end_dtc":"2024-06-11","ongoing":null,"visit":null},{"seq":"3","trt":"IBUPROFEN","decod":"IBUPROFEN","cat":"CONCOMITANT","dose":null,"doseu":null,"dosef":"PRN","route":"ORAL","indication":null,"start_dtc":"2024-06-26","end_dtc":"2024-08-25","ongoing":null,"visit":null},{"seq":"4","trt":"PARACETAMOL","decod":"PARACETAMOL","cat":"CONCOMITANT","dose":null,"doseu":null,"dosef":"PRN","route":"ORAL","indication":null,"start_dtc":"2024-07-06","end_dtc":"2024-09-28","ongoing":null,"visit":null},{"seq":"5","trt":"ASPIRIN","decod":"ASPIRIN","cat":"CONCOMITANT","dose":null,"doseu":null,"dosef":"QD","route":"ORAL","indication":null,"start_dtc":"2024-08-05","end_dtc":"2024-09-03","ongoing":null,"visit":null},{"seq":"6","trt":"FUROSEMIDE","decod":"FUROSEMIDE","cat":"CONCOMITANT","dose":"20.0","doseu":null,"dosef":"QD","route":"ORAL","indication":"OEDEMA PERIPHERAL","start_dtc":"2024-08-23","end_dtc":"2024-08-27","ongoing":null,"visit":null},{"seq":"7","trt":"MEGESTROL","decod":"MEGESTROL","cat":"CONCOMITANT","dose":"400.0","doseu":null,"dosef":"QD","route":"ORAL","indication":"DECREASED APPETITE","start_dtc":"2024-09-26","end_dtc":"2024-10-14","ongoing":null,"visit":null}]},"section_6_exposure":{"exposure_as_administered":[{"seq":"1","trt":"TEPOTINIB","dose":"500.0","doseu":null,"dosef":"QD","route":"ORAL","lot":null,"start_dtc":"2024-04-30","end_dtc":"2024-08-21","start_dy":"1","end_dy":"114","epoch":"TREATMENT","visit":null},{"seq":"2","trt":"TEPOTINIB","dose":"250.0","doseu":null,"dosef":"QD","route":"ORAL","lot":null,"start_dtc":"2024-08-22","end_dtc":"2024-09-03","start_dy":"115","end_dy":"127","epoch":"TREATMENT","visit":null}],"exposure_as_collected":[{"seq":"1","trt":"TEPOTINIB","dose":"500.0","doseu":null,"dosef":"QD","route":"ORAL","start_dtc":"2024-04-30","end_dtc":"2024-04-30","visit":"C1D1"},{"seq":"2","trt":"TEPOTINIB","dose":"500.0","doseu":null,"dosef":"QD","route":"ORAL","start_dtc":"2024-05-01","end_dtc":"2024-05-01","visit":"C1D1"},{"seq":"3","trt":"TEPOTINIB","dose":"500.0","doseu":null,"dosef":"QD","route":"ORAL","start_dtc":"2024-05-02","end_dtc":"2024-05-02","visit":"C1D1"},{"seq":"4","trt":"TEPOTINIB","dose":"500.0","doseu":null,"dosef":"QD","route":"ORAL","start_dtc":"2024-05-03","end_dtc":"2024-05-03","visit":"C1D1"},{"seq":"5","trt":"TEPOTINIB","dose":"500.0","doseu":null,"dosef":"QD","route":"ORAL","start_dtc":"2024-05-04","end_dtc":"2024-05-04","visit":null},{"seq":"6","trt":"TEPOTINIB","dose":"500.0","doseu":null,"dosef":"QD","route":"ORAL","start_dtc":"2024-05-05","end_dtc":"2024-05-05","visit":null},{"seq":"7","trt":"TEPOTINIB","dose":"500.0","doseu":null,"dosef":"QD","route":"ORAL","start_dtc":"2024-05-06","end_dtc":"2024-05-06","visit":null},{"seq":"8","trt":"TEPOTINIB","dose":"500.0","doseu":null,"dosef":"QD","route":"ORAL","start_dtc":"2024-05-07","end_dtc":"2024-05-07","visit":null},{"seq":"9","trt":"TEPOTINIB","dose":"500.0","doseu":null,"dosef":"QD","route":"ORAL","start_dtc":"2024-05-08","end_dtc":"2024-05-08","visit":null},{"seq":"10","trt":"TEPOTINIB","dose":"500.0","doseu":null,"dosef":"QD","route":"ORAL","start_dtc":"2024-05-09","end_dtc":"2024-05-09","visit":null},{"seq":"11","trt":"TEPOTINIB","dose":"500.0","doseu":null,"dosef":"QD","route":"ORAL","start_dtc":"2024-05-10","end_dtc":"2024-05-10","visit":null},{"seq":"12","trt":"TEPOTINIB","dose":"500.0","doseu":null,"dosef":"QD","route":"ORAL","start_dtc":"2024-05-11","end_dtc":"2024-05-11","visit":"C1D15"},{"seq":"13","trt":"TEPOTINIB","dose":"500.0","doseu":null,"dosef":"QD","route":"ORAL","start_dtc":"2024-05-12","end_dtc":"2024-05-12","visit":"C1D15"},{"seq":"14","trt":"TEPOTINIB","dose":"500.0","doseu":null,"dosef":"QD","route":"ORAL","start_dtc":"2024-05-13","end_dtc":"2024-05-13","visit":"C1D15"},{"seq":"15","trt":"TEPOTINIB","dose":"500.0","doseu":null,"dosef":"QD","route":"ORAL","start_dtc":"2024-05-14","end_dtc":"2024-05-14","visit":"C1D15"},{"seq":"16","trt":"TEPOTINIB","dose":"500.0","doseu":null,"dosef":"QD","route":"ORAL","start_dtc":"2024-05-15","end_dtc":"2024-05-15","visit":"C1D15"},{"seq":"17","trt":"TEPOTINIB","dose":"500.0","doseu":null,"dosef":"QD","route":"ORAL","start_dtc":"2024-05-16","end_dtc":"2024-05-16","visit":"C1D15"},{"seq":"18","trt":"TEPOTINIB","dose":"500.0","doseu":null,"dosef":"QD","route":"ORAL","start_dtc":"2024-05-17","end_dtc":"2024-05-17","visit":"C1D15"},{"seq":"19","trt":"TEPOTINIB","dose":"500.0","doseu":null,"dosef":"QD","route":"ORAL","start_dtc":"2024-05-18","end_dtc":"2024-05-18","visit":null},{"seq":"20","trt":"TEPOTINIB","dose":"500.0","doseu":null,"dosef":"QD","route":"ORAL","start_dtc":"2024-05-19","end_dtc":"2024-05-19","visit":null},{"seq":"21","trt":"TEPOTINIB","dose":"500.0","doseu":null,"dosef":"QD","route":"ORAL","start_dtc":"2024-05-20","end_dtc":"2024-05-20","visit":null},{"seq":"22","trt":"TEPOTINIB","dose":"500.0","doseu":null,"dosef":"QD","route":"ORAL","start_dtc":"2024-05-21","end_dtc":"2024-05-21","visit":null},{"seq":"23","trt":"TEPOTINIB","dose":"500.0","doseu":null,"dosef":"QD","route":"ORAL","start_dtc":"2024-05-22","end_dtc":"2024-05-22","visit":null},{"seq":"24","trt":"TEPOTINIB","dose":"500.0","doseu":null,"dosef":"QD","route":"ORAL","start_dtc":"2024-05-23","end_dtc":"2024-05-23","visit":null},{"seq":"25","trt":"TEPOTINIB","dose":"500.0","doseu":null,"dosef":"QD","route":"ORAL","start_dtc":"2024-05-24","end_dtc":"2024-05-24","visit":null},{"seq":"26","trt":"TEPOTINIB","dose":"500.0","doseu":null,"dosef":"QD","route":"ORAL","start_dtc":"2024-05-25","end_dtc":"2024-05-25","visit":"C2D1"},{"seq":"27","trt":"TEPOTINIB","dose":"500.0","doseu":null,"dosef":"QD","route":"ORAL","start_dtc":"2024-05-26","end_dtc":"2024-05-26","visit":"C2D1"},{"seq":"28","trt":"TEPOTINIB","dose":"500.0","doseu":null,"dosef":"QD","route":"ORAL","start_dtc":"2024-05-27","end_dtc":"2024-05-27","visit":"C2D1"},{"seq":"29","trt":"TEPOTINIB","dose":"500.0","doseu":null,"dosef":"QD","route":"ORAL","start_dtc":"2024-05-28","end_dtc":"2024-05-28","visit":"C2D1"},{"seq":"30","trt":"TEPOTINIB","dose":"500.0","doseu":null,"dosef":"QD","route":"ORAL","start_dtc":"2024-05-29","end_dtc":"2024-05-29","visit":"C2D1"},{"seq":"31","trt":"TEPOTINIB","dose":"500.0","doseu":null,"dosef":"QD","route":"ORAL","start_dtc":"2024-05-30","end_dtc":"2024-05-30","visit":"C2D1"},{"seq":"32","trt":"TEPOTINIB","dose":"500.0","doseu":null,"dosef":"QD","route":"ORAL","start_dtc":"2024-05-31","end_dtc":"2024-05-31","visit":"C2D1"},{"seq":"33","trt":"TEPOTINIB","dose":"500.0","doseu":null,"dosef":"QD","route":"ORAL","start_dtc":"2024-06-01","end_dtc":"2024-06-01","visit":null},{"seq":"34","trt":"TEPOTINIB","dose":"500.0","doseu":null,"dosef":"QD","route":"ORAL","start_dtc":"2024-06-02","end_dtc":"2024-06-02","visit":null},{"seq":"35","trt":"TEPOTINIB","dose":"500.0","doseu":null,"dosef":"QD","route":"ORAL","start_dtc":"2024-06-03","end_dtc":"2024-06-03","visit":null},{"seq":"36","trt":"TEPOTINIB","dose":"500.0","doseu":null,"dosef":"QD","route":"ORAL","start_dtc":"2024-06-04","end_dtc":"2024-06-04","visit":null},{"seq":"37","trt":"TEPOTINIB","dose":"500.0","doseu":null,"dosef":"QD","route":"ORAL","start_dtc":"2024-06-05","end_dtc":"2024-06-05","visit":null},{"seq":"38","trt":"TEPOTINIB","dose":"500.0","doseu":null,"dosef":"QD","route":"ORAL","start_dtc":"2024-06-06","end_dtc":"2024-06-06","visit":null},{"seq":"39","trt":"TEPOTINIB","dose":"500.0","doseu":null,"dosef":"QD","route":"ORAL","start_dtc":"2024-06-07","end_dtc":"2024-06-07","visit":null},{"seq":"40","trt":"TEPOTINIB","dose":"500.0","doseu":null,"dosef":"QD","route":"ORAL","start_dtc":"2024-06-08","end_dtc":"2024-06-08","visit":null},{"seq":"41","trt":"TEPOTINIB","dose":"500.0","doseu":null,"dosef":"QD","route":"ORAL","start_dtc":"2024-06-09","end_dtc":"2024-06-09","visit":null},{"seq":"42","trt":"TEPOTINIB","dose":"500.0","doseu":null,"dosef":"QD","route":"ORAL","start_dtc":"2024-06-10","end_dtc":"2024-06-10","visit":null},{"seq":"43","trt":"TEPOTINIB","dose":"500.0","doseu":null,"dosef":"QD","route":"ORAL","start_dtc":"2024-06-11","end_dtc":"2024-06-11","visit":null},{"seq":"44","trt":"TEPOTINIB","dose":"500.0","doseu":null,"dosef":"QD","route":"ORAL","start_dtc":"2024-06-12","end_dtc":"2024-06-12","visit":null},{"seq":"45","trt":"TEPOTINIB","dose":"500.0","doseu":null,"dosef":"QD","route":"ORAL","start_dtc":"2024-06-13","end_dtc":"2024-06-13","visit":null},{"seq":"46","trt":"TEPOTINIB","dose":"500.0","doseu":null,"dosef":"QD","route":"ORAL","start_dtc":"2024-06-14","end_dtc":"2024-06-14","visit":null},{"seq":"47","trt":"TEPOTINIB","dose":null,"doseu":null,"dosef":"QD","route":"ORAL","start_dtc":"2024-06-15","end_dtc":"2024-06-15","visit":null},{"seq":"48","trt":"TEPOTINIB","dose":"500.0","doseu":null,"dosef":"QD","route":"ORAL","start_dtc":"2024-06-16","end_dtc":"2024-06-16","visit":null},{"seq":"49","trt":"TEPOTINIB","dose":"500.0","doseu":null,"dosef":"QD","route":"ORAL","start_dtc":"2024-06-17","end_dtc":"2024-06-17","visit":null},{"seq":"50","trt":"TEPOTINIB","dose":"500.0","doseu":null,"dosef":"QD","route":"ORAL","start_dtc":"2024-06-18","end_dtc":"2024-06-18","visit":null},{"seq":"51","trt":"TEPOTINIB","dose":"500.0","doseu":null,"dosef":"QD","route":"ORAL","start_dtc":"2024-06-19","end_dtc":"2024-06-19","visit":null},{"seq":"52","trt":"TEPOTINIB","dose":"500.0","doseu":null,"dosef":"QD","route":"ORAL","start_dtc":"2024-06-20","end_dtc":"2024-06-20","visit":null},{"seq":"53","trt":"TEPOTINIB","dose":"500.0","doseu":null,"dosef":"QD","route":"ORAL","start_dtc":"2024-06-21","end_dtc":"2024-06-21","visit":null},{"seq":"54","trt":"TEPOTINIB","dose":null,"doseu":null,"dosef":"QD","route":"ORAL","start_dtc":"2024-06-22","end_dtc":"2024-06-22","visit":"C3D1"},{"seq":"55","trt":"TEPOTINIB","dose":"500.0","doseu":null,"dosef":"QD","route":"ORAL","start_dtc":"2024-06-23","end_dtc":"2024-06-23","visit":"C3D1"},{"seq":"56","trt":"TEPOTINIB","dose":"500.0","doseu":null,"dosef":"QD","route":"ORAL","start_dtc":"2024-06-24","end_dtc":"2024-06-24","visit":"C3D1"},{"seq":"57","trt":"TEPOTINIB","dose":"500.0","doseu":null,"dosef":"QD","route":"ORAL","start_dtc":"2024-06-25","end_dtc":"2024-06-25","visit":"C3D1"},{"seq":"58","trt":"TEPOTINIB","dose":"500.0","doseu":null,"dosef":"QD","route":"ORAL","start_dtc":"2024-06-26","end_dtc":"2024-06-26","visit":"C3D1"},{"seq":"59","trt":"TEPOTINIB","dose":"500.0","doseu":null,"dosef":"QD","route":"ORAL","start_dtc":"2024-06-27","end_dtc":"2024-06-27","visit":"C3D1"},{"seq":"60","trt":"TEPOTINIB","dose":"500.0","doseu":null,"dosef":"QD","route":"ORAL","start_dtc":"2024-06-28","end_dtc":"2024-06-28","visit":"C3D1"},{"seq":"61","trt":"TEPOTINIB","dose":"500.0","doseu":null,"dosef":"QD","route":"ORAL","start_dtc":"2024-06-29","end_dtc":"2024-06-29","visit":null},{"seq":"62","trt":"TEPOTINIB","dose":"500.0","doseu":null,"dosef":"QD","route":"ORAL","start_dtc":"2024-06-30","end_dtc":"2024-06-30","visit":null},{"seq":"63","trt":"TEPOTINIB","dose":"500.0","doseu":null,"dosef":"QD","route":"ORAL","start_dtc":"2024-07-01","end_dtc":"2024-07-01","visit":null},{"seq":"64","trt":"TEPOTINIB","dose":"500.0","doseu":null,"dosef":"QD","route":"ORAL","start_dtc":"2024-07-02","end_dtc":"2024-07-02","visit":null},{"seq":"65","trt":"TEPOTINIB","dose":"500.0","doseu":null,"dosef":"QD","route":"ORAL","start_dtc":"2024-07-03","end_dtc":"2024-07-03","visit":null},{"seq":"66","trt":"TEPOTINIB","dose":"500.0","doseu":null,"dosef":"QD","route":"ORAL","start_dtc":"2024-07-04","end_dtc":"2024-07-04","visit":null},{"seq":"67","trt":"TEPOTINIB","dose":"500.0","doseu":null,"dosef":"QD","route":"ORAL","start_dtc":"2024-07-05","end_dtc":"2024-07-05","visit":null},{"seq":"68","trt":"TEPOTINIB","dose":"500.0","doseu":null,"dosef":"QD","route":"ORAL","start_dtc":"2024-07-06","end_dtc":"2024-07-06","visit":null},{"seq":"69","trt":"TEPOTINIB","dose":"500.0","doseu":null,"dosef":"QD","route":"ORAL","start_dtc":"2024-07-07","end_dtc":"2024-07-07","visit":null},{"seq":"70","trt":"TEPOTINIB","dose":null,"doseu":null,"dosef":"QD","route":"ORAL","start_dtc":"2024-07-08","end_dtc":"2024-07-08","visit":null},{"seq":"71","trt":"TEPOTINIB","dose":"500.0","doseu":null,"dosef":"QD","route":"ORAL","start_dtc":"2024-07-09","end_dtc":"2024-07-09","visit":null},{"seq":"72","trt":"TEPOTINIB","dose":"500.0","doseu":null,"dosef":"QD","route":"ORAL","start_dtc":"2024-07-10","end_dtc":"2024-07-10","visit":null},{"seq":"73","trt":"TEPOTINIB","dose":"500.0","doseu":null,"dosef":"QD","route":"ORAL","start_dtc":"2024-07-11","end_dtc":"2024-07-11","visit":null},{"seq":"74","trt":"TEPOTINIB","dose":"500.0","doseu":null,"dosef":"QD","route":"ORAL","start_dtc":"2024-07-12","end_dtc":"2024-07-12","visit":null},{"seq":"75","trt":"TEPOTINIB","dose":"500.0","doseu":null,"dosef":"QD","route":"ORAL","start_dtc":"2024-07-13","end_dtc":"2024-07-13","visit":null},{"seq":"76","trt":"TEPOTINIB","dose":"500.0","doseu":null,"dosef":"QD","route":"ORAL","start_dtc":"2024-07-14","end_dtc":"2024-07-14","visit":null},{"seq":"77","trt":"TEPOTINIB","dose":"500.0","doseu":null,"dosef":"QD","route":"ORAL","start_dtc":"2024-07-15","end_dtc":"2024-07-15","visit":null},{"seq":"78","trt":"TEPOTINIB","dose":"500.0","doseu":null,"dosef":"QD","route":"ORAL","start_dtc":"2024-07-16","end_dtc":"2024-07-16","visit":null},{"seq":"79","trt":"TEPOTINIB","dose":"500.0","doseu":null,"dosef":"QD","route":"ORAL","start_dtc":"2024-07-17","end_dtc":"2024-07-17","visit":null},{"seq":"80","trt":"TEPOTINIB","dose":"500.0","doseu":null,"dosef":"QD","route":"ORAL","start_dtc":"2024-07-18","end_dtc":"2024-07-18","visit":null},{"seq":"81","trt":"TEPOTINIB","dose":"500.0","doseu":null,"dosef":"QD","route":"ORAL","start_dtc":"2024-07-19","end_dtc":"2024-07-19","visit":null},{"seq":"82","trt":"TEPOTINIB","dose":"500.0","doseu":null,"dosef":"QD","route":"ORAL","start_dtc":"2024-07-20","end_dtc":"2024-07-20","visit":"C4D1"},{"seq":"83","trt":"TEPOTINIB","dose":"500.0","doseu":null,"dosef":"QD","route":"ORAL","start_dtc":"2024-07-21","end_dtc":"2024-07-21","visit":"C4D1"},{"seq":"84","trt":"TEPOTINIB","dose":"500.0","doseu":null,"dosef":"QD","route":"ORAL","start_dtc":"2024-07-22","end_dtc":"2024-07-22","visit":"C4D1"},{"seq":"85","trt":"TEPOTINIB","dose":null,"doseu":null,"dosef":"QD","route":"ORAL","start_dtc":"2024-07-23","end_dtc":"2024-07-23","visit":"C4D1"},{"seq":"86","trt":"TEPOTINIB","dose":"500.0","doseu":null,"dosef":"QD","route":"ORAL","start_dtc":"2024-07-24","end_dtc":"2024-07-24","visit":"C4D1"},{"seq":"87","trt":"TEPOTINIB","dose":"500.0","doseu":null,"dosef":"QD","route":"ORAL","start_dtc":"2024-07-25","end_dtc":"2024-07-25","visit":"C4D1"},{"seq":"88","trt":"TEPOTINIB","dose":"500.0","doseu":null,"dosef":"QD","route":"ORAL","start_dtc":"2024-07-26","end_dtc":"2024-07-26","visit":"C4D1"},{"seq":"89","trt":"TEPOTINIB","dose":"500.0","doseu":null,"dosef":"QD","route":"ORAL","start_dtc":"2024-07-27","end_dtc":"2024-07-27","visit":null},{"seq":"90","trt":"TEPOTINIB","dose":"500.0","doseu":null,"dosef":"QD","route":"ORAL","start_dtc":"2024-07-28","end_dtc":"2024-07-28","visit":null},{"seq":"91","trt":"TEPOTINIB","dose":"500.0","doseu":null,"dosef":"QD","route":"ORAL","start_dtc":"2024-07-29","end_dtc":"2024-07-29","visit":null},{"seq":"92","trt":"TEPOTINIB","dose":"500.0","doseu":null,"dosef":"QD","route":"ORAL","start_dtc":"2024-07-30","end_dtc":"2024-07-30","visit":null},{"seq":"93","trt":"TEPOTINIB","dose":"500.0","doseu":null,"dosef":"QD","route":"ORAL","start_dtc":"2024-07-31","end_dtc":"2024-07-31","visit":null},{"seq":"94","trt":"TEPOTINIB","dose":"500.0","doseu":null,"dosef":"QD","route":"ORAL","start_dtc":"2024-08-01","end_dtc":"2024-08-01","visit":null},{"seq":"95","trt":"TEPOTINIB","dose":"500.0","doseu":null,"dosef":"QD","route":"ORAL","start_dtc":"2024-08-02","end_dtc":"2024-08-02","visit":null},{"seq":"96","trt":"TEPOTINIB","dose":"500.0","doseu":null,"dosef":"QD","route":"ORAL","start_dtc":"2024-08-03","end_dtc":"2024-08-03","visit":null},{"seq":"97","trt":"TEPOTINIB","dose":"500.0","doseu":null,"dosef":"QD","route":"ORAL","start_dtc":"2024-08-04","end_dtc":"2024-08-04","visit":null},{"seq":"98","trt":"TEPOTINIB","dose":"500.0","doseu":null,"dosef":"QD","route":"ORAL","start_dtc":"2024-08-05","end_dtc":"2024-08-05","visit":null},{"seq":"99","trt":"TEPOTINIB","dose":"500.0","doseu":null,"dosef":"QD","route":"ORAL","start_dtc":"2024-08-06","end_dtc":"2024-08-06","visit":null},{"seq":"100","trt":"TEPOTINIB","dose":"500.0","doseu":null,"dosef":"QD","route":"ORAL","start_dtc":"2024-08-07","end_dtc":"2024-08-07","visit":null},{"seq":"101","trt":"TEPOTINIB","dose":"500.0","doseu":null,"dosef":"QD","route":"ORAL","start_dtc":"2024-08-08","end_dtc":"2024-08-08","visit":null},{"seq":"102","trt":"TEPOTINIB","dose":"500.0","doseu":null,"dosef":"QD","route":"ORAL","start_dtc":"2024-08-09","end_dtc":"2024-08-09","visit":null},{"seq":"103","trt":"TEPOTINIB","dose":"500.0","doseu":null,"dosef":"QD","route":"ORAL","start_dtc":"2024-08-10","end_dtc":"2024-08-10","visit":null},{"seq":"104","trt":"TEPOTINIB","dose":"500.0","doseu":null,"dosef":"QD","route":"ORAL","start_dtc":"2024-08-11","end_dtc":"2024-08-11","visit":null},{"seq":"105","trt":"TEPOTINIB","dose":"500.0","doseu":null,"dosef":"QD","route":"ORAL","start_dtc":"2024-08-12","end_dtc":"2024-08-12","visit":null},{"seq":"106","trt":"TEPOTINIB","dose":"500.0","doseu":null,"dosef":"QD","route":"ORAL","start_dtc":"2024-08-13","end_dtc":"2024-08-13","visit":null},{"seq":"107","trt":"TEPOTINIB","dose":"500.0","doseu":null,"dosef":"QD","route":"ORAL","start_dtc":"2024-08-14","end_dtc":"2024-08-14","visit":null},{"seq":"108","trt":"TEPOTINIB","dose":"500.0","doseu":null,"dosef":"QD","route":"ORAL","start_dtc":"2024-08-15","end_dtc":"2024-08-15","visit":null},{"seq":"109","trt":"TEPOTINIB","dose":"500.0","doseu":null,"dosef":"QD","route":"ORAL","start_dtc":"2024-08-16","end_dtc":"2024-08-16","visit":null},{"seq":"110","trt":"TEPOTINIB","dose":"500.0","doseu":null,"dosef":"QD","route":"ORAL","start_dtc":"2024-08-17","end_dtc":"2024-08-17","visit":null},{"seq":"111","trt":"TEPOTINIB","dose":"500.0","doseu":null,"dosef":"QD","route":"ORAL","start_dtc":"2024-08-18","end_dtc":"2024-08-18","visit":null},{"seq":"112","trt":"TEPOTINIB","dose":"500.0","doseu":null,"dosef":"QD","route":"ORAL","start_dtc":"2024-08-19","end_dtc":"2024-08-19","visit":null},{"seq":"113","trt":"TEPOTINIB","dose":"500.0","doseu":null,"dosef":"QD","route":"ORAL","start_dtc":"2024-08-20","end_dtc":"2024-08-20","visit":null},{"seq":"114","trt":"TEPOTINIB","dose":"500.0","doseu":null,"dosef":"QD","route":"ORAL","start_dtc":"2024-08-21","end_dtc":"2024-08-21","visit":null},{"seq":"115","trt":"TEPOTINIB","dose":"250.0","doseu":null,"dosef":"QD","route":"ORAL","start_dtc":"2024-08-22","end_dtc":"2024-08-22","visit":null},{"seq":"116","trt":"TEPOTINIB","dose":"250.0","doseu":null,"dosef":"QD","route":"ORAL","start_dtc":"2024-08-23","end_dtc":"2024-08-23","visit":null},{"seq":"117","trt":"TEPOTINIB","dose":"250.0","doseu":null,"dosef":"QD","route":"ORAL","start_dtc":"2024-08-24","end_dtc":"2024-08-24","visit":null},{"seq":"118","trt":"TEPOTINIB","dose":"250.0","doseu":null,"dosef":"QD","route":"ORAL","start_dtc":"2024-08-25","end_dtc":"2024-08-25","visit":null},{"seq":"119","trt":"TEPOTINIB","dose":"250.0","doseu":null,"dosef":"QD","route":"ORAL","start_dtc":"2024-08-26","end_dtc":"2024-08-26","visit":null},{"seq":"120","trt":"TEPOTINIB","dose":"250.0","doseu":null,"dosef":"QD","route":"ORAL","start_dtc":"2024-08-27","end_dtc":"2024-08-27","visit":null},{"seq":"121","trt":"TEPOTINIB","dose":"250.0","doseu":null,"dosef":"QD","route":"ORAL","start_dtc":"2024-08-28","end_dtc":"2024-08-28","visit":null},{"seq":"122","trt":"TEPOTINIB","dose":"250.0","doseu":null,"dosef":"QD","route":"ORAL","start_dtc":"2024-08-29","end_dtc":"2024-08-29","visit":null},{"seq":"123","trt":"TEPOTINIB","dose":"250.0","doseu":null,"dosef":"QD","route":"ORAL","start_dtc":"2024-08-30","end_dtc":"2024-08-30","visit":null},{"seq":"124","trt":"TEPOTINIB","dose":"250.0","doseu":null,"dosef":"QD","route":"ORAL","start_dtc":"2024-08-31","end_dtc":"2024-08-31","visit":null},{"seq":"125","trt":"TEPOTINIB","dose":"250.0","doseu":null,"dosef":"QD","route":"ORAL","start_dtc":"2024-09-01","end_dtc":"2024-09-01","visit":null},{"seq":"126","trt":"TEPOTINIB","dose":"250.0","doseu":null,"dosef":"QD","route":"ORAL","start_dtc":"2024-09-02","end_dtc":"2024-09-02","visit":null},{"seq":"127","trt":"TEPOTINIB","dose":"250.0","doseu":null,"dosef":"QD","route":"ORAL","start_dtc":"2024-09-03","end_dtc":"2024-09-03","visit":null}]},"section_7_adverse_events":{"summary":{"total_aes":8,"serious_aes":1,"fatal_aes":0,"by_severity":{"SEVERE":1,"MODERATE":4,"MILD":3},"by_soc":{"General disorders and administration site conditions":6,"Investigations":1,"Metabolism and nutrition disorders":1}},"events":[{"seq":"1","term":"OEDEMA PERIPHERAL","decod":"Oedema peripheral","llt":"Oedema peripheral","hlt":"Oedema NEC","hlgt":"Oedema NEC","soc":"General disorders and administration site conditions","bodsys":"General disorders and administration site conditions","severity":"SEVERE","serious":"Y","causality":"NOT RELATED","action_taken":"DOSE NOT CHANGED","outcome":"RECOVERED/RESOLVED","fatal":"N","hospitalization":"Y","life_threatening":"N","onset_dtc":"2024-05-15","end_dtc":"2024-05-19","onset_dy":"16","end_dy":"20","duration":null,"epoch":"TREATMENT","visit":null,"supplemental":{}},{"seq":"2","term":"OEDEMA PERIPHERAL","decod":"Oedema peripheral","llt":"Oedema peripheral","hlt":"Oedema NEC","hlgt":"Oedema NEC","soc":"General disorders and administration site conditions","bodsys":"General disorders and administration site conditions","severity":"MODERATE","serious":"N","causality":"UNLIKELY RELATED","action_taken":"DOSE NOT CHANGED","outcome":"RECOVERED/RESOLVED WITH SEQUELAE","fatal":"N","hospitalization":"N","life_threatening":"N","onset_dtc":"2024-05-30","end_dtc":"2024-06-22","onset_dy":"31","end_dy":"54","duration":null,"epoch":"TREATMENT","visit":null,"supplemental":{}},{"seq":"3","term":"OEDEMA PERIPHERAL","decod":"Oedema peripheral","llt":"Oedema peripheral","hlt":"Oedema NEC","hlgt":"Oedema NEC","soc":"General disorders and administration site conditions","bodsys":"General disorders and administration site conditions","severity":"MILD","serious":"N","causality":"PROBABLY RELATED","action_taken":"DOSE NOT CHANGED","outcome":"RECOVERED/RESOLVED","fatal":"N","hospitalization":"N","life_threatening":"N","onset_dtc":"2024-06-02","end_dtc":"2024-06-11","onset_dy":"34","end_dy":"43","duration":null,"epoch":"TREATMENT","visit":null,"supplemental":{}},{"seq":"4","term":"OEDEMA PERIPHERAL","decod":"Oedema peripheral","llt":"Oedema peripheral","hlt":"Oedema NEC","hlgt":"Oedema NEC","soc":"General disorders and administration site conditions","bodsys":"General disorders and administration site conditions","severity":"MILD","serious":"N","causality":"UNLIKELY RELATED","action_taken":"DOSE NOT CHANGED","outcome":"RECOVERED/RESOLVED","fatal":"N","hospitalization":"N","life_threatening":"N","onset_dtc":"2024-08-16","end_dtc":"2024-08-26","onset_dy":"109","end_dy":"119","duration":null,"epoch":"TREATMENT","visit":null,"supplemental":{}},{"seq":"5","term":"ASPARTATE AMINOTRANSFERASE INCREASED","decod":"Aspartate aminotransferase increased","llt":"Aspartate aminotransferase increased","hlt":"Liver function analyses","hlgt":"Hepatobiliary investigations","soc":"Investigations","bodsys":"Investigations","severity":"MILD","serious":"N","causality":"NOT RELATED","action_taken":"DOSE NOT CHANGED","outcome":"RECOVERED/RESOLVED","fatal":"N","hospitalization":"N","life_threatening":"N","onset_dtc":"2024-08-17","end_dtc":"2024-08-25","onset_dy":"110","end_dy":"118","duration":null,"epoch":"TREATMENT","visit":null,"supplemental":{}},{"seq":"6","term":"OEDEMA PERIPHERAL","decod":"Oedema peripheral","llt":"Oedema peripheral","hlt":"Oedema NEC","hlgt":"Oedema NEC","soc":"General disorders and administration site conditions","bodsys":"General disorders and administration site conditions","severity":"MODERATE","serious":"N","causality":"PROBABLY RELATED","action_taken":"DOSE REDUCED","outcome":"RECOVERED/RESOLVED","fatal":"N","hospitalization":"N","life_threatening":"N","onset_dtc":"2024-08-22","end_dtc":"2024-09-17","onset_dy":"115","end_dy":"141","duration":null,"epoch":"TREATMENT","visit":null,"supplemental":{}},{"seq":"7","term":"OEDEMA PERIPHERAL","decod":"Oedema peripheral","llt":"Oedema peripheral","hlt":"Oedema NEC","hlgt":"Oedema NEC","soc":"General disorders and administration site conditions","bodsys":"General disorders and administration site conditions","severity":"MODERATE","serious":"N","causality":"NOT RELATED","action_taken":"DOSE NOT CHANGED","outcome":"RECOVERED/RESOLVED WITH SEQUELAE","fatal":"N","hospitalization":"N","life_threatening":"N","onset_dtc":"2024-08-23","end_dtc":"2024-08-27","onset_dy":"116","end_dy":"120","duration":null,"epoch":"TREATMENT","visit":null,"supplemental":{}},{"seq":"8","term":"DECREASED APPETITE","decod":"Decreased appetite","llt":"Decreased appetite","hlt":"Appetite disorders","hlgt":"Eating disorders and disturbances","soc":"Metabolism and nutrition disorders","bodsys":"Metabolism and nutrition disorders","severity":"MODERATE","serious":"N","causality":"PROBABLY RELATED","action_taken":"DRUG INTERRUPTED","outcome":"RECOVERED/RESOLVED","fatal":"N","hospitalization":"N","life_threatening":"N","onset_dtc":"2024-09-26","end_dtc":"2024-10-02","onset_dy":"150","end_dy":"156","duration":null,"epoch":"TREATMENT","visit":null,"supplemental":{}}]},"section_8_laboratory_results":{"summary":{"total_records":56,"abnormal_count":8,"abnormal_pct":14.3},"shift_summary":[{"testcd":"ALT","baseline_value":19.52,"baseline_nrind":"NORMAL","worst_post_baseline_value":27.28,"worst_post_baseline_nrind":"NORMAL","worst_visit":"C2D1"},{"testcd":"AST","baseline_value":15.68,"baseline_nrind":"NORMAL","worst_post_baseline_value":17.77,"worst_post_baseline_nrind":"NORMAL","worst_visit":"C1D1"},{"testcd":"CREAT","baseline_value":66.12,"baseline_nrind":"NORMAL","worst_post_baseline_value":59.76,"worst_post_baseline_nrind":"NORMAL","worst_visit":"C1D1"},{"testcd":"GLUC","baseline_value":5.12,"baseline_nrind":"NORMAL","worst_post_baseline_value":5.41,"worst_post_baseline_nrind":"NORMAL","worst_visit":"FOLLOW-UP"},{"testcd":"HGB","baseline_value":115.96,"baseline_nrind":"LOW","worst_post_baseline_value":114.17,"worst_post_baseline_nrind":"LOW","worst_visit":"C3D1"},{"testcd":"PLAT","baseline_value":218.21,"baseline_nrind":"NORMAL","worst_post_baseline_value":237.55,"worst_post_baseline_nrind":"NORMAL","worst_visit":"C2D1"},{"testcd":"WBC","baseline_value":6.11,"baseline_nrind":"NORMAL","worst_post_baseline_value":6.31,"worst_post_baseline_nrind":"NORMAL","worst_visit":"FOLLOW-UP"}],"results":[{"seq":"1","testcd":"ALT","test":"Alanine Aminotransferase","cat":"CHEMISTRY","orres":"19.52","orresu":"U/L","stresc":"19.52","stresn":"19.52","stresu":"U/L","stnrlo":"7","stnrhi":"56","nrind":"NORMAL","fast":null,"dtc":"2024-04-05","dy":"-25","visit":"SCREENING","visitnum":"1.0","epoch":"SCREENING","spec":null,"method":null},{"seq":"2","testcd":"AST","test":"Aspartate Aminotransferase","cat":"CHEMISTRY","orres":"15.68","orresu":"U/L","stresc":"15.68","stresn":"15.68","stresu":"U/L","stnrlo":"10","stnrhi":"40","nrind":"NORMAL","fast":null,"dtc":"2024-04-05","dy":"-25","visit":"SCREENING","visitnum":"1.0","epoch":"SCREENING","spec":null,"method":null},{"seq":"3","testcd":"CREAT","test":"Creatinine","cat":"CHEMISTRY","orres":"66.12","orresu":"umol/L","stresc":"66.12","stresn":"66.12","stresu":"umol/L","stnrlo":"44","stnrhi":"80","nrind":"NORMAL","fast":null,"dtc":"2024-04-05","dy":"-25","visit":"SCREENING","visitnum":"1.0","epoch":"SCREENING","spec":null,"method":null},{"seq":"4","testcd":"GLUC","test":"Glucose","cat":"CHEMISTRY","orres":"5.12","orresu":"mmol/L","stresc":"5.12","stresn":"5.12","stresu":"mmol/L","stnrlo":"3.9","stnrhi":"5.6","nrind":"NORMAL","fast":null,"dtc":"2024-04-05","dy":"-25","visit":"SCREENING","visitnum":"1.0","epoch":"SCREENING","spec":null,"method":null},{"seq":"5","testcd":"HGB","test":"Hemoglobin","cat":"HEMATOLOGY","orres":"115.96","orresu":"g/L","stresc":"115.96","stresn":"115.96","stresu":"g/L","stnrlo":"120","stnrhi":"155","nrind":"LOW","fast":null,"dtc":"2024-04-05","dy":"-25","visit":"SCREENING","visitnum":"1.0","epoch":"SCREENING","spec":null,"method":null},{"seq":"6","testcd":"PLAT","test":"Platelets","cat":"HEMATOLOGY","orres":"218.21","orresu":"10^9/L","stresc":"218.21","stresn":"218.21","stresu":"10^9/L","stnrlo":"150","stnrhi":"400","nrind":"NORMAL","fast":null,"dtc":"2024-04-05","dy":"-25","visit":"SCREENING","visitnum":"1.0","epoch":"SCREENING","spec":null,"method":null},{"seq":"7","testcd":"WBC","test":"Leukocytes","cat":"HEMATOLOGY","orres":"6.11","orresu":"10^9/L","stresc":"6.11","stresn":"6.11","stresu":"10^9/L","stnrlo":"4.0","stnrhi":"11.0","nrind":"NORMAL","fast":null,"dtc":"2024-04-05","dy":"-25","visit":"SCREENING","visitnum":"1.0","epoch":"SCREENING","spec":null,"method":null},{"seq":"8","testcd":"ALT","test":"Alanine Aminotransferase","cat":"CHEMISTRY","orres":"22.32","orresu":"U/L","stresc":"22.32","stresn":"22.32","stresu":"U/L","stnrlo":"7","stnrhi":"56","nrind":"NORMAL","fast":null,"dtc":"2024-04-30","dy":"1","visit":"C1D1","visitnum":"2.0","epoch":"TREATMENT","spec":null,"method":null},{"seq":"9","testcd":"AST","test":"Aspartate Aminotransferase","cat":"CHEMISTRY","orres":"17.77","orresu":"U/L","stresc":"17.77","stresn":"17.77","stresu":"U/L","stnrlo":"10","stnrhi":"40","nrind":"NORMAL","fast":null,"dtc":"2024-04-30","dy":"1","visit":"C1D1","visitnum":"2.0","epoch":"TREATMENT","spec":null,"method":null},{"seq":"10","testcd":"CREAT","test":"Creatinine","cat":"CHEMISTRY","orres":"59.76","orresu":"umol/L","stresc":"59.76","stresn":"59.76","stresu":"umol/L","stnrlo":"44","stnrhi":"80","nrind":"NORMAL","fast":null,"dtc":"2024-04-30","dy":"1","visit":"C1D1","visitnum":"2.0","epoch":"TREATMENT","spec":null,"method":null},{"seq":"11","testcd":"GLUC","test":"Glucose","cat":"CHEMISTRY","orres":"4.95","orresu":"mmol/L","stresc":"4.95","stresn":"4.95","stresu":"mmol/L","stnrlo":"3.9","stnrhi":"5.6","nrind":"NORMAL","fast":null,"dtc":"2024-04-30","dy":"1","visit":"C1D1","visitnum":"2.0","epoch":"TREATMENT","spec":null,"method":null},{"seq":"12","testcd":"HGB","test":"Hemoglobin","cat":"HEMATOLOGY","orres":"118.05","orresu":"g/L","stresc":"118.05","stresn":"118.05","stresu":"g/L","stnrlo":"120","stnrhi":"155","nrind":"LOW","fast":null,"dtc":"2024-04-30","dy":"1","visit":"C1D1","visitnum":"2.0","epoch":"TREATMENT","spec":null,"method":null},{"seq":"13","testcd":"PLAT","test":"Platelets","cat":"HEMATOLOGY","orres":"215.77","orresu":"10^9/L","stresc":"215.77","stresn":"215.77","stresu":"10^9/L","stnrlo":"150","stnrhi":"400","nrind":"NORMAL","fast":null,"dtc":"2024-04-30","dy":"1","visit":"C1D1","visitnum":"2.0","epoch":"TREATMENT","spec":null,"method":null},{"seq":"14","testcd":"WBC","test":"Leukocytes","cat":"HEMATOLOGY","orres":"6.19","orresu":"10^9/L","stresc":"6.19","stresn":"6.19","stresu":"10^9/L","stnrlo":"4.0","stnrhi":"11.0","nrind":"NORMAL","fast":null,"dtc":"2024-04-30","dy":"1","visit":"C1D1","visitnum":"2.0","epoch":"TREATMENT","spec":null,"method":null},{"seq":"15","testcd":"ALT","test":"Alanine Aminotransferase","cat":"CHEMISTRY","orres":"25.43","orresu":"U/L","stresc":"25.43","stresn":"25.43","stresu":"U/L","stnrlo":"7","stnrhi":"56","nrind":"NORMAL","fast":null,"dtc":"2024-05-13","dy":"14","visit":"C1D15","visitnum":"3.0","epoch":"TREATMENT","spec":null,"method":null},{"seq":"16","testcd":"AST","test":"Aspartate Aminotransferase","cat":"CHEMISTRY","orres":"16.99","orresu":"U/L","stresc":"16.99","stresn":"16.99","stresu":"U/L","stnrlo":"10","stnrhi":"40","nrind":"NORMAL","fast":null,"dtc":"2024-05-13","dy":"14","visit":"C1D15","visitnum":"3.0","epoch":"TREATMENT","spec":null,"method":null},{"seq":"17","testcd":"CREAT","test":"Creatinine","cat":"CHEMISTRY","orres":"57.03","orresu":"umol/L","stresc":"57.03","stresn":"57.03","stresu":"umol/L","stnrlo":"44","stnrhi":"80","nrind":"NORMAL","fast":null,"dtc":"2024-05-13","dy":"14","visit":"C1D15","visitnum":"3.0","epoch":"TREATMENT","spec":null,"method":null},{"seq":"18","testcd":"GLUC","test":"Glucose","cat":"CHEMISTRY","orres":"5.06","orresu":"mmol/L","stresc":"5.06","stresn":"5.06","stresu":"mmol/L","stnrlo":"3.9","stnrhi":"5.6","nrind":"NORMAL","fast":null,"dtc":"2024-05-13","dy":"14","visit":"C1D15","visitnum":"3.0","epoch":"TREATMENT","spec":null,"method":null},{"seq":"19","testcd":"HGB","test":"Hemoglobin","cat":"HEMATOLOGY","orres":"116.6","orresu":"g/L","stresc":"116.6","stresn":"116.6","stresu":"g/L","stnrlo":"120","stnrhi":"155","nrind":"LOW","fast":null,"dtc":"2024-05-13","dy":"14","visit":"C1D15","visitnum":"3.0","epoch":"TREATMENT","spec":null,"method":null},{"seq":"20","testcd":"PLAT","test":"Platelets","cat":"HEMATOLOGY","orres":"218.16","orresu":"10^9/L","stresc":"218.16","stresn":"218.16","stresu":"10^9/L","stnrlo":"150","stnrhi":"400","nrind":"NORMAL","fast":null,"dtc":"2024-05-13","dy":"14","visit":"C1D15","visitnum":"3.0","epoch":"TREATMENT","spec":null,"method":null},{"seq":"21","testcd":"WBC","test":"Leukocytes","cat":"HEMATOLOGY","orres":"5.76","orresu":"10^9/L","stresc":"5.76","stresn":"5.76","stresu":"10^9/L","stnrlo":"4.0","stnrhi":"11.0","nrind":"NORMAL","fast":null,"dtc":"2024-05-13","dy":"14","visit":"C1D15","visitnum":"3.0","epoch":"TREATMENT","spec":null,"method":null},{"seq":"22","testcd":"ALT","test":"Alanine Aminotransferase","cat":"CHEMISTRY","orres":"27.28","orresu":"U/L","stresc":"27.28","stresn":"27.28","stresu":"U/L","stnrlo":"7","stnrhi":"56","nrind":"NORMAL","fast":null,"dtc":"2024-05-29","dy":"30","visit":"C2D1","visitnum":"4.0","epoch":"TREATMENT","spec":null,"method":null},{"seq":"23","testcd":"AST","test":"Aspartate Aminotransferase","cat":"CHEMISTRY","orres":null,"orresu":null,"stresc":null,"stresn":null,"stresu":null,"stnrlo":null,"stnrhi":null,"nrind":null,"fast":null,"dtc":"2024-05-29","dy":"30","visit":"C2D1","visitnum":"4.0","epoch":"TREATMENT","spec":null,"method":null},{"seq":"24","testcd":"CREAT","test":"Creatinine","cat":"CHEMISTRY","orres":"56.46","orresu":"umol/L","stresc":"56.46","stresn":"56.46","stresu":"umol/L","stnrlo":"44","stnrhi":"80","nrind":"NORMAL","fast":null,"dtc":"2024-05-29","dy":"30","visit":"C2D1","visitnum":"4.0","epoch":"TREATMENT","spec":null,"method":null},{"seq":"25","testcd":"GLUC","test":"Glucose","cat":"CHEMISTRY","orres":"4.97","orresu":"mmol/L","stresc":"4.97","stresn":"4.97","stresu":"mmol/L","stnrlo":"3.9","stnrhi":"5.6","nrind":"NORMAL","fast":null,"dtc":"2024-05-29","dy":"30","visit":"C2D1","visitnum":"4.0","epoch":"TREATMENT","spec":null,"method":null},{"seq":"26","testcd":"HGB","test":"Hemoglobin","cat":"HEMATOLOGY","orres":"114.67","orresu":"g/L","stresc":"114.67","stresn":"114.67","stresu":"g/L","stnrlo":"120","stnrhi":"155","nrind":"LOW","fast":null,"dtc":"2024-05-29","dy":"30","visit":"C2D1","visitnum":"4.0","epoch":"TREATMENT","spec":null,"method":null},{"seq":"27","testcd":"PLAT","test":"Platelets","cat":"HEMATOLOGY","orres":"237.55","orresu":"10^9/L","stresc":"237.55","stresn":"237.55","stresu":"10^9/L","stnrlo":"150","stnrhi":"400","nrind":"NORMAL","fast":null,"dtc":"2024-05-29","dy":"30","visit":"C2D1","visitnum":"4.0","epoch":"TREATMENT","spec":null,"method":null},{"seq":"28","testcd":"WBC","test":"Leukocytes","cat":"HEMATOLOGY","orres":null,"orresu":null,"stresc":null,"stresn":null,"stresu":null,"stnrlo":null,"stnrhi":null,"nrind":null,"fast":null,"dtc":"2024-05-29","dy":"30","visit":"C2D1","visitnum":"4.0","epoch":"TREATMENT","spec":null,"method":null},{"seq":"29","testcd":"ALT","test":"Alanine Aminotransferase","cat":"CHEMISTRY","orres":"22.62","orresu":"U/L","stresc":"22.62","stresn":"22.62","stresu":"U/L","stnrlo":"7","stnrhi":"56","nrind":"NORMAL","fast":null,"dtc":"2024-06-27","dy":"59","visit":"C3D1","visitnum":"5.0","epoch":"TREATMENT","spec":null,"method":null},{"seq":"30","testcd":"AST","test":"Aspartate Aminotransferase","cat":"CHEMISTRY","orres":"15.1","orresu":"U/L","stresc":"15.1","stresn":"15.1","stresu":"U/L","stnrlo":"10","stnrhi":"40","nrind":"NORMAL","fast":null,"dtc":"2024-06-27","dy":"59","visit":"C3D1","visitnum":"5.0","epoch":"TREATMENT","spec":null,"method":null},{"seq":"31","testcd":"CREAT","test":"Creatinine","cat":"CHEMISTRY","orres":null,"orresu":null,"stresc":null,"stresn":null,"stresu":null,"stnrlo":null,"stnrhi":null,"nrind":null,"fast":null,"dtc":"2024-06-27","dy":"59","visit":"C3D1","visitnum":"5.0","epoch":"TREATMENT","spec":null,"method":null},{"seq":"32","testcd":"GLUC","test":"Glucose","cat":"CHEMISTRY","orres":"5.15","orresu":"mmol/L","stresc":"5.15","stresn":"5.15","stresu":"mmol/L","stnrlo":"3.9","stnrhi":"5.6","nrind":"NORMAL","fast":null,"dtc":"2024-06-27","dy":"59","visit":"C3D1","visitnum":"5.0","epoch":"TREATMENT","spec":null,"method":null},{"seq":"33","testcd":"HGB","test":"Hemoglobin","cat":"HEMATOLOGY","orres":"114.17","orresu":"g/L","stresc":"114.17","stresn":"114.17","stresu":"g/L","stnrlo":"120","stnrhi":"155","nrind":"LOW","fast":null,"dtc":"2024-06-27","dy":"59","visit":"C3D1","visitnum":"5.0","epoch":"TREATMENT","spec":null,"method":null},{"seq":"34","testcd":"PLAT","test":"Platelets","cat":"HEMATOLOGY","orres":"237.05","orresu":"10^9/L","stresc":"237.05","stresn":"237.05","stresu":"10^9/L","stnrlo":"150","stnrhi":"400","nrind":"NORMAL","fast":null,"dtc":"2024-06-27","dy":"59","visit":"C3D1","visitnum":"5.0","epoch":"TREATMENT","spec":null,"method":null},{"seq":"35","testcd":"WBC","test":"Leukocytes","cat":"HEMATOLOGY","orres":"5.6","orresu":"10^9/L","stresc":"5.6","stresn":"5.6","stresu":"10^9/L","stnrlo":"4.0","stnrhi":"11.0","nrind":"NORMAL","fast":null,"dtc":"2024-06-27","dy":"59","visit":"C3D1","visitnum":"5.0","epoch":"TREATMENT","spec":null,"method":null},{"seq":"36","testcd":"ALT","test":"Alanine Aminotransferase","cat":"CHEMISTRY","orres":"22.88","orresu":"U/L","stresc":"22.88","stresn":"22.88","stresu":"U/L","stnrlo":"7","stnrhi":"56","nrind":"NORMAL","fast":null,"dtc":"2024-07-23","dy":"85","visit":"C4D1","visitnum":"6.0","epoch":"TREATMENT","spec":null,"method":null},{"seq":"37","testcd":"AST","test":"Aspartate Aminotransferase","cat":"CHEMISTRY","orres":"16.45","orresu":"U/L","stresc":"16.45","stresn":"16.45","stresu":"U/L","stnrlo":"10","stnrhi":"40","nrind":"NORMAL","fast":null,"dtc":"2024-07-23","dy":"85","visit":"C4D1","visitnum":"6.0","epoch":"TREATMENT","spec":null,"method":null},{"seq":"38","testcd":"CREAT","test":"Creatinine","cat":"CHEMISTRY","orres":"58.31","orresu":"umol/L","stresc":"58.31","stresn":"58.31","stresu":"umol/L","stnrlo":"44","stnrhi":"80","nrind":"NORMAL","fast":null,"dtc":"2024-07-23","dy":"85","visit":"C4D1","visitnum":"6.0","epoch":"TREATMENT","spec":null,"method":null},{"seq":"39","testcd":"GLUC","test":"Glucose","cat":"CHEMISTRY","orres":"5.16","orresu":"mmol/L","stresc":"5.16","stresn":"5.16","stresu":"mmol/L","stnrlo":"3.9","stnrhi":"5.6","nrind":"NORMAL","fast":null,"dtc":"2024-07-23","dy":"85","visit":"C4D1","visitnum":"6.0","epoch":"TREATMENT","spec":null,"method":null},{"seq":"40","testcd":"HGB","test":"Hemoglobin","cat":"HEMATOLOGY","orres":"115.36","orresu":"g/L","stresc":"115.36","stresn":"115.36","stresu":"g/L","stnrlo":"120","stnrhi":"155","nrind":"LOW","fast":null,"dtc":"2024-07-23","dy":"85","visit":"C4D1","visitnum":"6.0","epoch":"TREATMENT","spec":null,"method":null},{"seq":"41","testcd":"PLAT","test":"Platelets","cat":"HEMATOLOGY","orres":"222.68","orresu":"10^9/L","stresc":"222.68","stresn":"222.68","stresu":"10^9/L","stnrlo":"150","stnrhi":"400","nrind":"NORMAL","fast":null,"dtc":"2024-07-23","dy":"85","visit":"C4D1","visitnum":"6.0","epoch":"TREATMENT","spec":null,"method":null},{"seq":"42","testcd":"WBC","test":"Leukocytes","cat":"HEMATOLOGY","orres":"6.01","orresu":"10^9/L","stresc":"6.01","stresn":"6.01","stresu":"10^9/L","stnrlo":"4.0","stnrhi":"11.0","nrind":"NORMAL","fast":null,"dtc":"2024-07-23","dy":"85","visit":"C4D1","visitnum":"6.0","epoch":"TREATMENT","spec":null,"method":null},{"seq":"43","testcd":"ALT","test":"Alanine Aminotransferase","cat":"CHEMISTRY","orres":"21.05","orresu":"U/L","stresc":"21.05","stresn":"21.05","stresu":"U/L","stnrlo":"7","stnrhi":"56","nrind":"NORMAL","fast":null,"dtc":"2024-10-14","dy":"168","visit":"EOT","visitnum":"8.0","epoch":"TREATMENT","spec":null,"method":null},{"seq":"44","testcd":"AST","test":"Aspartate Aminotransferase","cat":"CHEMISTRY","orres":"15.98","orresu":"U/L","stresc":"15.98","stresn":"15.98","stresu":"U/L","stnrlo":"10","stnrhi":"40","nrind":"NORMAL","fast":null,"dtc":"2024-10-14","dy":"168","visit":"EOT","visitnum":"8.0","epoch":"TREATMENT","spec":null,"method":null},{"seq":"45","testcd":"CREAT","test":"Creatinine","cat":"CHEMISTRY","orres":"58.12","orresu":"umol/L","stresc":"58.12","stresn":"58.12","stresu":"umol/L","stnrlo":"44","stnrhi":"80","nrind":"NORMAL","fast":null,"dtc":"2024-10-14","dy":"168","visit":"EOT","visitnum":"8.0","epoch":"TREATMENT","spec":null,"method":null},{"seq":"46","testcd":"GLUC","test":"Glucose","cat":"CHEMISTRY","orres":"5.33","orresu":"mmol/L","stresc":"5.33","stresn":"5.33","stresu":"mmol/L","stnrlo":"3.9","stnrhi":"5.6","nrind":"NORMAL","fast":null,"dtc":"2024-10-14","dy":"168","visit":"EOT","visitnum":"8.0","epoch":"TREATMENT","spec":null,"method":null},{"seq":"47","testcd":"HGB","test":"Hemoglobin","cat":"HEMATOLOGY","orres":"117.72","orresu":"g/L","stresc":"117.72","stresn":"117.72","stresu":"g/L","stnrlo":"120","stnrhi":"155","nrind":"LOW","fast":null,"dtc":"2024-10-14","dy":"168","visit":"EOT","visitnum":"8.0","epoch":"TREATMENT","spec":null,"method":null},{"seq":"48","testcd":"PLAT","test":"Platelets","cat":"HEMATOLOGY","orres":"206.43","orresu":"10^9/L","stresc":"206.43","stresn":"206.43","stresu":"10^9/L","stnrlo":"150","stnrhi":"400","nrind":"NORMAL","fast":null,"dtc":"2024-10-14","dy":"168","visit":"EOT","visitnum":"8.0","epoch":"TREATMENT","spec":null,"method":null},{"seq":"49","testcd":"WBC","test":"Leukocytes","cat":"HEMATOLOGY","orres":"5.46","orresu":"10^9/L","stresc":"5.46","stresn":"5.46","stresu":"10^9/L","stnrlo":"4.0","stnrhi":"11.0","nrind":"NORMAL","fast":null,"dtc":"2024-10-14","dy":"168","visit":"EOT","visitnum":"8.0","epoch":"TREATMENT","spec":null,"method":null},{"seq":"50","testcd":"ALT","test":"Alanine Aminotransferase","cat":"CHEMISTRY","orres":"20.53","orresu":"U/L","stresc":"20.53","stresn":"20.53","stresu":"U/L","stnrlo":"7","stnrhi":"56","nrind":"NORMAL","fast":null,"dtc":"2024-11-08","dy":"193","visit":"FOLLOW-UP","visitnum":"9.0","epoch":"FOLLOW-UP","spec":null,"method":null},{"seq":"51","testcd":"AST","test":"Aspartate Aminotransferase","cat":"CHEMISTRY","orres":"15.53","orresu":"U/L","stresc":"15.53","stresn":"15.53","stresu":"U/L","stnrlo":"10","stnrhi":"40","nrind":"NORMAL","fast":null,"dtc":"2024-11-08","dy":"193","visit":"FOLLOW-UP","visitnum":"9.0","epoch":"FOLLOW-UP","spec":null,"method":null},{"seq":"52","testcd":"CREAT","test":"Creatinine","cat":"CHEMISTRY","orres":"56.45","orresu":"umol/L","stresc":"56.45","stresn":"56.45","stresu":"umol/L","stnrlo":"44","stnrhi":"80","nrind":"NORMAL","fast":null,"dtc":"2024-11-08","dy":"193","visit":"FOLLOW-UP","visitnum":"9.0","epoch":"FOLLOW-UP","spec":null,"method":null},{"seq":"53","testcd":"GLUC","test":"Glucose","cat":"CHEMISTRY","orres":"5.41","orresu":"mmol/L","stresc":"5.41","stresn":"5.41","stresu":"mmol/L","stnrlo":"3.9","stnrhi":"5.6","nrind":"NORMAL","fast":null,"dtc":"2024-11-08","dy":"193","visit":"FOLLOW-UP","visitnum":"9.0","epoch":"FOLLOW-UP","spec":null,"method":null},{"seq":"54","testcd":"HGB","test":"Hemoglobin","cat":"HEMATOLOGY","orres":"117.49","orresu":"g/L","stresc":"117.49","stresn":"117.49","stresu":"g/L","stnrlo":"120","stnrhi":"155","nrind":"LOW","fast":null,"dtc":"2024-11-08","dy":"193","visit":"FOLLOW-UP","visitnum":"9.0","epoch":"FOLLOW-UP","spec":null,"method":null},{"seq":"55","testcd":"PLAT","test":"Platelets","cat":"HEMATOLOGY","orres":"202.13","orresu":"10^9/L","stresc":"202.13","stresn":"202.13","stresu":"10^9/L","stnrlo":"150","stnrhi":"400","nrind":"NORMAL","fast":null,"dtc":"2024-11-08","dy":"193","visit":"FOLLOW-UP","visitnum":"9.0","epoch":"FOLLOW-UP","spec":null,"method":null},{"seq":"56","testcd":"WBC","test":"Leukocytes","cat":"HEMATOLOGY","orres":"6.31","orresu":"10^9/L","stresc":"6.31","stresn":"6.31","stresu":"10^9/L","stnrlo":"4.0","stnrhi":"11.0","nrind":"NORMAL","fast":null,"dtc":"2024-11-08","dy":"193","visit":"FOLLOW-UP","visitnum":"9.0","epoch":"FOLLOW-UP","spec":null,"method":null}]},"section_9_vital_signs":{"summary":{"total_records":55},"trends":{"BMI":[{"visit":"SCREENING","visitnum":"1.0","dtc":"2024-04-05","value":"18.9","unit":"kg/m2"},{"visit":"C1D15","visitnum":"3.0","dtc":"2024-05-13","value":"19.0","unit":"kg/m2"},{"visit":"C2D1","visitnum":"4.0","dtc":"2024-05-29","value":"19.0","unit":"kg/m2"},{"visit":"C3D1","visitnum":"5.0","dtc":"2024-06-27","value":"18.9","unit":"kg/m2"},{"visit":"C4D1","visitnum":"6.0","dtc":"2024-07-23","value":"18.7","unit":"kg/m2"},{"visit":"EOT","visitnum":"8.0","dtc":"2024-10-14","value":"18.7","unit":"kg/m2"}],"DIABP":[{"visit":"SCREENING","visitnum":"1.0","dtc":"2024-04-05","value":"70.3","unit":"mmHg"},{"visit":"C1D1","visitnum":"2.0","dtc":"2024-04-30","value":"70.8","unit":"mmHg"},{"visit":"C1D15","visitnum":"3.0","dtc":"2024-05-13","value":"70.2","unit":"mmHg"},{"visit":"C2D1","visitnum":"4.0","dtc":"2024-05-29","value":"73.2","unit":"mmHg"},{"visit":"C3D1","visitnum":"5.0","dtc":"2024-06-27","value":"71.7","unit":"mmHg"},{"visit":"C4D1","visitnum":"6.0","dtc":"2024-07-23","value":"71.8","unit":"mmHg"},{"visit":"EOT","visitnum":"8.0","dtc":"2024-10-14","value":"70.3","unit":"mmHg"}],"HEIGHT":[{"visit":"SCREENING","visitnum":"1.0","dtc":"2024-04-05","value":"145.3","unit":"cm"},{"visit":"C1D15","visitnum":"3.0","dtc":"2024-05-13","value":"145.0","unit":"cm"},{"visit":"C2D1","visitnum":"4.0","dtc":"2024-05-29","value":"145.1","unit":"cm"},{"visit":"C3D1","visitnum":"5.0","dtc":"2024-06-27","value":"145.4","unit":"cm"},{"visit":"C4D1","visitnum":"6.0","dtc":"2024-07-23","value":"146.3","unit":"cm"},{"visit":"EOT","visitnum":"8.0","dtc":"2024-10-14","value":"146.4","unit":"cm"}],"PULSE":[{"visit":"SCREENING","visitnum":"1.0","dtc":"2024-04-05","value":"79.9","unit":"beats/min"},{"visit":"C1D1","visitnum":"2.0","dtc":"2024-04-30","value":"78.4","unit":"beats/min"},{"visit":"C1D15","visitnum":"3.0","dtc":"2024-05-13","value":"75.1","unit":"beats/min"},{"visit":"C2D1","visitnum":"4.0","dtc":"2024-05-29","value":"76.0","unit":"beats/min"},{"visit":"C3D1","visitnum":"5.0","dtc":"2024-06-27","value":"74.3","unit":"beats/min"},{"visit":"C4D1","visitnum":"6.0","dtc":"2024-07-23","value":"71.5","unit":"beats/min"},{"visit":"EOT","visitnum":"8.0","dtc":"2024-10-14","value":"78.0","unit":"beats/min"}],"RESP":[{"visit":"SCREENING","visitnum":"1.0","dtc":"2024-04-05","value":"8.6","unit":"breaths/min"},{"visit":"C1D1","visitnum":"2.0","dtc":"2024-04-30","value":"9.8","unit":"breaths/min"},{"visit":"C1D15","visitnum":"3.0","dtc":"2024-05-13","value":"11.0","unit":"breaths/min"},{"visit":"C2D1","visitnum":"4.0","dtc":"2024-05-29","value":"10.2","unit":"breaths/min"},{"visit":"C3D1","visitnum":"5.0","dtc":"2024-06-27","value":"8.0","unit":"breaths/min"},{"visit":"C4D1","visitnum":"6.0","dtc":"2024-07-23","value":"8.0","unit":"breaths/min"},{"visit":"EOT","visitnum":"8.0","dtc":"2024-10-14","value":"8.0","unit":"breaths/min"}],"SYSBP":[{"visit":"SCREENING","visitnum":"1.0","dtc":"2024-04-05","value":"127.8","unit":"mmHg"},{"visit":"C1D1","visitnum":"2.0","dtc":"2024-04-30","value":"126.1","unit":"mmHg"},{"visit":"C1D15","visitnum":"3.0","dtc":"2024-05-13","value":"124.7","unit":"mmHg"},{"visit":"C2D1","visitnum":"4.0","dtc":"2024-05-29","value":"130.6","unit":"mmHg"},{"visit":"C3D1","visitnum":"5.0","dtc":"2024-06-27","value":"127.4","unit":"mmHg"},{"visit":"C4D1","visitnum":"6.0","dtc":"2024-07-23","value":"128.1","unit":"mmHg"},{"visit":"EOT","visitnum":"8.0","dtc":"2024-10-14","value":"126.8","unit":"mmHg"}],"TEMP":[{"visit":"SCREENING","visitnum":"1.0","dtc":"2024-04-05","value":"36.5","unit":"C"},{"visit":"C1D1","visitnum":"2.0","dtc":"2024-04-30","value":"36.5","unit":"C"},{"visit":"C1D15","visitnum":"3.0","dtc":"2024-05-13","value":"36.8","unit":"C"},{"visit":"C2D1","visitnum":"4.0","dtc":"2024-05-29","value":"36.7","unit":"C"},{"visit":"C3D1","visitnum":"5.0","dtc":"2024-06-27","value":"36.6","unit":"C"},{"visit":"C4D1","visitnum":"6.0","dtc":"2024-07-23","value":"36.5","unit":"C"}],"WEIGHT":[{"visit":"SCREENING","visitnum":"1.0","dtc":"2024-04-05","value":"40.0","unit":"kg"},{"visit":"C1D1","visitnum":"2.0","dtc":"2024-04-30","value":"40.0","unit":"kg"},{"visit":"C1D15","visitnum":"3.0","dtc":"2024-05-13","value":"40.0","unit":"kg"},{"visit":"C2D1","visitnum":"4.0","dtc":"2024-05-29","value":"40.0","unit":"kg"},{"visit":"C3D1","visitnum":"5.0","dtc":"2024-06-27","value":"40.0","unit":"kg"},{"visit":"C4D1","visitnum":"6.0","dtc":"2024-07-23","value":"40.0","unit":"kg"},{"visit":"EOT","visitnum":"8.0","dtc":"2024-10-14","value":"40.0","unit":"kg"}]},"results":[{"seq":"1","testcd":"BMI","test":"BMI","cat":null,"orres":"18.9","orresu":"kg/m2","stresc":"18.9","stresn":"18.9","stresu":"kg/m2","stnrlo":null,"stnrhi":null,"nrind":null,"pos":null,"loc":null,"dtc":"2024-04-05","dy":"-25","visit":"SCREENING","visitnum":"1.0","epoch":"SCREENING"},{"seq":"2","testcd":"DIABP","test":"Diastolic Blood Pressure","cat":null,"orres":"70.3","orresu":"mmHg","stresc":"70.3","stresn":"70.3","stresu":"mmHg","stnrlo":null,"stnrhi":null,"nrind":null,"pos":null,"loc":null,"dtc":"2024-04-05","dy":"-25","visit":"SCREENING","visitnum":"1.0","epoch":"SCREENING"},{"seq":"3","testcd":"HEIGHT","test":"Height","cat":null,"orres":"145.3","orresu":"cm","stresc":"145.3","stresn":"145.3","stresu":"cm","stnrlo":null,"stnrhi":null,"nrind":null,"pos":null,"loc":null,"dtc":"2024-04-05","dy":"-25","visit":"SCREENING","visitnum":"1.0","epoch":"SCREENING"},{"seq":"4","testcd":"PULSE","test":"Pulse Rate","cat":null,"orres":"79.9","orresu":"beats/min","stresc":"79.9","stresn":"79.9","stresu":"beats/min","stnrlo":null,"stnrhi":null,"nrind":null,"pos":null,"loc":null,"dtc":"2024-04-05","dy":"-25","visit":"SCREENING","visitnum":"1.0","epoch":"SCREENING"},{"seq":"5","testcd":"RESP","test":"Respiratory Rate","cat":null,"orres":"8.6","orresu":"breaths/min","stresc":"8.6","stresn":"8.6","stresu":"breaths/min","stnrlo":null,"stnrhi":null,"nrind":null,"pos":null,"loc":null,"dtc":"2024-04-05","dy":"-25","visit":"SCREENING","visitnum":"1.0","epoch":"SCREENING"},{"seq":"6","testcd":"SYSBP","test":"Systolic Blood Pressure","cat":null,"orres":"127.8","orresu":"mmHg","stresc":"127.8","stresn":"127.8","stresu":"mmHg","stnrlo":null,"stnrhi":null,"nrind":null,"pos":null,"loc":null,"dtc":"2024-04-05","dy":"-25","visit":"SCREENING","visitnum":"1.0","epoch":"SCREENING"},{"seq":"7","testcd":"TEMP","test":"Temperature","cat":null,"orres":"36.5","orresu":"C","stresc":"36.5","stresn":"36.5","stresu":"C","stnrlo":null,"stnrhi":null,"nrind":null,"pos":null,"loc":null,"dtc":"2024-04-05","dy":"-25","visit":"SCREENING","visitnum":"1.0","epoch":"SCREENING"},{"seq":"8","testcd":"WEIGHT","test":"Weight","cat":null,"orres":"40.0","orresu":"kg","stresc":"40.0","stresn":"40.0","stresu":"kg","stnrlo":null,"stnrhi":null,"nrind":null,"pos":null,"loc":null,"dtc":"2024-04-05","dy":"-25","visit":"SCREENING","visitnum":"1.0","epoch":"SCREENING"},{"seq":"9","testcd":"DIABP","test":"Diastolic Blood Pressure","cat":null,"orres":"70.8","orresu":"mmHg","stresc":"70.8","stresn":"70.8","stresu":"mmHg","stnrlo":null,"stnrhi":null,"nrind":null,"pos":null,"loc":null,"dtc":"2024-04-30","dy":"1","visit":"C1D1","visitnum":"2.0","epoch":"TREATMENT"},{"seq":"10","testcd":"HEIGHT","test":"Height","cat":null,"orres":null,"orresu":null,"stresc":null,"stresn":null,"stresu":null,"stnrlo":null,"stnrhi":null,"nrind":null,"pos":null,"loc":null,"dtc":"2024-04-30","dy":"1","visit":"C1D1","visitnum":"2.0","epoch":"TREATMENT"},{"seq":"11","testcd":"PULSE","test":"Pulse Rate","cat":null,"orres":"78.4","orresu":"beats/min","stresc":"78.4","stresn":"78.4","stresu":"beats/min","stnrlo":null,"stnrhi":null,"nrind":null,"pos":null,"loc":null,"dtc":"2024-04-30","dy":"1","visit":"C1D1","visitnum":"2.0","epoch":"TREATMENT"},{"seq":"12","testcd":"RESP","test":"Respiratory Rate","cat":null,"orres":"9.8","orresu":"breaths/min","stresc":"9.8","stresn":"9.8","stresu":"breaths/min","stnrlo":null,"stnrhi":null,"nrind":null,"pos":null,"loc":null,"dtc":"2024-04-30","dy":"1","visit":"C1D1","visitnum":"2.0","epoch":"TREATMENT"},{"seq":"13","testcd":"SYSBP","test":"Systolic Blood Pressure","cat":null,"orres":"126.1","orresu":"mmHg","stresc":"126.1","stresn":"126.1","stresu":"mmHg","stnrlo":null,"stnrhi":null,"nrind":null,"pos":null,"loc":null,"dtc":"2024-04-30","dy":"1","visit":"C1D1","visitnum":"2.0","epoch":"TREATMENT"},{"seq":"14","testcd":"TEMP","test":"Temperature","cat":null,"orres":"36.5","orresu":"C","stresc":"36.5","stresn":"36.5","stresu":"C","stnrlo":null,"stnrhi":null,"nrind":null,"pos":null,"loc":null,"dtc":"2024-04-30","dy":"1","visit":"C1D1","visitnum":"2.0","epoch":"TREATMENT"},{"seq":"15","testcd":"WEIGHT","test":"Weight","cat":null,"orres":"40.0","orresu":"kg","stresc":"40.0","stresn":"40.0","stresu":"kg","stnrlo":null,"stnrhi":null,"nrind":null,"pos":null,"loc":null,"dtc":"2024-04-30","dy":"1","visit":"C1D1","visitnum":"2.0","epoch":"TREATMENT"},{"seq":"16","testcd":"BMI","test":"BMI","cat":null,"orres":"19.0","orresu":"kg/m2","stresc":"19.0","stresn":"19.0","stresu":"kg/m2","stnrlo":null,"stnrhi":null,"nrind":null,"pos":null,"loc":null,"dtc":"2024-05-13","dy":"14","visit":"C1D15","visitnum":"3.0","epoch":"TREATMENT"},{"seq":"17","testcd":"DIABP","test":"Diastolic Blood Pressure","cat":null,"orres":"70.2","orresu":"mmHg","stresc":"70.2","stresn":"70.2","stresu":"mmHg","stnrlo":null,"stnrhi":null,"nrind":null,"pos":null,"loc":null,"dtc":"2024-05-13","dy":"14","visit":"C1D15","visitnum":"3.0","epoch":"TREATMENT"},{"seq":"18","testcd":"HEIGHT","test":"Height","cat":null,"orres":"145.0","orresu":"cm","stresc":"145.0","stresn":"145.0","stresu":"cm","stnrlo":null,"stnrhi":null,"nrind":null,"pos":null,"loc":null,"dtc":"2024-05-13","dy":"14","visit":"C1D15","visitnum":"3.0","epoch":"TREATMENT"},{"seq":"19","testcd":"PULSE","test":"Pulse Rate","cat":null,"orres":"75.1","orresu":"beats/min","stresc":"75.1","stresn":"75.1","stresu":"beats/min","stnrlo":null,"stnrhi":null,"nrind":null,"pos":null,"loc":null,"dtc":"2024-05-13","dy":"14","visit":"C1D15","visitnum":"3.0","epoch":"TREATMENT"},{"seq":"20","testcd":"RESP","test":"Respiratory Rate","cat":null,"orres":"11.0","orresu":"breaths/min","stresc":"11.0","stresn":"11.0","stresu":"breaths/min","stnrlo":null,"stnrhi":null,"nrind":null,"pos":null,"loc":null,"dtc":"2024-05-13","dy":"14","visit":"C1D15","visitnum":"3.0","epoch":"TREATMENT"},{"seq":"21","testcd":"SYSBP","test":"Systolic Blood Pressure","cat":null,"orres":"124.7","orresu":"mmHg","stresc":"124.7","stresn":"124.7","stresu":"mmHg","stnrlo":null,"stnrhi":null,"nrind":null,"pos":null,"loc":null,"dtc":"2024-05-13","dy":"14","visit":"C1D15","visitnum":"3.0","epoch":"TREATMENT"},{"seq":"22","testcd":"TEMP","test":"Temperature","cat":null,"orres":"36.8","orresu":"C","stresc":"36.8","stresn":"36.8","stresu":"C","stnrlo":null,"stnrhi":null,"nrind":null,"pos":null,"loc":null,"dtc":"2024-05-13","dy":"14","visit":"C1D15","visitnum":"3.0","epoch":"TREATMENT"},{"seq":"23","testcd":"WEIGHT","test":"Weight","cat":null,"orres":"40.0","orresu":"kg","stresc":"40.0","stresn":"40.0","stresu":"kg","stnrlo":null,"stnrhi":null,"nrind":null,"pos":null,"loc":null,"dtc":"2024-05-13","dy":"14","visit":"C1D15","visitnum":"3.0","epoch":"TREATMENT"},{"seq":"24","testcd":"BMI","test":"BMI","cat":null,"orres":"19.0","orresu":"kg/m2","stresc":"19.0","stresn":"19.0","stresu":"kg/m2","stnrlo":null,"stnrhi":null,"nrind":null,"pos":null,"loc":null,"dtc":"2024-05-29","dy":"30","visit":"C2D1","visitnum":"4.0","epoch":"TREATMENT"},{"seq":"25","testcd":"DIABP","test":"Diastolic Blood Pressure","cat":null,"orres":"73.2","orresu":"mmHg","stresc":"73.2","stresn":"73.2","stresu":"mmHg","stnrlo":null,"stnrhi":null,"nrind":null,"pos":null,"loc":null,"dtc":"2024-05-29","dy":"30","visit":"C2D1","visitnum":"4.0","epoch":"TREATMENT"},{"seq":"26","testcd":"HEIGHT","test":"Height","cat":null,"orres":"145.1","orresu":"cm","stresc":"145.1","stresn":"145.1","stresu":"cm","stnrlo":null,"stnrhi":null,"nrind":null,"pos":null,"loc":null,"dtc":"2024-05-29","dy":"30","visit":"C2D1","visitnum":"4.0","epoch":"TREATMENT"},{"seq":"27","testcd":"PULSE","test":"Pulse Rate","cat":null,"orres":"76.0","orresu":"beats/min","stresc":"76.0","stresn":"76.0","stresu":"beats/min","stnrlo":null,"stnrhi":null,"nrind":null,"pos":null,"loc":null,"dtc":"2024-05-29","dy":"30","visit":"C2D1","visitnum":"4.0","epoch":"TREATMENT"},{"seq":"28","testcd":"RESP","test":"Respiratory Rate","cat":null,"orres":"10.2","orresu":"breaths/min","stresc":"10.2","stresn":"10.2","stresu":"breaths/min","stnrlo":null,"stnrhi":null,"nrind":null,"pos":null,"loc":null,"dtc":"2024-05-29","dy":"30","visit":"C2D1","visitnum":"4.0","epoch":"TREATMENT"},{"seq":"29","testcd":"SYSBP","test":"Systolic Blood Pressure","cat":null,"orres":"130.6","orresu":"mmHg","stresc":"130.6","stresn":"130.6","stresu":"mmHg","stnrlo":null,"stnrhi":null,"nrind":null,"pos":null,"loc":null,"dtc":"2024-05-29","dy":"30","visit":"C2D1","visitnum":"4.0","epoch":"TREATMENT"},{"seq":"30","testcd":"TEMP","test":"Temperature","cat":null,"orres":"36.7","orresu":"C","stresc":"36.7","stresn":"36.7","stresu":"C","stnrlo":null,"stnrhi":null,"nrind":null,"pos":null,"loc":null,"dtc":"2024-05-29","dy":"30","visit":"C2D1","visitnum":"4.0","epoch":"TREATMENT"},{"seq":"31","testcd":"WEIGHT","test":"Weight","cat":null,"orres":"40.0","orresu":"kg","stresc":"40.0","stresn":"40.0","stresu":"kg","stnrlo":null,"stnrhi":null,"nrind":null,"pos":null,"loc":null,"dtc":"2024-05-29","dy":"30","visit":"C2D1","visitnum":"4.0","epoch":"TREATMENT"},{"seq":"32","testcd":"BMI","test":"BMI","cat":null,"orres":"18.9","orresu":"kg/m2","stresc":"18.9","stresn":"18.9","stresu":"kg/m2","stnrlo":null,"stnrhi":null,"nrind":null,"pos":null,"loc":null,"dtc":"2024-06-27","dy":"59","visit":"C3D1","visitnum":"5.0","epoch":"TREATMENT"},{"seq":"33","testcd":"DIABP","test":"Diastolic Blood Pressure","cat":null,"orres":"71.7","orresu":"mmHg","stresc":"71.7","stresn":"71.7","stresu":"mmHg","stnrlo":null,"stnrhi":null,"nrind":null,"pos":null,"loc":null,"dtc":"2024-06-27","dy":"59","visit":"C3D1","visitnum":"5.0","epoch":"TREATMENT"},{"seq":"34","testcd":"HEIGHT","test":"Height","cat":null,"orres":"145.4","orresu":"cm","stresc":"145.4","stresn":"145.4","stresu":"cm","stnrlo":null,"stnrhi":null,"nrind":null,"pos":null,"loc":null,"dtc":"2024-06-27","dy":"59","visit":"C3D1","visitnum":"5.0","epoch":"TREATMENT"},{"seq":"35","testcd":"PULSE","test":"Pulse Rate","cat":null,"orres":"74.3","orresu":"beats/min","stresc":"74.3","stresn":"74.3","stresu":"beats/min","stnrlo":null,"stnrhi":null,"nrind":null,"pos":null,"loc":null,"dtc":"2024-06-27","dy":"59","visit":"C3D1","visitnum":"5.0","epoch":"TREATMENT"},{"seq":"36","testcd":"RESP","test":"Respiratory Rate","cat":null,"orres":"8.0","orresu":"breaths/min","stresc":"8.0","stresn":"8.0","stresu":"breaths/min","stnrlo":null,"stnrhi":null,"nrind":null,"pos":null,"loc":null,"dtc":"2024-06-27","dy":"59","visit":"C3D1","visitnum":"5.0","epoch":"TREATMENT"},{"seq":"37","testcd":"SYSBP","test":"Systolic Blood Pressure","cat":null,"orres":"127.4","orresu":"mmHg","stresc":"127.4","stresn":"127.4","stresu":"mmHg","stnrlo":null,"stnrhi":null,"nrind":null,"pos":null,"loc":null,"dtc":"2024-06-27","dy":"59","visit":"C3D1","visitnum":"5.0","epoch":"TREATMENT"},{"seq":"38","testcd":"TEMP","test":"Temperature","cat":null,"orres":"36.6","orresu":"C","stresc":"36.6","stresn":"36.6","stresu":"C","stnrlo":null,"stnrhi":null,"nrind":null,"pos":null,"loc":null,"dtc":"2024-06-27","dy":"59","visit":"C3D1","visitnum":"5.0","epoch":"TREATMENT"},{"seq":"39","testcd":"WEIGHT","test":"Weight","cat":null,"orres":"40.0","orresu":"kg","stresc":"40.0","stresn":"40.0","stresu":"kg","stnrlo":null,"stnrhi":null,"nrind":null,"pos":null,"loc":null,"dtc":"2024-06-27","dy":"59","visit":"C3D1","visitnum":"5.0","epoch":"TREATMENT"},{"seq":"40","testcd":"BMI","test":"BMI","cat":null,"orres":"18.7","orresu":"kg/m2","stresc":"18.7","stresn":"18.7","stresu":"kg/m2","stnrlo":null,"stnrhi":null,"nrind":null,"pos":null,"loc":null,"dtc":"2024-07-23","dy":"85","visit":"C4D1","visitnum":"6.0","epoch":"TREATMENT"},{"seq":"41","testcd":"DIABP","test":"Diastolic Blood Pressure","cat":null,"orres":"71.8","orresu":"mmHg","stresc":"71.8","stresn":"71.8","stresu":"mmHg","stnrlo":null,"stnrhi":null,"nrind":null,"pos":null,"loc":null,"dtc":"2024-07-23","dy":"85","visit":"C4D1","visitnum":"6.0","epoch":"TREATMENT"},{"seq":"42","testcd":"HEIGHT","test":"Height","cat":null,"orres":"146.3","orresu":"cm","stresc":"146.3","stresn":"146.3","stresu":"cm","stnrlo":null,"stnrhi":null,"nrind":null,"pos":null,"loc":null,"dtc":"2024-07-23","dy":"85","visit":"C4D1","visitnum":"6.0","epoch":"TREATMENT"},{"seq":"43","testcd":"PULSE","test":"Pulse Rate","cat":null,"orres":"71.5","orresu":"beats/min","stresc":"71.5","stresn":"71.5","stresu":"beats/min","stnrlo":null,"stnrhi":null,"nrind":null,"pos":null,"loc":null,"dtc":"2024-07-23","dy":"85","visit":"C4D1","visitnum":"6.0","epoch":"TREATMENT"},{"seq":"44","testcd":"RESP","test":"Respiratory Rate","cat":null,"orres":"8.0","orresu":"breaths/min","stresc":"8.0","stresn":"8.0","stresu":"breaths/min","stnrlo":null,"stnrhi":null,"nrind":null,"pos":null,"loc":null,"dtc":"2024-07-23","dy":"85","visit":"C4D1","visitnum":"6.0","epoch":"TREATMENT"},{"seq":"45","testcd":"SYSBP","test":"Systolic Blood Pressure","cat":null,"orres":"128.1","orresu":"mmHg","stresc":"128.1","stresn":"128.1","stresu":"mmHg","stnrlo":null,"stnrhi":null,"nrind":null,"pos":null,"loc":null,"dtc":"2024-07-23","dy":"85","visit":"C4D1","visitnum":"6.0","epoch":"TREATMENT"},{"seq":"46","testcd":"TEMP","test":"Temperature","cat":null,"orres":"36.5","orresu":"C","stresc":"36.5","stresn":"36.5","stresu":"C","stnrlo":null,"stnrhi":null,"nrind":null,"pos":null,"loc":null,"dtc":"2024-07-23","dy":"85","visit":"C4D1","visitnum":"6.0","epoch":"TREATMENT"},{"seq":"47","testcd":"WEIGHT","test":"Weight","cat":null,"orres":"40.0","orresu":"kg","stresc":"40.0","stresn":"40.0","stresu":"kg","stnrlo":null,"stnrhi":null,"nrind":null,"pos":null,"loc":null,"dtc":"2024-07-23","dy":"85","visit":"C4D1","visitnum":"6.0","epoch":"TREATMENT"},{"seq":"48","testcd":"BMI","test":"BMI","cat":null,"orres":"18.7","orresu":"kg/m2","stresc":"18.7","stresn":"18.7","stresu":"kg/m2","stnrlo":null,"stnrhi":null,"nrind":null,"pos":null,"loc":null,"dtc":"2024-10-14","dy":"168","visit":"EOT","visitnum":"8.0","epoch":"TREATMENT"},{"seq":"49","testcd":"DIABP","test":"Diastolic Blood Pressure","cat":null,"orres":"70.3","orresu":"mmHg","stresc":"70.3","stresn":"70.3","stresu":"mmHg","stnrlo":null,"stnrhi":null,"nrind":null,"pos":null,"loc":null,"dtc":"2024-10-14","dy":"168","visit":"EOT","visitnum":"8.0","epoch":"TREATMENT"},{"seq":"50","testcd":"HEIGHT","test":"Height","cat":null,"orres":"146.4","orresu":"cm","stresc":"146.4","stresn":"146.4","stresu":"cm","stnrlo":null,"stnrhi":null,"nrind":null,"pos":null,"loc":null,"dtc":"2024-10-14","dy":"168","visit":"EOT","visitnum":"8.0","epoch":"TREATMENT"},{"seq":"51","testcd":"PULSE","test":"Pulse Rate","cat":null,"orres":"78.0","orresu":"beats/min","stresc":"78.0","stresn":"78.0","stresu":"beats/min","stnrlo":null,"stnrhi":null,"nrind":null,"pos":null,"loc":null,"dtc":"2024-10-14","dy":"168","visit":"EOT","visitnum":"8.0","epoch":"TREATMENT"},{"seq":"52","testcd":"RESP","test":"Respiratory Rate","cat":null,"orres":"8.0","orresu":"breaths/min","stresc":"8.0","stresn":"8.0","stresu":"breaths/min","stnrlo":null,"stnrhi":null,"nrind":null,"pos":null,"loc":null,"dtc":"2024-10-14","dy":"168","visit":"EOT","visitnum":"8.0","epoch":"TREATMENT"},{"seq":"53","testcd":"SYSBP","test":"Systolic Blood Pressure","cat":null,"orres":"126.8","orresu":"mmHg","stresc":"126.8","stresn":"126.8","stresu":"mmHg","stnrlo":null,"stnrhi":null,"nrind":null,"pos":null,"loc":null,"dtc":"2024-10-14","dy":"168","visit":"EOT","visitnum":"8.0","epoch":"TREATMENT"},{"seq":"54","testcd":"TEMP","test":"Temperature","cat":null,"orres":null,"orresu":null,"stresc":null,"stresn":null,"stresu":null,"stnrlo":null,"stnrhi":null,"nrind":null,"pos":null,"loc":null,"dtc":"2024-10-14","dy":"168","visit":"EOT","visitnum":"8.0","epoch":"TREATMENT"},{"seq":"55","testcd":"WEIGHT","test":"Weight","cat":null,"orres":"40.0","orresu":"kg","stresc":"40.0","stresn":"40.0","stresu":"kg","stnrlo":null,"stnrhi":null,"nrind":null,"pos":null,"loc":null,"dtc":"2024-10-14","dy":"168","visit":"EOT","visitnum":"8.0","epoch":"TREATMENT"}]},"section_10_questionnaires_and_scores":{"questionnaires":[],"findings_about":[{"seq":"1","testcd":"LDIAM","test":"Longest Diameter","cat":"TUMOR ASSESSMENT","orres":"14.1","stresc":"14.1","stresn":"14.1","dtc":"2024-04-01","visit":"SCREENING"},{"seq":"2","testcd":"SAXIS","test":"Short Axis","cat":"TUMOR ASSESSMENT","orres":"3","stresc":"3","stresn":"3.0","dtc":"2024-04-01","visit":"SCREENING"},{"seq":"3","testcd":"LDIAM","test":"Longest Diameter","cat":"TUMOR ASSESSMENT","orres":"47.0","stresc":"47.0","stresn":"47.0","dtc":"2024-04-01","visit":"SCREENING"},{"seq":"4","testcd":"SAXIS","test":"Short Axis","cat":"TUMOR ASSESSMENT","orres":"7.7","stresc":"7.7","stresn":"7.7","dtc":"2024-04-01","visit":"SCREENING"},{"seq":"5","testcd":"LDIAM","test":"Longest Diameter","cat":"TUMOR ASSESSMENT","orres":"42.5","stresc":"42.5","stresn":"42.5","dtc":"2024-04-01","visit":"SCREENING"},{"seq":"6","testcd":"SAXIS","test":"Short Axis","cat":"TUMOR ASSESSMENT","orres":"13.7","stresc":"13.7","stresn":"13.7","dtc":"2024-04-01","visit":"SCREENING"},{"seq":"7","testcd":"LDIAM","test":"Longest Diameter","cat":"TUMOR ASSESSMENT","orres":"14.7","stresc":"14.7","stresn":"14.7","dtc":"2024-04-30","visit":"C1D1"},{"seq":"8","testcd":"SAXIS","test":"Short Axis","cat":"TUMOR ASSESSMENT","orres":"3","stresc":"3","stresn":"3.0","dtc":"2024-04-30","visit":"C1D1"},{"seq":"9","testcd":"LDIAM","test":"Longest Diameter","cat":"TUMOR ASSESSMENT","orres":"46.3","stresc":"46.3","stresn":"46.3","dtc":"2024-04-30","visit":"C1D1"},{"seq":"10","testcd":"SAXIS","test":"Short Axis","cat":"TUMOR ASSESSMENT","orres":"7.5","stresc":"7.5","stresn":"7.5","dtc":"2024-04-30","visit":"C1D1"},{"seq":"11","testcd":"LDIAM","test":"Longest Diameter","cat":"TUMOR ASSESSMENT","orres":"39.7","stresc":"39.7","stresn":"39.7","dtc":"2024-04-30","visit":"C1D1"},{"seq":"12","testcd":"SAXIS","test":"Short Axis","cat":"TUMOR ASSESSMENT","orres":"12.7","stresc":"12.7","stresn":"12.7","dtc":"2024-04-30","visit":"C1D1"},{"seq":"13","testcd":"LDIAM","test":"Longest Diameter","cat":"TUMOR ASSESSMENT","orres":"12.6","stresc":"12.6","stresn":"12.6","dtc":"2024-05-14","visit":"C1D15"},{"seq":"14","testcd":"SAXIS","test":"Short Axis","cat":"TUMOR ASSESSMENT","orres":"3.4","stresc":"3.4","stresn":"3.4","dtc":"2024-05-14","visit":"C1D15"},{"seq":"15","testcd":"LDIAM","test":"Longest Diameter","cat":"TUMOR ASSESSMENT","orres":"44.1","stresc":"44.1","stresn":"44.1","dtc":"2024-05-14","visit":"C1D15"},{"seq":"16","testcd":"SAXIS","test":"Short Axis","cat":"TUMOR ASSESSMENT","orres":"8.1","stresc":"8.1","stresn":"8.1","dtc":"2024-05-14","visit":"C1D15"},{"seq":"17","testcd":"LDIAM","test":"Longest Diameter","cat":"TUMOR ASSESSMENT","orres":"41.6","stresc":"41.6","stresn":"41.6","dtc":"2024-05-14","visit":"C1D15"},{"seq":"18","testcd":"SAXIS","test":"Short Axis","cat":"TUMOR ASSESSMENT","orres":"13.1","stresc":"13.1","stresn":"13.1","dtc":"2024-05-14","visit":"C1D15"},{"seq":"19","testcd":"LDIAM","test":"Longest Diameter","cat":"TUMOR ASSESSMENT","orres":"12.5","stresc":"12.5","stresn":"12.5","dtc":"2024-05-28","visit":"C2D1"},{"seq":"20","testcd":"SAXIS","test":"Short Axis","cat":"TUMOR ASSESSMENT","orres":"3.4","stresc":"3.4","stresn":"3.4","dtc":"2024-05-28","visit":"C2D1"},{"seq":"21","testcd":"LDIAM","test":"Longest Diameter","cat":"TUMOR ASSESSMENT","orres":"46.7","stresc":"46.7","stresn":"46.7","dtc":"2024-05-28","visit":"C2D1"},{"seq":"22","testcd":"SAXIS","test":"Short Axis","cat":"TUMOR ASSESSMENT","orres":"8.6","stresc":"8.6","stresn":"8.6","dtc":"2024-05-28","visit":"C2D1"},{"seq":"23","testcd":"LDIAM","test":"Longest Diameter","cat":"TUMOR ASSESSMENT","orres":"41.3","stresc":"41.3","stresn":"41.3","dtc":"2024-05-28","visit":"C2D1"},{"seq":"24","testcd":"SAXIS","test":"Short Axis","cat":"TUMOR ASSESSMENT","orres":"13.8","stresc":"13.8","stresn":"13.8","dtc":"2024-05-28","visit":"C2D1"},{"seq":"25","testcd":"LDIAM","test":"Longest Diameter","cat":"TUMOR ASSESSMENT","orres":"13.1","stresc":"13.1","stresn":"13.1","dtc":"2024-06-25","visit":"C3D1"},{"seq":"26","testcd":"SAXIS","test":"Short Axis","cat":"TUMOR ASSESSMENT","orres":"3.8","stresc":"3.8","stresn":"3.8","dtc":"2024-06-25","visit":"C3D1"},{"seq":"27","testcd":"LDIAM","test":"Longest Diameter","cat":"TUMOR ASSESSMENT","orres":"43.8","stresc":"43.8","stresn":"43.8","dtc":"2024-06-25","visit":"C3D1"},{"seq":"28","testcd":"SAXIS","test":"Short Axis","cat":"TUMOR ASSESSMENT","orres":"8.1","stresc":"8.1","stresn":"8.1","dtc":"2024-06-25","visit":"C3D1"},{"seq":"29","testcd":"LDIAM","test":"Longest Diameter","cat":"TUMOR ASSESSMENT","orres":"40.4","stresc":"40.4","stresn":"40.4","dtc":"2024-06-25","visit":"C3D1"},{"seq":"30","testcd":"SAXIS","test":"Short Axis","cat":"TUMOR ASSESSMENT","orres":"13.5","stresc":"13.5","stresn":"13.5","dtc":"2024-06-25","visit":"C3D1"},{"seq":"31","testcd":"LDIAM","test":"Longest Diameter","cat":"TUMOR ASSESSMENT","orres":"13.9","stresc":"13.9","stresn":"13.9","dtc":"2024-07-23","visit":"C4D1"},{"seq":"32","testcd":"SAXIS","test":"Short Axis","cat":"TUMOR ASSESSMENT","orres":"3.4","stresc":"3.4","stresn":"3.4","dtc":"2024-07-23","visit":"C4D1"},{"seq":"33","testcd":"LDIAM","test":"Longest Diameter","cat":"TUMOR ASSESSMENT","orres":"44.8","stresc":"44.8","stresn":"44.8","dtc":"2024-07-23","visit":"C4D1"},{"seq":"34","testcd":"SAXIS","test":"Short Axis","cat":"TUMOR ASSESSMENT","orres":"6.6","stresc":"6.6","stresn":"6.6","dtc":"2024-07-23","visit":"C4D1"},{"seq":"35","testcd":"LDIAM","test":"Longest Diameter","cat":"TUMOR ASSESSMENT","orres":"42.4","stresc":"42.4","stresn":"42.4","dtc":"2024-07-23","visit":"C4D1"},{"seq":"36","testcd":"SAXIS","test":"Short Axis","cat":"TUMOR ASSESSMENT","orres":"12.9","stresc":"12.9","stresn":"12.9","dtc":"2024-07-23","visit":"C4D1"},{"seq":"37","testcd":"LDIAM","test":"Longest Diameter","cat":"TUMOR ASSESSMENT","orres":"13.3","stresc":"13.3","stresn":"13.3","dtc":"2024-09-17","visit":"C6D1"},{"seq":"38","testcd":"SAXIS","test":"Short Axis","cat":"TUMOR ASSESSMENT","orres":"3.1","stresc":"3.1","stresn":"3.1","dtc":"2024-09-17","visit":"C6D1"},{"seq":"39","testcd":"LDIAM","test":"Longest Diameter","cat":"TUMOR ASSESSMENT","orres":"45.5","stresc":"45.5","stresn":"45.5","dtc":"2024-09-17","visit":"C6D1"},{"seq":"40","testcd":"SAXIS","test":"Short Axis","cat":"TUMOR ASSESSMENT","orres":"7.4","stresc":"7.4","stresn":"7.4","dtc":"2024-09-17","visit":"C6D1"},{"seq":"41","testcd":"LDIAM","test":"Longest Diameter","cat":"TUMOR ASSESSMENT","orres":"42.2","stresc":"42.2","stresn":"42.2","dtc":"2024-09-17","visit":"C6D1"},{"seq":"42","testcd":"SAXIS","test":"Short Axis","cat":"TUMOR ASSESSMENT","orres":"13.2","stresc":"13.2","stresn":"13.2","dtc":"2024-09-17","visit":"C6D1"},{"seq":"43","testcd":"LDIAM","test":"Longest Diameter","cat":"TUMOR ASSESSMENT","orres":"15.2","stresc":"15.2","stresn":"15.2","dtc":"2024-10-15","visit":"EOT"},{"seq":"44","testcd":"SAXIS","test":"Short Axis","cat":"TUMOR ASSESSMENT","orres":"3","stresc":"3","stresn":"3.0","dtc":"2024-10-15","visit":"EOT"},{"seq":"45","testcd":"LDIAM","test":"Longest Diameter","cat":"TUMOR ASSESSMENT","orres":"45.6","stresc":"45.6","stresn":"45.6","dtc":"2024-10-15","visit":"EOT"},{"seq":"46","testcd":"SAXIS","test":"Short Axis","cat":"TUMOR ASSESSMENT","orres":"7.6","stresc":"7.6","stresn":"7.6","dtc":"2024-10-15","visit":"EOT"},{"seq":"47","testcd":"LDIAM","test":"Longest Diameter","cat":"TUMOR ASSESSMENT","orres":"41.2","stresc":"41.2","stresn":"41.2","dtc":"2024-10-15","visit":"EOT"},{"seq":"48","testcd":"SAXIS","test":"Short Axis","cat":"TUMOR ASSESSMENT","orres":"13.3","stresc":"13.3","stresn":"13.3","dtc":"2024-10-15","visit":"EOT"}]},"section_11_protocol_deviations":{"deviations":[{"seq":"1","term":"Visit C1D15 occurred 1 days early (Day 14 vs planned Day 15)","decod":"VISIT OCCURRED OUTSIDE VISIT WINDOW","cat":"MINOR","scat":"VISIT WINDOW","start_dtc":"2024-05-13","end_dtc":null,"visit":null},{"seq":"2","term":"Missed TEPOTINIB dose on 2024-06-15","decod":"MISSED DOSE","cat":"MINOR","scat":"DOSING","start_dtc":"2024-06-15","end_dtc":null,"visit":null},{"seq":"3","term":"Missed TEPOTINIB dose on 2024-06-22","decod":"MISSED DOSE","cat":"MINOR","scat":"DOSING","start_dtc":"2024-06-22","end_dtc":null,"visit":null},{"seq":"4","term":"Missed TEPOTINIB dose on 2024-07-08","decod":"MISSED DOSE","cat":"MINOR","scat":"DOSING","start_dtc":"2024-07-08","end_dtc":null,"visit":null},{"seq":"5","term":"Missed TEPOTINIB dose on 2024-07-23","decod":"MISSED DOSE","cat":"MINOR","scat":"DOSING","start_dtc":"2024-07-23","end_dtc":null,"visit":null}],"total":5},"section_12_disposition":{"completion_status":"COMPLETED","disposition_records":[{"seq":"1","term":"INFORMED CONSENT OBTAINED","decod":"INFORMED CONSENT OBTAINED","cat":"PROTOCOL MILESTONE","scat":null,"dtc":"2024-04-01","dy":null,"visit":null,"epoch":"SCREENING"},{"seq":"2","term":"RANDOMIZED","decod":"RANDOMIZED","cat":"PROTOCOL MILESTONE","scat":null,"dtc":"2024-04-30","dy":null,"visit":null,"epoch":"TREATMENT"},{"seq":"3","term":"COMPLETED","decod":"COMPLETED","cat":"DISPOSITION EVENT","scat":null,"dtc":"2024-12-11","dy":null,"visit":null,"epoch":"FOLLOW-UP"}],"death":null},"section_13_hospitalizations":{"items":[{"seq":"1","term":"Oedema peripheral","decod":"Oedema peripheral","cat":"HOSPITALIZATION","start_dtc":"2024-05-15","end_dtc":"2024-06-03","epoch":"TREATMENT"}],"total":1},"section_14_substance_use":{"items":[{"seq":"1","substance":"ALCOHOL","decod":"ALCOHOL","cat":"ALCOHOL","scat":null,"usage":"N","dose":null,"dosu":null,"freq":null,"start_dtc":null,"end_dtc":null},{"seq":"2","substance":"COFFEE","decod":"COFFEE","cat":"CAFFEINE","scat":null,"usage":"Y","dose":"5.0","dosu":"CUPS/DAY","freq":"QD","start_dtc":"2011-04-05","end_dtc":null},{"seq":"3","substance":"CIGARETTES","decod":"CIGARETTES","cat":"TOBACCO","scat":"CIGARETTES","usage":"N","dose":null,"dosu":null,"freq":null,"start_dtc":null,"end_dtc":null}],"total":3},"section_15_subject_status":{"items":[{"seq":"1","testcd":"SURVSTAT","test":"Survival Status","orres":"ALIVE","stresc":"ALIVE","dtc":"2024-11-14","visit":"FOLLOW-UP","epoch":"FOLLOW-UP"}],"total":1}}