{"subject_id":"VISION-NSCLC-SITE001-0214","study_id":"VISION-NSCLC","generated_at":"2026-06-09T04:13:58.860136+00:00","sdtmig_version":"3.4","flags":{"has_serious_ae":false,"has_fatal_ae":false,"has_protocol_deviation":true,"n_protocol_deviations":1,"n_adverse_events":1,"n_concomitant_meds":4,"max_ae_severity":"MILD","screen_failure":false,"discontinued_early":true,"discontinuation_reason":"WITHDRAWAL BY SUBJECT","death":false,"exposure_days":16},"timeline":[{"dtc":"2016-02-13","dy":"-2942","event":"CM START: METFORMIN","domain":"CM","category":"concomitant_med"},{"dtc":"2016-02-13","dy":"-2942","event":"CM START: SALBUTAMOL","domain":"CM","category":"concomitant_med"},{"dtc":"2021-02-11","dy":"-1117","event":"CM START: LISINOPRIL","domain":"CM","category":"concomitant_med"},{"dtc":"2024-02-11","dy":"-22","event":"INFORMED CONSENT OBTAINED","domain":"DS","category":"milestone"},{"dtc":"2024-02-24","dy":"-9","event":"VISIT: SCREENING","domain":"SV","category":"visit"},{"dtc":"2024-03-04","dy":"1","event":"RANDOMIZED","domain":"DS","category":"milestone"},{"dtc":"2024-03-04","dy":"1","event":"FIRST DOSE: TEPOTINIB","domain":"EX","category":"exposure"},{"dtc":"2024-03-04","dy":"1","event":"VISIT: C1D1","domain":"SV","category":"visit"},{"dtc":"2024-03-11","dy":"8","event":"AE: Nausea (MILD)","domain":"AE","category":"adverse_event"},{"dtc":"2024-03-18","dy":"15","event":"DEVIATION: VISIT OCCURRED OUTSIDE VISIT WINDOW","domain":"DV","category":"deviation"},{"dtc":"2024-03-18","dy":"15","event":"VISIT: C1D15","domain":"SV","category":"visit"},{"dtc":"2024-03-28","dy":"25","event":"CM START: ASPIRIN","domain":"CM","category":"concomitant_med"},{"dtc":"2024-03-30","dy":"27","event":"WITHDRAWAL BY SUBJECT","domain":"DS","category":"milestone"}],"section_1_demographics":{"usubjid":"VISION-NSCLC-SITE001-0214","subjid":"0214","siteid":"SITE001","age":"41","ageu":"YEARS","sex":"M","race":"BLACK OR AFRICAN AMERICAN","ethnicity":"NOT HISPANIC OR LATINO","country":"USA","arm":"Tepotinib 500mg QD","armcd":"TEP500","actarm":"Tepotinib 500mg QD","actarmcd":"TEP500","randomization_date":null,"informed_consent_date":"2024-02-11","reference_start_date":"2024-03-04","reference_end_date":"2024-03-30","screen_failure":false,"death_flag":null,"death_date":null,"subject_characteristics":[{"testcd":"ALCUSE","test":"Alcohol Use","orres":"HEAVY DRINKER","stresc":"HEAVY DRINKER","visit":null,"dtc":"2024-02-11"},{"testcd":"BMI","test":"Body Mass Index","orres":"26.1","stresc":"26.1","visit":null,"dtc":"2024-02-11"},{"testcd":"DURDIS","test":"Duration of Disease","orres":"121 months","stresc":"121","visit":null,"dtc":"2024-02-11"},{"testcd":"TOBUSE","test":"Tobacco Use","orres":"NEVER SMOKED","stresc":"NEVER SMOKED","visit":null,"dtc":"2024-02-11"}]},"section_2_medical_history":{"items":[{"seq":"1","term":"ASTHMA","decod":"ASTHMA","cat":"RESPIRATORY","scat":null,"presp":null,"occur":null,"status":null,"onset_dtc":"2016-02","end_dtc":null,"visit":null},{"seq":"2","term":"DEPRESSION","decod":"DEPRESSION","cat":"PSYCHIATRIC","scat":null,"presp":null,"occur":null,"status":null,"onset_dtc":"2014-02-13","end_dtc":"2016-02-01","visit":null},{"seq":"3","term":"DIABETES MELLITUS TYPE 2","decod":"DIABETES MELLITUS TYPE 2","cat":"ENDOCRINE","scat":null,"presp":null,"occur":null,"status":null,"onset_dtc":"2016-02-13","end_dtc":null,"visit":null},{"seq":"4","term":"GASTROESOPHAGEAL REFLUX DISEASE","decod":"GASTROESOPHAGEAL REFLUX DISEASE","cat":"GASTROINTESTINAL","scat":null,"presp":null,"occur":null,"status":null,"onset_dtc":"2021-02","end_dtc":"2022-09-17","visit":null},{"seq":"5","term":"HYPERTENSION","decod":"HYPERTENSION","cat":"CARDIOVASCULAR","scat":null,"presp":null,"occur":null,"status":null,"onset_dtc":"2021-02-11","end_dtc":null,"visit":null}]},"section_3_inclusion_exclusion":{"criteria":[]},"section_4_trial_participation":{"visits":[{"visitnum":"1.0","visit":"SCREENING","start_dtc":"2024-02-24","end_dtc":"2024-02-24","updes":null},{"visitnum":"2.0","visit":"C1D1","start_dtc":"2024-03-04","end_dtc":"2024-03-04","updes":null},{"visitnum":"3.0","visit":"C1D15","start_dtc":"2024-03-18","end_dtc":"2024-03-18","updes":null}],"epochs":[{"seq":"1","etcd":"SCRN","element":"Screening","start_dtc":"2024-02-05","end_dtc":"2024-03-04","updes":null},{"seq":"2","etcd":"TRT","element":"Treatment","start_dtc":"2024-03-04","end_dtc":"2024-03-30","updes":null}],"visit_count":3},"section_5_concomitant_medications":{"medications":[{"seq":"1","trt":"METFORMIN","decod":"METFORMIN","cat":"PRIOR","dose":"1000","doseu":null,"dosef":"BID","route":"ORAL","indication":"DIABETES MELLITUS TYPE 2","start_dtc":"2016-02-13","end_dtc":"2024-03-30","ongoing":null,"visit":null},{"seq":"2","trt":"SALBUTAMOL","decod":"SALBUTAMOL","cat":"PRIOR","dose":"100","doseu":null,"dosef":"PRN","route":"RESPIRATORY (INHALATION)","indication":"ASTHMA","start_dtc":"2016-02-13","end_dtc":"2024-03-30","ongoing":null,"visit":null},{"seq":"3","trt":"LISINOPRIL","decod":"LISINOPRIL","cat":"PRIOR","dose":"10","doseu":null,"dosef":"QD","route":"ORAL","indication":"HYPERTENSION","start_dtc":"2021-02-11","end_dtc":"2024-03-30","ongoing":null,"visit":null},{"seq":"4","trt":"ASPIRIN","decod":"ASPIRIN","cat":"CONCOMITANT","dose":null,"doseu":null,"dosef":"QD","route":"ORAL","indication":null,"start_dtc":"2024-03-28","end_dtc":"2024-03-30","ongoing":null,"visit":null}]},"section_6_exposure":{"exposure_as_administered":[{"seq":"1","trt":"TEPOTINIB","dose":"500.0","doseu":null,"dosef":"QD","route":"ORAL","lot":null,"start_dtc":"2024-03-04","end_dtc":"2024-03-20","start_dy":"1","end_dy":"17","epoch":"TREATMENT","visit":null}],"exposure_as_collected":[{"seq":"1","trt":"TEPOTINIB","dose":"500.0","doseu":null,"dosef":"QD","route":"ORAL","start_dtc":"2024-03-04","end_dtc":"2024-03-04","visit":"C1D1"},{"seq":"2","trt":"TEPOTINIB","dose":"500.0","doseu":null,"dosef":"QD","route":"ORAL","start_dtc":"2024-03-05","end_dtc":"2024-03-05","visit":"C1D1"},{"seq":"3","trt":"TEPOTINIB","dose":"500.0","doseu":null,"dosef":"QD","route":"ORAL","start_dtc":"2024-03-06","end_dtc":"2024-03-06","visit":"C1D1"},{"seq":"4","trt":"TEPOTINIB","dose":"500.0","doseu":null,"dosef":"QD","route":"ORAL","start_dtc":"2024-03-07","end_dtc":"2024-03-07","visit":"C1D1"},{"seq":"5","trt":"TEPOTINIB","dose":"500.0","doseu":null,"dosef":"QD","route":"ORAL","start_dtc":"2024-03-08","end_dtc":"2024-03-08","visit":null},{"seq":"6","trt":"TEPOTINIB","dose":"500.0","doseu":null,"dosef":"QD","route":"ORAL","start_dtc":"2024-03-09","end_dtc":"2024-03-09","visit":null},{"seq":"7","trt":"TEPOTINIB","dose":"500.0","doseu":null,"dosef":"QD","route":"ORAL","start_dtc":"2024-03-10","end_dtc":"2024-03-10","visit":null},{"seq":"8","trt":"TEPOTINIB","dose":"500.0","doseu":null,"dosef":"QD","route":"ORAL","start_dtc":"2024-03-11","end_dtc":"2024-03-11","visit":null},{"seq":"9","trt":"TEPOTINIB","dose":"500.0","doseu":null,"dosef":"QD","route":"ORAL","start_dtc":"2024-03-12","end_dtc":"2024-03-12","visit":null},{"seq":"10","trt":"TEPOTINIB","dose":"500.0","doseu":null,"dosef":"QD","route":"ORAL","start_dtc":"2024-03-13","end_dtc":"2024-03-13","visit":null},{"seq":"11","trt":"TEPOTINIB","dose":"500.0","doseu":null,"dosef":"QD","route":"ORAL","start_dtc":"2024-03-14","end_dtc":"2024-03-14","visit":null},{"seq":"12","trt":"TEPOTINIB","dose":"500.0","doseu":null,"dosef":"QD","route":"ORAL","start_dtc":"2024-03-15","end_dtc":"2024-03-15","visit":"C1D15"},{"seq":"13","trt":"TEPOTINIB","dose":"500.0","doseu":null,"dosef":"QD","route":"ORAL","start_dtc":"2024-03-16","end_dtc":"2024-03-16","visit":"C1D15"},{"seq":"14","trt":"TEPOTINIB","dose":"500.0","doseu":null,"dosef":"QD","route":"ORAL","start_dtc":"2024-03-17","end_dtc":"2024-03-17","visit":"C1D15"},{"seq":"15","trt":"TEPOTINIB","dose":"500.0","doseu":null,"dosef":"QD","route":"ORAL","start_dtc":"2024-03-18","end_dtc":"2024-03-18","visit":"C1D15"},{"seq":"16","trt":"TEPOTINIB","dose":"500.0","doseu":null,"dosef":"QD","route":"ORAL","start_dtc":"2024-03-19","end_dtc":"2024-03-19","visit":"C1D15"},{"seq":"17","trt":"TEPOTINIB","dose":"500.0","doseu":null,"dosef":"QD","route":"ORAL","start_dtc":"2024-03-20","end_dtc":"2024-03-20","visit":"C1D15"}]},"section_7_adverse_events":{"summary":{"total_aes":1,"serious_aes":0,"fatal_aes":0,"by_severity":{"MILD":1},"by_soc":{"Gastrointestinal disorders":1}},"events":[{"seq":"1","term":"NAUSEA","decod":"Nausea","llt":"Nausea","hlt":"Nausea and vomiting symptoms","hlgt":"Gastrointestinal signs and symptoms","soc":"Gastrointestinal disorders","bodsys":"Gastrointestinal disorders","severity":"MILD","serious":"N","causality":"NOT RELATED","action_taken":"DOSE NOT CHANGED","outcome":"RECOVERING/RESOLVING","fatal":"N","hospitalization":"N","life_threatening":"N","onset_dtc":"2024-03-11","end_dtc":"2024-03-13","onset_dy":"8","end_dy":"10","duration":null,"epoch":"TREATMENT","visit":null,"supplemental":{}}]},"section_8_laboratory_results":{"summary":{"total_records":21,"abnormal_count":0,"abnormal_pct":0.0},"shift_summary":[{"testcd":"ALT","baseline_value":36.51,"baseline_nrind":"NORMAL","worst_post_baseline_value":36.54,"worst_post_baseline_nrind":"NORMAL","worst_visit":"C1D15"},{"testcd":"AST","baseline_value":16.05,"baseline_nrind":"NORMAL","worst_post_baseline_value":15.31,"worst_post_baseline_nrind":"NORMAL","worst_visit":"C1D1"},{"testcd":"CREAT","baseline_value":85.77,"baseline_nrind":"NORMAL","worst_post_baseline_value":85.2,"worst_post_baseline_nrind":"NORMAL","worst_visit":"C1D1"},{"testcd":"GLUC","baseline_value":5.33,"baseline_nrind":"NORMAL","worst_post_baseline_value":5.47,"worst_post_baseline_nrind":"NORMAL","worst_visit":"C1D15"},{"testcd":"HGB","baseline_value":141.92,"baseline_nrind":"NORMAL","worst_post_baseline_value":141.19,"worst_post_baseline_nrind":"NORMAL","worst_visit":"C1D1"},{"testcd":"PLAT","baseline_value":265.88,"baseline_nrind":"NORMAL","worst_post_baseline_value":271.32,"worst_post_baseline_nrind":"NORMAL","worst_visit":"C1D15"},{"testcd":"WBC","baseline_value":7.03,"baseline_nrind":"NORMAL","worst_post_baseline_value":7.74,"worst_post_baseline_nrind":"NORMAL","worst_visit":"C1D1"}],"results":[{"seq":"1","testcd":"ALT","test":"Alanine Aminotransferase","cat":"CHEMISTRY","orres":"36.51","orresu":"U/L","stresc":"36.51","stresn":"36.51","stresu":"U/L","stnrlo":"7","stnrhi":"56","nrind":"NORMAL","fast":null,"dtc":"2024-02-24","dy":"-9","visit":"SCREENING","visitnum":"1.0","epoch":"SCREENING","spec":null,"method":null},{"seq":"2","testcd":"AST","test":"Aspartate Aminotransferase","cat":"CHEMISTRY","orres":"16.05","orresu":"U/L","stresc":"16.05","stresn":"16.05","stresu":"U/L","stnrlo":"10","stnrhi":"40","nrind":"NORMAL","fast":null,"dtc":"2024-02-24","dy":"-9","visit":"SCREENING","visitnum":"1.0","epoch":"SCREENING","spec":null,"method":null},{"seq":"3","testcd":"CREAT","test":"Creatinine","cat":"CHEMISTRY","orres":"85.77","orresu":"umol/L","stresc":"85.77","stresn":"85.77","stresu":"umol/L","stnrlo":"62","stnrhi":"106","nrind":"NORMAL","fast":null,"dtc":"2024-02-24","dy":"-9","visit":"SCREENING","visitnum":"1.0","epoch":"SCREENING","spec":null,"method":null},{"seq":"4","testcd":"GLUC","test":"Glucose","cat":"CHEMISTRY","orres":"5.33","orresu":"mmol/L","stresc":"5.33","stresn":"5.33","stresu":"mmol/L","stnrlo":"3.9","stnrhi":"5.6","nrind":"NORMAL","fast":null,"dtc":"2024-02-24","dy":"-9","visit":"SCREENING","visitnum":"1.0","epoch":"SCREENING","spec":null,"method":null},{"seq":"5","testcd":"HGB","test":"Hemoglobin","cat":"HEMATOLOGY","orres":"141.92","orresu":"g/L","stresc":"141.92","stresn":"141.92","stresu":"g/L","stnrlo":"130","stnrhi":"175","nrind":"NORMAL","fast":null,"dtc":"2024-02-24","dy":"-9","visit":"SCREENING","visitnum":"1.0","epoch":"SCREENING","spec":null,"method":null},{"seq":"6","testcd":"PLAT","test":"Platelets","cat":"HEMATOLOGY","orres":"265.88","orresu":"10^9/L","stresc":"265.88","stresn":"265.88","stresu":"10^9/L","stnrlo":"150","stnrhi":"400","nrind":"NORMAL","fast":null,"dtc":"2024-02-24","dy":"-9","visit":"SCREENING","visitnum":"1.0","epoch":"SCREENING","spec":null,"method":null},{"seq":"7","testcd":"WBC","test":"Leukocytes","cat":"HEMATOLOGY","orres":"7.03","orresu":"10^9/L","stresc":"7.03","stresn":"7.03","stresu":"10^9/L","stnrlo":"4.0","stnrhi":"11.0","nrind":"NORMAL","fast":null,"dtc":"2024-02-24","dy":"-9","visit":"SCREENING","visitnum":"1.0","epoch":"SCREENING","spec":null,"method":null},{"seq":"8","testcd":"ALT","test":"Alanine Aminotransferase","cat":"CHEMISTRY","orres":"36.04","orresu":"U/L","stresc":"36.04","stresn":"36.04","stresu":"U/L","stnrlo":"7","stnrhi":"56","nrind":"NORMAL","fast":null,"dtc":"2024-03-04","dy":"1","visit":"C1D1","visitnum":"2.0","epoch":"TREATMENT","spec":null,"method":null},{"seq":"9","testcd":"AST","test":"Aspartate Aminotransferase","cat":"CHEMISTRY","orres":"15.31","orresu":"U/L","stresc":"15.31","stresn":"15.31","stresu":"U/L","stnrlo":"10","stnrhi":"40","nrind":"NORMAL","fast":null,"dtc":"2024-03-04","dy":"1","visit":"C1D1","visitnum":"2.0","epoch":"TREATMENT","spec":null,"method":null},{"seq":"10","testcd":"CREAT","test":"Creatinine","cat":"CHEMISTRY","orres":"85.2","orresu":"umol/L","stresc":"85.2","stresn":"85.2","stresu":"umol/L","stnrlo":"62","stnrhi":"106","nrind":"NORMAL","fast":null,"dtc":"2024-03-04","dy":"1","visit":"C1D1","visitnum":"2.0","epoch":"TREATMENT","spec":null,"method":null},{"seq":"11","testcd":"GLUC","test":"Glucose","cat":"CHEMISTRY","orres":"5.45","orresu":"mmol/L","stresc":"5.45","stresn":"5.45","stresu":"mmol/L","stnrlo":"3.9","stnrhi":"5.6","nrind":"NORMAL","fast":null,"dtc":"2024-03-04","dy":"1","visit":"C1D1","visitnum":"2.0","epoch":"TREATMENT","spec":null,"method":null},{"seq":"12","testcd":"HGB","test":"Hemoglobin","cat":"HEMATOLOGY","orres":"141.19","orresu":"g/L","stresc":"141.19","stresn":"141.19","stresu":"g/L","stnrlo":"130","stnrhi":"175","nrind":"NORMAL","fast":null,"dtc":"2024-03-04","dy":"1","visit":"C1D1","visitnum":"2.0","epoch":"TREATMENT","spec":null,"method":null},{"seq":"13","testcd":"PLAT","test":"Platelets","cat":"HEMATOLOGY","orres":"253.6","orresu":"10^9/L","stresc":"253.6","stresn":"253.6","stresu":"10^9/L","stnrlo":"150","stnrhi":"400","nrind":"NORMAL","fast":null,"dtc":"2024-03-04","dy":"1","visit":"C1D1","visitnum":"2.0","epoch":"TREATMENT","spec":null,"method":null},{"seq":"14","testcd":"WBC","test":"Leukocytes","cat":"HEMATOLOGY","orres":"7.74","orresu":"10^9/L","stresc":"7.74","stresn":"7.74","stresu":"10^9/L","stnrlo":"4.0","stnrhi":"11.0","nrind":"NORMAL","fast":null,"dtc":"2024-03-04","dy":"1","visit":"C1D1","visitnum":"2.0","epoch":"TREATMENT","spec":null,"method":null},{"seq":"15","testcd":"ALT","test":"Alanine Aminotransferase","cat":"CHEMISTRY","orres":"36.54","orresu":"U/L","stresc":"36.54","stresn":"36.54","stresu":"U/L","stnrlo":"7","stnrhi":"56","nrind":"NORMAL","fast":null,"dtc":"2024-03-18","dy":"15","visit":"C1D15","visitnum":"3.0","epoch":"TREATMENT","spec":null,"method":null},{"seq":"16","testcd":"AST","test":"Aspartate Aminotransferase","cat":"CHEMISTRY","orres":"14.3","orresu":"U/L","stresc":"14.3","stresn":"14.3","stresu":"U/L","stnrlo":"10","stnrhi":"40","nrind":"NORMAL","fast":null,"dtc":"2024-03-18","dy":"15","visit":"C1D15","visitnum":"3.0","epoch":"TREATMENT","spec":null,"method":null},{"seq":"17","testcd":"CREAT","test":"Creatinine","cat":"CHEMISTRY","orres":"83.23","orresu":"umol/L","stresc":"83.23","stresn":"83.23","stresu":"umol/L","stnrlo":"62","stnrhi":"106","nrind":"NORMAL","fast":null,"dtc":"2024-03-18","dy":"15","visit":"C1D15","visitnum":"3.0","epoch":"TREATMENT","spec":null,"method":null},{"seq":"18","testcd":"GLUC","test":"Glucose","cat":"CHEMISTRY","orres":"5.47","orresu":"mmol/L","stresc":"5.47","stresn":"5.47","stresu":"mmol/L","stnrlo":"3.9","stnrhi":"5.6","nrind":"NORMAL","fast":null,"dtc":"2024-03-18","dy":"15","visit":"C1D15","visitnum":"3.0","epoch":"TREATMENT","spec":null,"method":null},{"seq":"19","testcd":"HGB","test":"Hemoglobin","cat":"HEMATOLOGY","orres":"142.83","orresu":"g/L","stresc":"142.83","stresn":"142.83","stresu":"g/L","stnrlo":"130","stnrhi":"175","nrind":"NORMAL","fast":null,"dtc":"2024-03-18","dy":"15","visit":"C1D15","visitnum":"3.0","epoch":"TREATMENT","spec":null,"method":null},{"seq":"20","testcd":"PLAT","test":"Platelets","cat":"HEMATOLOGY","orres":"271.32","orresu":"10^9/L","stresc":"271.32","stresn":"271.32","stresu":"10^9/L","stnrlo":"150","stnrhi":"400","nrind":"NORMAL","fast":null,"dtc":"2024-03-18","dy":"15","visit":"C1D15","visitnum":"3.0","epoch":"TREATMENT","spec":null,"method":null},{"seq":"21","testcd":"WBC","test":"Leukocytes","cat":"HEMATOLOGY","orres":"7.32","orresu":"10^9/L","stresc":"7.32","stresn":"7.32","stresu":"10^9/L","stnrlo":"4.0","stnrhi":"11.0","nrind":"NORMAL","fast":null,"dtc":"2024-03-18","dy":"15","visit":"C1D15","visitnum":"3.0","epoch":"TREATMENT","spec":null,"method":null}]},"section_9_vital_signs":{"summary":{"total_records":24},"trends":{"BMI":[{"visit":"SCREENING","visitnum":"1.0","dtc":"2024-02-24","value":"26.1","unit":"kg/m2"},{"visit":"C1D1","visitnum":"2.0","dtc":"2024-03-04","value":"25.4","unit":"kg/m2"},{"visit":"C1D15","visitnum":"3.0","dtc":"2024-03-18","value":"25.1","unit":"kg/m2"}],"DIABP":[{"visit":"SCREENING","visitnum":"1.0","dtc":"2024-02-24","value":"75.6","unit":"mmHg"},{"visit":"C1D1","visitnum":"2.0","dtc":"2024-03-04","value":"77.1","unit":"mmHg"},{"visit":"C1D15","visitnum":"3.0","dtc":"2024-03-18","value":"78.7","unit":"mmHg"}],"HEIGHT":[{"visit":"SCREENING","visitnum":"1.0","dtc":"2024-02-24","value":"169.5","unit":"cm"},{"visit":"C1D1","visitnum":"2.0","dtc":"2024-03-04","value":"169.6","unit":"cm"},{"visit":"C1D15","visitnum":"3.0","dtc":"2024-03-18","value":"169.6","unit":"cm"}],"PULSE":[{"visit":"SCREENING","visitnum":"1.0","dtc":"2024-02-24","value":"71.9","unit":"beats/min"},{"visit":"C1D1","visitnum":"2.0","dtc":"2024-03-04","value":"66.4","unit":"beats/min"},{"visit":"C1D15","visitnum":"3.0","dtc":"2024-03-18","value":"67.9","unit":"beats/min"}],"RESP":[{"visit":"SCREENING","visitnum":"1.0","dtc":"2024-02-24","value":"19.1","unit":"breaths/min"},{"visit":"C1D1","visitnum":"2.0","dtc":"2024-03-04","value":"18.3","unit":"breaths/min"},{"visit":"C1D15","visitnum":"3.0","dtc":"2024-03-18","value":"19.5","unit":"breaths/min"}],"SYSBP":[{"visit":"SCREENING","visitnum":"1.0","dtc":"2024-02-24","value":"111.9","unit":"mmHg"},{"visit":"C1D1","visitnum":"2.0","dtc":"2024-03-04","value":"110.7","unit":"mmHg"},{"visit":"C1D15","visitnum":"3.0","dtc":"2024-03-18","value":"109.5","unit":"mmHg"}],"TEMP":[{"visit":"SCREENING","visitnum":"1.0","dtc":"2024-02-24","value":"35.8","unit":"C"},{"visit":"C1D1","visitnum":"2.0","dtc":"2024-03-04","value":"35.9","unit":"C"},{"visit":"C1D15","visitnum":"3.0","dtc":"2024-03-18","value":"35.7","unit":"C"}],"WEIGHT":[{"visit":"SCREENING","visitnum":"1.0","dtc":"2024-02-24","value":"74.9","unit":"kg"},{"visit":"C1D1","visitnum":"2.0","dtc":"2024-03-04","value":"73.1","unit":"kg"},{"visit":"C1D15","visitnum":"3.0","dtc":"2024-03-18","value":"72.1","unit":"kg"}]},"results":[{"seq":"1","testcd":"BMI","test":"BMI","cat":null,"orres":"26.1","orresu":"kg/m2","stresc":"26.1","stresn":"26.1","stresu":"kg/m2","stnrlo":null,"stnrhi":null,"nrind":null,"pos":null,"loc":null,"dtc":"2024-02-24","dy":"-9","visit":"SCREENING","visitnum":"1.0","epoch":"SCREENING"},{"seq":"2","testcd":"DIABP","test":"Diastolic Blood Pressure","cat":null,"orres":"75.6","orresu":"mmHg","stresc":"75.6","stresn":"75.6","stresu":"mmHg","stnrlo":null,"stnrhi":null,"nrind":null,"pos":null,"loc":null,"dtc":"2024-02-24","dy":"-9","visit":"SCREENING","visitnum":"1.0","epoch":"SCREENING"},{"seq":"3","testcd":"HEIGHT","test":"Height","cat":null,"orres":"169.5","orresu":"cm","stresc":"169.5","stresn":"169.5","stresu":"cm","stnrlo":null,"stnrhi":null,"nrind":null,"pos":null,"loc":null,"dtc":"2024-02-24","dy":"-9","visit":"SCREENING","visitnum":"1.0","epoch":"SCREENING"},{"seq":"4","testcd":"PULSE","test":"Pulse Rate","cat":null,"orres":"71.9","orresu":"beats/min","stresc":"71.9","stresn":"71.9","stresu":"beats/min","stnrlo":null,"stnrhi":null,"nrind":null,"pos":null,"loc":null,"dtc":"2024-02-24","dy":"-9","visit":"SCREENING","visitnum":"1.0","epoch":"SCREENING"},{"seq":"5","testcd":"RESP","test":"Respiratory Rate","cat":null,"orres":"19.1","orresu":"breaths/min","stresc":"19.1","stresn":"19.1","stresu":"breaths/min","stnrlo":null,"stnrhi":null,"nrind":null,"pos":null,"loc":null,"dtc":"2024-02-24","dy":"-9","visit":"SCREENING","visitnum":"1.0","epoch":"SCREENING"},{"seq":"6","testcd":"SYSBP","test":"Systolic Blood Pressure","cat":null,"orres":"111.9","orresu":"mmHg","stresc":"111.9","stresn":"111.9","stresu":"mmHg","stnrlo":null,"stnrhi":null,"nrind":null,"pos":null,"loc":null,"dtc":"2024-02-24","dy":"-9","visit":"SCREENING","visitnum":"1.0","epoch":"SCREENING"},{"seq":"7","testcd":"TEMP","test":"Temperature","cat":null,"orres":"35.8","orresu":"C","stresc":"35.8","stresn":"35.8","stresu":"C","stnrlo":null,"stnrhi":null,"nrind":null,"pos":null,"loc":null,"dtc":"2024-02-24","dy":"-9","visit":"SCREENING","visitnum":"1.0","epoch":"SCREENING"},{"seq":"8","testcd":"WEIGHT","test":"Weight","cat":null,"orres":"74.9","orresu":"kg","stresc":"74.9","stresn":"74.9","stresu":"kg","stnrlo":null,"stnrhi":null,"nrind":null,"pos":null,"loc":null,"dtc":"2024-02-24","dy":"-9","visit":"SCREENING","visitnum":"1.0","epoch":"SCREENING"},{"seq":"9","testcd":"BMI","test":"BMI","cat":null,"orres":"25.4","orresu":"kg/m2","stresc":"25.4","stresn":"25.4","stresu":"kg/m2","stnrlo":null,"stnrhi":null,"nrind":null,"pos":null,"loc":null,"dtc":"2024-03-04","dy":"1","visit":"C1D1","visitnum":"2.0","epoch":"TREATMENT"},{"seq":"10","testcd":"DIABP","test":"Diastolic Blood Pressure","cat":null,"orres":"77.1","orresu":"mmHg","stresc":"77.1","stresn":"77.1","stresu":"mmHg","stnrlo":null,"stnrhi":null,"nrind":null,"pos":null,"loc":null,"dtc":"2024-03-04","dy":"1","visit":"C1D1","visitnum":"2.0","epoch":"TREATMENT"},{"seq":"11","testcd":"HEIGHT","test":"Height","cat":null,"orres":"169.6","orresu":"cm","stresc":"169.6","stresn":"169.6","stresu":"cm","stnrlo":null,"stnrhi":null,"nrind":null,"pos":null,"loc":null,"dtc":"2024-03-04","dy":"1","visit":"C1D1","visitnum":"2.0","epoch":"TREATMENT"},{"seq":"12","testcd":"PULSE","test":"Pulse Rate","cat":null,"orres":"66.4","orresu":"beats/min","stresc":"66.4","stresn":"66.4","stresu":"beats/min","stnrlo":null,"stnrhi":null,"nrind":null,"pos":null,"loc":null,"dtc":"2024-03-04","dy":"1","visit":"C1D1","visitnum":"2.0","epoch":"TREATMENT"},{"seq":"13","testcd":"RESP","test":"Respiratory Rate","cat":null,"orres":"18.3","orresu":"breaths/min","stresc":"18.3","stresn":"18.3","stresu":"breaths/min","stnrlo":null,"stnrhi":null,"nrind":null,"pos":null,"loc":null,"dtc":"2024-03-04","dy":"1","visit":"C1D1","visitnum":"2.0","epoch":"TREATMENT"},{"seq":"14","testcd":"SYSBP","test":"Systolic Blood Pressure","cat":null,"orres":"110.7","orresu":"mmHg","stresc":"110.7","stresn":"110.7","stresu":"mmHg","stnrlo":null,"stnrhi":null,"nrind":null,"pos":null,"loc":null,"dtc":"2024-03-04","dy":"1","visit":"C1D1","visitnum":"2.0","epoch":"TREATMENT"},{"seq":"15","testcd":"TEMP","test":"Temperature","cat":null,"orres":"35.9","orresu":"C","stresc":"35.9","stresn":"35.9","stresu":"C","stnrlo":null,"stnrhi":null,"nrind":null,"pos":null,"loc":null,"dtc":"2024-03-04","dy":"1","visit":"C1D1","visitnum":"2.0","epoch":"TREATMENT"},{"seq":"16","testcd":"WEIGHT","test":"Weight","cat":null,"orres":"73.1","orresu":"kg","stresc":"73.1","stresn":"73.1","stresu":"kg","stnrlo":null,"stnrhi":null,"nrind":null,"pos":null,"loc":null,"dtc":"2024-03-04","dy":"1","visit":"C1D1","visitnum":"2.0","epoch":"TREATMENT"},{"seq":"17","testcd":"BMI","test":"BMI","cat":null,"orres":"25.1","orresu":"kg/m2","stresc":"25.1","stresn":"25.1","stresu":"kg/m2","stnrlo":null,"stnrhi":null,"nrind":null,"pos":null,"loc":null,"dtc":"2024-03-18","dy":"15","visit":"C1D15","visitnum":"3.0","epoch":"TREATMENT"},{"seq":"18","testcd":"DIABP","test":"Diastolic Blood Pressure","cat":null,"orres":"78.7","orresu":"mmHg","stresc":"78.7","stresn":"78.7","stresu":"mmHg","stnrlo":null,"stnrhi":null,"nrind":null,"pos":null,"loc":null,"dtc":"2024-03-18","dy":"15","visit":"C1D15","visitnum":"3.0","epoch":"TREATMENT"},{"seq":"19","testcd":"HEIGHT","test":"Height","cat":null,"orres":"169.6","orresu":"cm","stresc":"169.6","stresn":"169.6","stresu":"cm","stnrlo":null,"stnrhi":null,"nrind":null,"pos":null,"loc":null,"dtc":"2024-03-18","dy":"15","visit":"C1D15","visitnum":"3.0","epoch":"TREATMENT"},{"seq":"20","testcd":"PULSE","test":"Pulse Rate","cat":null,"orres":"67.9","orresu":"beats/min","stresc":"67.9","stresn":"67.9","stresu":"beats/min","stnrlo":null,"stnrhi":null,"nrind":null,"pos":null,"loc":null,"dtc":"2024-03-18","dy":"15","visit":"C1D15","visitnum":"3.0","epoch":"TREATMENT"},{"seq":"21","testcd":"RESP","test":"Respiratory Rate","cat":null,"orres":"19.5","orresu":"breaths/min","stresc":"19.5","stresn":"19.5","stresu":"breaths/min","stnrlo":null,"stnrhi":null,"nrind":null,"pos":null,"loc":null,"dtc":"2024-03-18","dy":"15","visit":"C1D15","visitnum":"3.0","epoch":"TREATMENT"},{"seq":"22","testcd":"SYSBP","test":"Systolic Blood Pressure","cat":null,"orres":"109.5","orresu":"mmHg","stresc":"109.5","stresn":"109.5","stresu":"mmHg","stnrlo":null,"stnrhi":null,"nrind":null,"pos":null,"loc":null,"dtc":"2024-03-18","dy":"15","visit":"C1D15","visitnum":"3.0","epoch":"TREATMENT"},{"seq":"23","testcd":"TEMP","test":"Temperature","cat":null,"orres":"35.7","orresu":"C","stresc":"35.7","stresn":"35.7","stresu":"C","stnrlo":null,"stnrhi":null,"nrind":null,"pos":null,"loc":null,"dtc":"2024-03-18","dy":"15","visit":"C1D15","visitnum":"3.0","epoch":"TREATMENT"},{"seq":"24","testcd":"WEIGHT","test":"Weight","cat":null,"orres":"72.1","orresu":"kg","stresc":"72.1","stresn":"72.1","stresu":"kg","stnrlo":null,"stnrhi":null,"nrind":null,"pos":null,"loc":null,"dtc":"2024-03-18","dy":"15","visit":"C1D15","visitnum":"3.0","epoch":"TREATMENT"}]},"section_10_questionnaires_and_scores":{"questionnaires":[],"findings_about":[{"seq":"1","testcd":"LDIAM","test":"Longest Diameter","cat":"TUMOR ASSESSMENT","orres":"19.3","stresc":"19.3","stresn":"19.3","dtc":"2024-02-11","visit":"SCREENING"},{"seq":"2","testcd":"SAXIS","test":"Short Axis","cat":"TUMOR ASSESSMENT","orres":"13.1","stresc":"13.1","stresn":"13.1","dtc":"2024-02-11","visit":"SCREENING"},{"seq":"3","testcd":"LDIAM","test":"Longest Diameter","cat":"TUMOR ASSESSMENT","orres":"44.5","stresc":"44.5","stresn":"44.5","dtc":"2024-02-11","visit":"SCREENING"},{"seq":"4","testcd":"SAXIS","test":"Short Axis","cat":"TUMOR ASSESSMENT","orres":"11.3","stresc":"11.3","stresn":"11.3","dtc":"2024-02-11","visit":"SCREENING"},{"seq":"5","testcd":"LDIAM","test":"Longest Diameter","cat":"TUMOR ASSESSMENT","orres":"48.2","stresc":"48.2","stresn":"48.2","dtc":"2024-02-11","visit":"SCREENING"},{"seq":"6","testcd":"SAXIS","test":"Short Axis","cat":"TUMOR ASSESSMENT","orres":"15.2","stresc":"15.2","stresn":"15.2","dtc":"2024-02-11","visit":"SCREENING"},{"seq":"7","testcd":"LDIAM","test":"Longest Diameter","cat":"TUMOR ASSESSMENT","orres":"13.6","stresc":"13.6","stresn":"13.6","dtc":"2024-02-11","visit":"SCREENING"},{"seq":"8","testcd":"SAXIS","test":"Short Axis","cat":"TUMOR ASSESSMENT","orres":"10.3","stresc":"10.3","stresn":"10.3","dtc":"2024-02-11","visit":"SCREENING"},{"seq":"9","testcd":"LDIAM","test":"Longest Diameter","cat":"TUMOR ASSESSMENT","orres":"15.4","stresc":"15.4","stresn":"15.4","dtc":"2024-03-04","visit":"C1D1"},{"seq":"10","testcd":"SAXIS","test":"Short Axis","cat":"TUMOR ASSESSMENT","orres":"10.2","stresc":"10.2","stresn":"10.2","dtc":"2024-03-04","visit":"C1D1"},{"seq":"11","testcd":"LDIAM","test":"Longest Diameter","cat":"TUMOR ASSESSMENT","orres":"34.7","stresc":"34.7","stresn":"34.7","dtc":"2024-03-04","visit":"C1D1"},{"seq":"12","testcd":"SAXIS","test":"Short Axis","cat":"TUMOR ASSESSMENT","orres":"9.3","stresc":"9.3","stresn":"9.3","dtc":"2024-03-04","visit":"C1D1"},{"seq":"13","testcd":"LDIAM","test":"Longest Diameter","cat":"TUMOR ASSESSMENT","orres":"38.6","stresc":"38.6","stresn":"38.6","dtc":"2024-03-04","visit":"C1D1"},{"seq":"14","testcd":"SAXIS","test":"Short Axis","cat":"TUMOR ASSESSMENT","orres":"12.1","stresc":"12.1","stresn":"12.1","dtc":"2024-03-04","visit":"C1D1"},{"seq":"15","testcd":"LDIAM","test":"Longest Diameter","cat":"TUMOR ASSESSMENT","orres":"10.2","stresc":"10.2","stresn":"10.2","dtc":"2024-03-04","visit":"C1D1"},{"seq":"16","testcd":"SAXIS","test":"Short Axis","cat":"TUMOR ASSESSMENT","orres":"7.5","stresc":"7.5","stresn":"7.5","dtc":"2024-03-04","visit":"C1D1"},{"seq":"17","testcd":"LDIAM","test":"Longest Diameter","cat":"TUMOR ASSESSMENT","orres":"13.4","stresc":"13.4","stresn":"13.4","dtc":"2024-03-18","visit":"C1D15"},{"seq":"18","testcd":"SAXIS","test":"Short Axis","cat":"TUMOR ASSESSMENT","orres":"8.1","stresc":"8.1","stresn":"8.1","dtc":"2024-03-18","visit":"C1D15"},{"seq":"19","testcd":"LDIAM","test":"Longest Diameter","cat":"TUMOR ASSESSMENT","orres":"25.1","stresc":"25.1","stresn":"25.1","dtc":"2024-03-18","visit":"C1D15"},{"seq":"20","testcd":"SAXIS","test":"Short Axis","cat":"TUMOR ASSESSMENT","orres":"7.1","stresc":"7.1","stresn":"7.1","dtc":"2024-03-18","visit":"C1D15"},{"seq":"21","testcd":"LDIAM","test":"Longest Diameter","cat":"TUMOR ASSESSMENT","orres":"29.1","stresc":"29.1","stresn":"29.1","dtc":"2024-03-18","visit":"C1D15"},{"seq":"22","testcd":"SAXIS","test":"Short Axis","cat":"TUMOR ASSESSMENT","orres":"8.2","stresc":"8.2","stresn":"8.2","dtc":"2024-03-18","visit":"C1D15"},{"seq":"23","testcd":"LDIAM","test":"Longest Diameter","cat":"TUMOR ASSESSMENT","orres":"8.0","stresc":"8.0","stresn":"8.0","dtc":"2024-03-18","visit":"C1D15"},{"seq":"24","testcd":"SAXIS","test":"Short Axis","cat":"TUMOR ASSESSMENT","orres":"6.0","stresc":"6.0","stresn":"6.0","dtc":"2024-03-18","visit":"C1D15"}]},"section_11_protocol_deviations":{"deviations":[{"seq":"1","term":"Visit C1D15 occurred 0 days late (Day 15 vs planned Day 15)","decod":"VISIT OCCURRED OUTSIDE VISIT WINDOW","cat":"MINOR","scat":"VISIT WINDOW","start_dtc":"2024-03-18","end_dtc":null,"visit":null}],"total":1},"section_12_disposition":{"completion_status":"INFORMED CONSENT OBTAINED","disposition_records":[{"seq":"1","term":"INFORMED CONSENT OBTAINED","decod":"INFORMED CONSENT OBTAINED","cat":"PROTOCOL MILESTONE","scat":null,"dtc":"2024-02-11","dy":null,"visit":null,"epoch":"SCREENING"},{"seq":"2","term":"RANDOMIZED","decod":"RANDOMIZED","cat":"PROTOCOL MILESTONE","scat":null,"dtc":"2024-03-04","dy":null,"visit":null,"epoch":"TREATMENT"},{"seq":"3","term":"WITHDRAWAL BY SUBJECT","decod":"WITHDRAWAL BY SUBJECT","cat":"DISPOSITION EVENT","scat":null,"dtc":"2024-03-30","dy":null,"visit":null,"epoch":"TREATMENT"}],"death":null},"section_13_hospitalizations":{"items":[],"total":0},"section_14_substance_use":{"items":[{"seq":"1","substance":"ALCOHOL","decod":"ALCOHOL","cat":"ALCOHOL","scat":null,"usage":"Y","dose":"12.0","dosu":"DRINKS/WEEK","freq":"QW","start_dtc":"2019-02-12","end_dtc":null},{"seq":"2","substance":"COFFEE","decod":"COFFEE","cat":"CAFFEINE","scat":null,"usage":"Y","dose":"2.0","dosu":"CUPS/DAY","freq":"QD","start_dtc":"2000-02-17","end_dtc":null},{"seq":"3","substance":"CIGARETTES","decod":"CIGARETTES","cat":"TOBACCO","scat":"CIGARETTES","usage":"N","dose":null,"dosu":null,"freq":null,"start_dtc":null,"end_dtc":null}],"total":3},"section_15_subject_status":{"items":[],"total":0}}