{"subject_id":"VISION-NSCLC-SITE003-0393","study_id":"VISION-NSCLC","generated_at":"2026-06-09T04:14:42.387555+00:00","sdtmig_version":"3.4","flags":{"has_serious_ae":true,"has_fatal_ae":true,"has_protocol_deviation":true,"n_protocol_deviations":4,"n_adverse_events":1,"n_concomitant_meds":1,"max_ae_severity":"SEVERE","screen_failure":false,"discontinued_early":true,"discontinuation_reason":"DEATH","death":true,"exposure_days":15},"timeline":[{"dtc":"2024-03-17","dy":"-33","event":"INFORMED CONSENT OBTAINED","domain":"DS","category":"milestone"},{"dtc":"2024-03-29","dy":"-21","event":"VISIT: SCREENING","domain":"SV","category":"visit"},{"dtc":"2024-04-19","dy":"1","event":"RANDOMIZED","domain":"DS","category":"milestone"},{"dtc":"2024-04-19","dy":"1","event":"FIRST DOSE: TEPOTINIB","domain":"EX","category":"exposure"},{"dtc":"2024-04-19","dy":"1","event":"VISIT: C1D1","domain":"SV","category":"visit"},{"dtc":"2024-04-24","dy":"6","event":"DEVIATION: MISSED DOSE","domain":"DV","category":"deviation"},{"dtc":"2024-04-27","dy":"9","event":"DEVIATION: MISSED DOSE","domain":"DV","category":"deviation"},{"dtc":"2024-05-03","dy":"15","event":"DEVIATION: VISIT OCCURRED OUTSIDE VISIT WINDOW","domain":"DV","category":"deviation"},{"dtc":"2024-05-03","dy":"15","event":"VISIT: C1D15","domain":"SV","category":"visit"},{"dtc":"2024-05-15","dy":"27","event":"DEVIATION: VISIT OCCURRED OUTSIDE VISIT WINDOW","domain":"DV","category":"deviation"},{"dtc":"2024-05-15","dy":"27","event":"VISIT: C2D1","domain":"SV","category":"visit"},{"dtc":"2024-05-17","dy":"29","event":"CM START: METFORMIN","domain":"CM","category":"concomitant_med"},{"dtc":"2024-05-27","dy":"39","event":"DEATH","domain":"DS","category":"milestone"},{"dtc":"2024-05-27","dy":"39","event":"AE: Pneumonia (SEVERE) [SERIOUS]","domain":"AE","category":"adverse_event"}],"section_1_demographics":{"usubjid":"VISION-NSCLC-SITE003-0393","subjid":"0393","siteid":"SITE003","age":"56","ageu":"YEARS","sex":"F","race":"WHITE","ethnicity":"NOT HISPANIC OR LATINO","country":"USA","arm":"Tepotinib 500mg QD","armcd":"TEP500","actarm":"Tepotinib 500mg QD","actarmcd":"TEP500","randomization_date":null,"informed_consent_date":"2024-03-17","reference_start_date":"2024-04-19","reference_end_date":"2024-05-27","screen_failure":false,"death_flag":"Y","death_date":"2024-05-27","subject_characteristics":[{"testcd":"ALCUSE","test":"Alcohol Use","orres":"CURRENT DRINKER","stresc":"CURRENT DRINKER","visit":null,"dtc":"2024-03-17"},{"testcd":"BMI","test":"Body Mass Index","orres":"31.4","stresc":"31.4","visit":null,"dtc":"2024-03-17"},{"testcd":"TOBPKYR","test":"Tobacco Pack-Years","orres":"10","stresc":"10","visit":null,"dtc":"2024-03-17"},{"testcd":"TOBUSE","test":"Tobacco Use","orres":"FORMER SMOKER","stresc":"FORMER SMOKER","visit":null,"dtc":"2024-03-17"}]},"section_2_medical_history":{"items":[]},"section_3_inclusion_exclusion":{"criteria":[]},"section_4_trial_participation":{"visits":[{"visitnum":"1.0","visit":"SCREENING","start_dtc":"2024-03-29","end_dtc":"2024-03-29","updes":null},{"visitnum":"2.0","visit":"C1D1","start_dtc":"2024-04-19","end_dtc":"2024-04-19","updes":null},{"visitnum":"3.0","visit":"C1D15","start_dtc":"2024-05-03","end_dtc":"2024-05-03","updes":null},{"visitnum":"4.0","visit":"C2D1","start_dtc":"2024-05-15","end_dtc":"2024-05-15","updes":null}],"epochs":[{"seq":"1","etcd":"SCRN","element":"Screening","start_dtc":"2024-03-22","end_dtc":"2024-04-19","updes":null},{"seq":"2","etcd":"TRT","element":"Treatment","start_dtc":"2024-04-19","end_dtc":"2024-05-27","updes":null}],"visit_count":4},"section_5_concomitant_medications":{"medications":[{"seq":"1","trt":"METFORMIN","decod":"METFORMIN","cat":"CONCOMITANT","dose":null,"doseu":null,"dosef":"BID","route":"ORAL","indication":null,"start_dtc":"2024-05-17","end_dtc":"2024-05-27","ongoing":null,"visit":null}]},"section_6_exposure":{"exposure_as_administered":[{"seq":"1","trt":"TEPOTINIB","dose":"500.0","doseu":null,"dosef":"QD","route":"ORAL","lot":null,"start_dtc":"2024-04-19","end_dtc":"2024-05-04","start_dy":"1","end_dy":"16","epoch":"TREATMENT","visit":null}],"exposure_as_collected":[{"seq":"1","trt":"TEPOTINIB","dose":"500.0","doseu":null,"dosef":"QD","route":"ORAL","start_dtc":"2024-04-19","end_dtc":"2024-04-19","visit":"C1D1"},{"seq":"2","trt":"TEPOTINIB","dose":"500.0","doseu":null,"dosef":"QD","route":"ORAL","start_dtc":"2024-04-20","end_dtc":"2024-04-20","visit":"C1D1"},{"seq":"3","trt":"TEPOTINIB","dose":"500.0","doseu":null,"dosef":"QD","route":"ORAL","start_dtc":"2024-04-21","end_dtc":"2024-04-21","visit":"C1D1"},{"seq":"4","trt":"TEPOTINIB","dose":"500.0","doseu":null,"dosef":"QD","route":"ORAL","start_dtc":"2024-04-22","end_dtc":"2024-04-22","visit":"C1D1"},{"seq":"5","trt":"TEPOTINIB","dose":"500.0","doseu":null,"dosef":"QD","route":"ORAL","start_dtc":"2024-04-23","end_dtc":"2024-04-23","visit":null},{"seq":"6","trt":"TEPOTINIB","dose":null,"doseu":null,"dosef":"QD","route":"ORAL","start_dtc":"2024-04-24","end_dtc":"2024-04-24","visit":null},{"seq":"7","trt":"TEPOTINIB","dose":"500.0","doseu":null,"dosef":"QD","route":"ORAL","start_dtc":"2024-04-25","end_dtc":"2024-04-25","visit":null},{"seq":"8","trt":"TEPOTINIB","dose":"500.0","doseu":null,"dosef":"QD","route":"ORAL","start_dtc":"2024-04-26","end_dtc":"2024-04-26","visit":null},{"seq":"9","trt":"TEPOTINIB","dose":null,"doseu":null,"dosef":"QD","route":"ORAL","start_dtc":"2024-04-27","end_dtc":"2024-04-27","visit":null},{"seq":"10","trt":"TEPOTINIB","dose":"500.0","doseu":null,"dosef":"QD","route":"ORAL","start_dtc":"2024-04-28","end_dtc":"2024-04-28","visit":null},{"seq":"11","trt":"TEPOTINIB","dose":"500.0","doseu":null,"dosef":"QD","route":"ORAL","start_dtc":"2024-04-29","end_dtc":"2024-04-29","visit":null},{"seq":"12","trt":"TEPOTINIB","dose":"500.0","doseu":null,"dosef":"QD","route":"ORAL","start_dtc":"2024-04-30","end_dtc":"2024-04-30","visit":"C1D15"},{"seq":"13","trt":"TEPOTINIB","dose":"500.0","doseu":null,"dosef":"QD","route":"ORAL","start_dtc":"2024-05-01","end_dtc":"2024-05-01","visit":"C1D15"},{"seq":"14","trt":"TEPOTINIB","dose":"500.0","doseu":null,"dosef":"QD","route":"ORAL","start_dtc":"2024-05-02","end_dtc":"2024-05-02","visit":"C1D15"},{"seq":"15","trt":"TEPOTINIB","dose":"500.0","doseu":null,"dosef":"QD","route":"ORAL","start_dtc":"2024-05-03","end_dtc":"2024-05-03","visit":"C1D15"},{"seq":"16","trt":"TEPOTINIB","dose":"500.0","doseu":null,"dosef":"QD","route":"ORAL","start_dtc":"2024-05-04","end_dtc":"2024-05-04","visit":"C1D15"}]},"section_7_adverse_events":{"summary":{"total_aes":1,"serious_aes":1,"fatal_aes":1,"by_severity":{"SEVERE":1},"by_soc":{"Infections and infestations":1}},"events":[{"seq":"1","term":"PNEUMONIA","decod":"Pneumonia","llt":"Pneumonia","hlt":"Lower respiratory and lung infections","hlgt":"Infections NEC","soc":"Infections and infestations","bodsys":"Infections and infestations","severity":"SEVERE","serious":"Y","causality":"NOT RELATED","action_taken":"NOT APPLICABLE","outcome":"FATAL","fatal":"Y","hospitalization":"N","life_threatening":"Y","onset_dtc":"2024-05-27","end_dtc":"2024-05-27","onset_dy":"39","end_dy":"39","duration":null,"epoch":"TREATMENT","visit":null,"supplemental":{}}]},"section_8_laboratory_results":{"summary":{"total_records":21,"abnormal_count":3,"abnormal_pct":14.3},"shift_summary":[{"testcd":"ALT","baseline_value":34.21,"baseline_nrind":"NORMAL","worst_post_baseline_value":33.53,"worst_post_baseline_nrind":"NORMAL","worst_visit":"C1D1"},{"testcd":"AST","baseline_value":31.73,"baseline_nrind":"NORMAL","worst_post_baseline_value":32.05,"worst_post_baseline_nrind":"NORMAL","worst_visit":"C1D1"},{"testcd":"CREAT","baseline_value":52.9,"baseline_nrind":"NORMAL","worst_post_baseline_value":53.69,"worst_post_baseline_nrind":"NORMAL","worst_visit":"C1D1"},{"testcd":"GLUC","baseline_value":5.31,"baseline_nrind":"NORMAL","worst_post_baseline_value":5.25,"worst_post_baseline_nrind":"NORMAL","worst_visit":"C1D1"},{"testcd":"HGB","baseline_value":126.06,"baseline_nrind":"NORMAL","worst_post_baseline_value":123.89,"worst_post_baseline_nrind":"NORMAL","worst_visit":"C1D1"},{"testcd":"PLAT","baseline_value":189.12,"baseline_nrind":"NORMAL","worst_post_baseline_value":184.77,"worst_post_baseline_nrind":"NORMAL","worst_visit":"C1D15"},{"testcd":"WBC","baseline_value":2.76,"baseline_nrind":"LOW","worst_post_baseline_value":2.99,"worst_post_baseline_nrind":"LOW","worst_visit":"C1D1"}],"results":[{"seq":"1","testcd":"ALT","test":"Alanine Aminotransferase","cat":"CHEMISTRY","orres":"34.21","orresu":"U/L","stresc":"34.21","stresn":"34.21","stresu":"U/L","stnrlo":"7","stnrhi":"56","nrind":"NORMAL","fast":null,"dtc":"2024-03-29","dy":"-21","visit":"SCREENING","visitnum":"1.0","epoch":"SCREENING","spec":null,"method":null},{"seq":"2","testcd":"AST","test":"Aspartate Aminotransferase","cat":"CHEMISTRY","orres":"31.73","orresu":"U/L","stresc":"31.73","stresn":"31.73","stresu":"U/L","stnrlo":"10","stnrhi":"40","nrind":"NORMAL","fast":null,"dtc":"2024-03-29","dy":"-21","visit":"SCREENING","visitnum":"1.0","epoch":"SCREENING","spec":null,"method":null},{"seq":"3","testcd":"CREAT","test":"Creatinine","cat":"CHEMISTRY","orres":"52.9","orresu":"umol/L","stresc":"52.9","stresn":"52.9","stresu":"umol/L","stnrlo":"44","stnrhi":"80","nrind":"NORMAL","fast":null,"dtc":"2024-03-29","dy":"-21","visit":"SCREENING","visitnum":"1.0","epoch":"SCREENING","spec":null,"method":null},{"seq":"4","testcd":"GLUC","test":"Glucose","cat":"CHEMISTRY","orres":"5.31","orresu":"mmol/L","stresc":"5.31","stresn":"5.31","stresu":"mmol/L","stnrlo":"3.9","stnrhi":"5.6","nrind":"NORMAL","fast":null,"dtc":"2024-03-29","dy":"-21","visit":"SCREENING","visitnum":"1.0","epoch":"SCREENING","spec":null,"method":null},{"seq":"5","testcd":"HGB","test":"Hemoglobin","cat":"HEMATOLOGY","orres":"126.06","orresu":"g/L","stresc":"126.06","stresn":"126.06","stresu":"g/L","stnrlo":"120","stnrhi":"155","nrind":"NORMAL","fast":null,"dtc":"2024-03-29","dy":"-21","visit":"SCREENING","visitnum":"1.0","epoch":"SCREENING","spec":null,"method":null},{"seq":"6","testcd":"PLAT","test":"Platelets","cat":"HEMATOLOGY","orres":"189.12","orresu":"10^9/L","stresc":"189.12","stresn":"189.12","stresu":"10^9/L","stnrlo":"150","stnrhi":"400","nrind":"NORMAL","fast":null,"dtc":"2024-03-29","dy":"-21","visit":"SCREENING","visitnum":"1.0","epoch":"SCREENING","spec":null,"method":null},{"seq":"7","testcd":"WBC","test":"Leukocytes","cat":"HEMATOLOGY","orres":"2.76","orresu":"10^9/L","stresc":"2.76","stresn":"2.76","stresu":"10^9/L","stnrlo":"4.0","stnrhi":"11.0","nrind":"LOW","fast":null,"dtc":"2024-03-29","dy":"-21","visit":"SCREENING","visitnum":"1.0","epoch":"SCREENING","spec":null,"method":null},{"seq":"8","testcd":"ALT","test":"Alanine Aminotransferase","cat":"CHEMISTRY","orres":"33.53","orresu":"U/L","stresc":"33.53","stresn":"33.53","stresu":"U/L","stnrlo":"7","stnrhi":"56","nrind":"NORMAL","fast":null,"dtc":"2024-04-19","dy":"1","visit":"C1D1","visitnum":"2.0","epoch":"TREATMENT","spec":null,"method":null},{"seq":"9","testcd":"AST","test":"Aspartate Aminotransferase","cat":"CHEMISTRY","orres":"32.05","orresu":"U/L","stresc":"32.05","stresn":"32.05","stresu":"U/L","stnrlo":"10","stnrhi":"40","nrind":"NORMAL","fast":null,"dtc":"2024-04-19","dy":"1","visit":"C1D1","visitnum":"2.0","epoch":"TREATMENT","spec":null,"method":null},{"seq":"10","testcd":"CREAT","test":"Creatinine","cat":"CHEMISTRY","orres":"53.69","orresu":"umol/L","stresc":"53.69","stresn":"53.69","stresu":"umol/L","stnrlo":"44","stnrhi":"80","nrind":"NORMAL","fast":null,"dtc":"2024-04-19","dy":"1","visit":"C1D1","visitnum":"2.0","epoch":"TREATMENT","spec":null,"method":null},{"seq":"11","testcd":"GLUC","test":"Glucose","cat":"CHEMISTRY","orres":"5.25","orresu":"mmol/L","stresc":"5.25","stresn":"5.25","stresu":"mmol/L","stnrlo":"3.9","stnrhi":"5.6","nrind":"NORMAL","fast":null,"dtc":"2024-04-19","dy":"1","visit":"C1D1","visitnum":"2.0","epoch":"TREATMENT","spec":null,"method":null},{"seq":"12","testcd":"HGB","test":"Hemoglobin","cat":"HEMATOLOGY","orres":"123.89","orresu":"g/L","stresc":"123.89","stresn":"123.89","stresu":"g/L","stnrlo":"120","stnrhi":"155","nrind":"NORMAL","fast":null,"dtc":"2024-04-19","dy":"1","visit":"C1D1","visitnum":"2.0","epoch":"TREATMENT","spec":null,"method":null},{"seq":"13","testcd":"PLAT","test":"Platelets","cat":"HEMATOLOGY","orres":"183.59","orresu":"10^9/L","stresc":"183.59","stresn":"183.59","stresu":"10^9/L","stnrlo":"150","stnrhi":"400","nrind":"NORMAL","fast":null,"dtc":"2024-04-19","dy":"1","visit":"C1D1","visitnum":"2.0","epoch":"TREATMENT","spec":null,"method":null},{"seq":"14","testcd":"WBC","test":"Leukocytes","cat":"HEMATOLOGY","orres":"2.99","orresu":"10^9/L","stresc":"2.99","stresn":"2.99","stresu":"10^9/L","stnrlo":"4.0","stnrhi":"11.0","nrind":"LOW","fast":null,"dtc":"2024-04-19","dy":"1","visit":"C1D1","visitnum":"2.0","epoch":"TREATMENT","spec":null,"method":null},{"seq":"15","testcd":"ALT","test":"Alanine Aminotransferase","cat":"CHEMISTRY","orres":"31.84","orresu":"U/L","stresc":"31.84","stresn":"31.84","stresu":"U/L","stnrlo":"7","stnrhi":"56","nrind":"NORMAL","fast":null,"dtc":"2024-05-03","dy":"15","visit":"C1D15","visitnum":"3.0","epoch":"TREATMENT","spec":null,"method":null},{"seq":"16","testcd":"AST","test":"Aspartate Aminotransferase","cat":"CHEMISTRY","orres":"31.01","orresu":"U/L","stresc":"31.01","stresn":"31.01","stresu":"U/L","stnrlo":"10","stnrhi":"40","nrind":"NORMAL","fast":null,"dtc":"2024-05-03","dy":"15","visit":"C1D15","visitnum":"3.0","epoch":"TREATMENT","spec":null,"method":null},{"seq":"17","testcd":"CREAT","test":"Creatinine","cat":"CHEMISTRY","orres":"53.5","orresu":"umol/L","stresc":"53.5","stresn":"53.5","stresu":"umol/L","stnrlo":"44","stnrhi":"80","nrind":"NORMAL","fast":null,"dtc":"2024-05-03","dy":"15","visit":"C1D15","visitnum":"3.0","epoch":"TREATMENT","spec":null,"method":null},{"seq":"18","testcd":"GLUC","test":"Glucose","cat":"CHEMISTRY","orres":"5.16","orresu":"mmol/L","stresc":"5.16","stresn":"5.16","stresu":"mmol/L","stnrlo":"3.9","stnrhi":"5.6","nrind":"NORMAL","fast":null,"dtc":"2024-05-03","dy":"15","visit":"C1D15","visitnum":"3.0","epoch":"TREATMENT","spec":null,"method":null},{"seq":"19","testcd":"HGB","test":"Hemoglobin","cat":"HEMATOLOGY","orres":"124.58","orresu":"g/L","stresc":"124.58","stresn":"124.58","stresu":"g/L","stnrlo":"120","stnrhi":"155","nrind":"NORMAL","fast":null,"dtc":"2024-05-03","dy":"15","visit":"C1D15","visitnum":"3.0","epoch":"TREATMENT","spec":null,"method":null},{"seq":"20","testcd":"PLAT","test":"Platelets","cat":"HEMATOLOGY","orres":"184.77","orresu":"10^9/L","stresc":"184.77","stresn":"184.77","stresu":"10^9/L","stnrlo":"150","stnrhi":"400","nrind":"NORMAL","fast":null,"dtc":"2024-05-03","dy":"15","visit":"C1D15","visitnum":"3.0","epoch":"TREATMENT","spec":null,"method":null},{"seq":"21","testcd":"WBC","test":"Leukocytes","cat":"HEMATOLOGY","orres":"2.91","orresu":"10^9/L","stresc":"2.91","stresn":"2.91","stresu":"10^9/L","stnrlo":"4.0","stnrhi":"11.0","nrind":"LOW","fast":null,"dtc":"2024-05-03","dy":"15","visit":"C1D15","visitnum":"3.0","epoch":"TREATMENT","spec":null,"method":null}]},"section_9_vital_signs":{"summary":{"total_records":32},"trends":{"BMI":[{"visit":"SCREENING","visitnum":"1.0","dtc":"2024-03-29","value":"31.4","unit":"kg/m2"},{"visit":"C1D1","visitnum":"2.0","dtc":"2024-04-19","value":"31.9","unit":"kg/m2"},{"visit":"C1D15","visitnum":"3.0","dtc":"2024-05-03","value":"31.5","unit":"kg/m2"},{"visit":"C2D1","visitnum":"4.0","dtc":"2024-05-15","value":"31.2","unit":"kg/m2"}],"DIABP":[{"visit":"SCREENING","visitnum":"1.0","dtc":"2024-03-29","value":"67.9","unit":"mmHg"},{"visit":"C1D1","visitnum":"2.0","dtc":"2024-04-19","value":"68.7","unit":"mmHg"},{"visit":"C1D15","visitnum":"3.0","dtc":"2024-05-03","value":"69.0","unit":"mmHg"},{"visit":"C2D1","visitnum":"4.0","dtc":"2024-05-15","value":"70.1","unit":"mmHg"}],"HEIGHT":[{"visit":"SCREENING","visitnum":"1.0","dtc":"2024-03-29","value":"155.7","unit":"cm"},{"visit":"C1D1","visitnum":"2.0","dtc":"2024-04-19","value":"156.3","unit":"cm"},{"visit":"C1D15","visitnum":"3.0","dtc":"2024-05-03","value":"157.2","unit":"cm"},{"visit":"C2D1","visitnum":"4.0","dtc":"2024-05-15","value":"156.7","unit":"cm"}],"PULSE":[{"visit":"SCREENING","visitnum":"1.0","dtc":"2024-03-29","value":"63.5","unit":"beats/min"},{"visit":"C1D1","visitnum":"2.0","dtc":"2024-04-19","value":"64.0","unit":"beats/min"},{"visit":"C1D15","visitnum":"3.0","dtc":"2024-05-03","value":"69.6","unit":"beats/min"},{"visit":"C2D1","visitnum":"4.0","dtc":"2024-05-15","value":"58.6","unit":"beats/min"}],"RESP":[{"visit":"SCREENING","visitnum":"1.0","dtc":"2024-03-29","value":"10.2","unit":"breaths/min"},{"visit":"C1D1","visitnum":"2.0","dtc":"2024-04-19","value":"10.3","unit":"breaths/min"},{"visit":"C1D15","visitnum":"3.0","dtc":"2024-05-03","value":"11.6","unit":"breaths/min"},{"visit":"C2D1","visitnum":"4.0","dtc":"2024-05-15","value":"11.1","unit":"breaths/min"}],"SYSBP":[{"visit":"SCREENING","visitnum":"1.0","dtc":"2024-03-29","value":"143.0","unit":"mmHg"},{"visit":"C1D1","visitnum":"2.0","dtc":"2024-04-19","value":"144.6","unit":"mmHg"},{"visit":"C1D15","visitnum":"3.0","dtc":"2024-05-03","value":"144.6","unit":"mmHg"},{"visit":"C2D1","visitnum":"4.0","dtc":"2024-05-15","value":"145.7","unit":"mmHg"}],"TEMP":[{"visit":"SCREENING","visitnum":"1.0","dtc":"2024-03-29","value":"36.7","unit":"C"},{"visit":"C1D1","visitnum":"2.0","dtc":"2024-04-19","value":"36.8","unit":"C"},{"visit":"C1D15","visitnum":"3.0","dtc":"2024-05-03","value":"36.7","unit":"C"},{"visit":"C2D1","visitnum":"4.0","dtc":"2024-05-15","value":"36.9","unit":"C"}],"WEIGHT":[{"visit":"SCREENING","visitnum":"1.0","dtc":"2024-03-29","value":"76.1","unit":"kg"},{"visit":"C1D1","visitnum":"2.0","dtc":"2024-04-19","value":"78.0","unit":"kg"},{"visit":"C1D15","visitnum":"3.0","dtc":"2024-05-03","value":"77.8","unit":"kg"},{"visit":"C2D1","visitnum":"4.0","dtc":"2024-05-15","value":"76.5","unit":"kg"}]},"results":[{"seq":"1","testcd":"BMI","test":"BMI","cat":null,"orres":"31.4","orresu":"kg/m2","stresc":"31.4","stresn":"31.4","stresu":"kg/m2","stnrlo":null,"stnrhi":null,"nrind":null,"pos":null,"loc":null,"dtc":"2024-03-29","dy":"-21","visit":"SCREENING","visitnum":"1.0","epoch":"SCREENING"},{"seq":"2","testcd":"DIABP","test":"Diastolic Blood Pressure","cat":null,"orres":"67.9","orresu":"mmHg","stresc":"67.9","stresn":"67.9","stresu":"mmHg","stnrlo":null,"stnrhi":null,"nrind":null,"pos":null,"loc":null,"dtc":"2024-03-29","dy":"-21","visit":"SCREENING","visitnum":"1.0","epoch":"SCREENING"},{"seq":"3","testcd":"HEIGHT","test":"Height","cat":null,"orres":"155.7","orresu":"cm","stresc":"155.7","stresn":"155.7","stresu":"cm","stnrlo":null,"stnrhi":null,"nrind":null,"pos":null,"loc":null,"dtc":"2024-03-29","dy":"-21","visit":"SCREENING","visitnum":"1.0","epoch":"SCREENING"},{"seq":"4","testcd":"PULSE","test":"Pulse Rate","cat":null,"orres":"63.5","orresu":"beats/min","stresc":"63.5","stresn":"63.5","stresu":"beats/min","stnrlo":null,"stnrhi":null,"nrind":null,"pos":null,"loc":null,"dtc":"2024-03-29","dy":"-21","visit":"SCREENING","visitnum":"1.0","epoch":"SCREENING"},{"seq":"5","testcd":"RESP","test":"Respiratory Rate","cat":null,"orres":"10.2","orresu":"breaths/min","stresc":"10.2","stresn":"10.2","stresu":"breaths/min","stnrlo":null,"stnrhi":null,"nrind":null,"pos":null,"loc":null,"dtc":"2024-03-29","dy":"-21","visit":"SCREENING","visitnum":"1.0","epoch":"SCREENING"},{"seq":"6","testcd":"SYSBP","test":"Systolic Blood Pressure","cat":null,"orres":"143.0","orresu":"mmHg","stresc":"143.0","stresn":"143.0","stresu":"mmHg","stnrlo":null,"stnrhi":null,"nrind":null,"pos":null,"loc":null,"dtc":"2024-03-29","dy":"-21","visit":"SCREENING","visitnum":"1.0","epoch":"SCREENING"},{"seq":"7","testcd":"TEMP","test":"Temperature","cat":null,"orres":"36.7","orresu":"C","stresc":"36.7","stresn":"36.7","stresu":"C","stnrlo":null,"stnrhi":null,"nrind":null,"pos":null,"loc":null,"dtc":"2024-03-29","dy":"-21","visit":"SCREENING","visitnum":"1.0","epoch":"SCREENING"},{"seq":"8","testcd":"WEIGHT","test":"Weight","cat":null,"orres":"76.1","orresu":"kg","stresc":"76.1","stresn":"76.1","stresu":"kg","stnrlo":null,"stnrhi":null,"nrind":null,"pos":null,"loc":null,"dtc":"2024-03-29","dy":"-21","visit":"SCREENING","visitnum":"1.0","epoch":"SCREENING"},{"seq":"9","testcd":"BMI","test":"BMI","cat":null,"orres":"31.9","orresu":"kg/m2","stresc":"31.9","stresn":"31.9","stresu":"kg/m2","stnrlo":null,"stnrhi":null,"nrind":null,"pos":null,"loc":null,"dtc":"2024-04-19","dy":"1","visit":"C1D1","visitnum":"2.0","epoch":"TREATMENT"},{"seq":"10","testcd":"DIABP","test":"Diastolic Blood Pressure","cat":null,"orres":"68.7","orresu":"mmHg","stresc":"68.7","stresn":"68.7","stresu":"mmHg","stnrlo":null,"stnrhi":null,"nrind":null,"pos":null,"loc":null,"dtc":"2024-04-19","dy":"1","visit":"C1D1","visitnum":"2.0","epoch":"TREATMENT"},{"seq":"11","testcd":"HEIGHT","test":"Height","cat":null,"orres":"156.3","orresu":"cm","stresc":"156.3","stresn":"156.3","stresu":"cm","stnrlo":null,"stnrhi":null,"nrind":null,"pos":null,"loc":null,"dtc":"2024-04-19","dy":"1","visit":"C1D1","visitnum":"2.0","epoch":"TREATMENT"},{"seq":"12","testcd":"PULSE","test":"Pulse Rate","cat":null,"orres":"64.0","orresu":"beats/min","stresc":"64.0","stresn":"64.0","stresu":"beats/min","stnrlo":null,"stnrhi":null,"nrind":null,"pos":null,"loc":null,"dtc":"2024-04-19","dy":"1","visit":"C1D1","visitnum":"2.0","epoch":"TREATMENT"},{"seq":"13","testcd":"RESP","test":"Respiratory Rate","cat":null,"orres":"10.3","orresu":"breaths/min","stresc":"10.3","stresn":"10.3","stresu":"breaths/min","stnrlo":null,"stnrhi":null,"nrind":null,"pos":null,"loc":null,"dtc":"2024-04-19","dy":"1","visit":"C1D1","visitnum":"2.0","epoch":"TREATMENT"},{"seq":"14","testcd":"SYSBP","test":"Systolic Blood Pressure","cat":null,"orres":"144.6","orresu":"mmHg","stresc":"144.6","stresn":"144.6","stresu":"mmHg","stnrlo":null,"stnrhi":null,"nrind":null,"pos":null,"loc":null,"dtc":"2024-04-19","dy":"1","visit":"C1D1","visitnum":"2.0","epoch":"TREATMENT"},{"seq":"15","testcd":"TEMP","test":"Temperature","cat":null,"orres":"36.8","orresu":"C","stresc":"36.8","stresn":"36.8","stresu":"C","stnrlo":null,"stnrhi":null,"nrind":null,"pos":null,"loc":null,"dtc":"2024-04-19","dy":"1","visit":"C1D1","visitnum":"2.0","epoch":"TREATMENT"},{"seq":"16","testcd":"WEIGHT","test":"Weight","cat":null,"orres":"78.0","orresu":"kg","stresc":"78.0","stresn":"78.0","stresu":"kg","stnrlo":null,"stnrhi":null,"nrind":null,"pos":null,"loc":null,"dtc":"2024-04-19","dy":"1","visit":"C1D1","visitnum":"2.0","epoch":"TREATMENT"},{"seq":"17","testcd":"BMI","test":"BMI","cat":null,"orres":"31.5","orresu":"kg/m2","stresc":"31.5","stresn":"31.5","stresu":"kg/m2","stnrlo":null,"stnrhi":null,"nrind":null,"pos":null,"loc":null,"dtc":"2024-05-03","dy":"15","visit":"C1D15","visitnum":"3.0","epoch":"TREATMENT"},{"seq":"18","testcd":"DIABP","test":"Diastolic Blood Pressure","cat":null,"orres":"69.0","orresu":"mmHg","stresc":"69.0","stresn":"69.0","stresu":"mmHg","stnrlo":null,"stnrhi":null,"nrind":null,"pos":null,"loc":null,"dtc":"2024-05-03","dy":"15","visit":"C1D15","visitnum":"3.0","epoch":"TREATMENT"},{"seq":"19","testcd":"HEIGHT","test":"Height","cat":null,"orres":"157.2","orresu":"cm","stresc":"157.2","stresn":"157.2","stresu":"cm","stnrlo":null,"stnrhi":null,"nrind":null,"pos":null,"loc":null,"dtc":"2024-05-03","dy":"15","visit":"C1D15","visitnum":"3.0","epoch":"TREATMENT"},{"seq":"20","testcd":"PULSE","test":"Pulse Rate","cat":null,"orres":"69.6","orresu":"beats/min","stresc":"69.6","stresn":"69.6","stresu":"beats/min","stnrlo":null,"stnrhi":null,"nrind":null,"pos":null,"loc":null,"dtc":"2024-05-03","dy":"15","visit":"C1D15","visitnum":"3.0","epoch":"TREATMENT"},{"seq":"21","testcd":"RESP","test":"Respiratory Rate","cat":null,"orres":"11.6","orresu":"breaths/min","stresc":"11.6","stresn":"11.6","stresu":"breaths/min","stnrlo":null,"stnrhi":null,"nrind":null,"pos":null,"loc":null,"dtc":"2024-05-03","dy":"15","visit":"C1D15","visitnum":"3.0","epoch":"TREATMENT"},{"seq":"22","testcd":"SYSBP","test":"Systolic Blood Pressure","cat":null,"orres":"144.6","orresu":"mmHg","stresc":"144.6","stresn":"144.6","stresu":"mmHg","stnrlo":null,"stnrhi":null,"nrind":null,"pos":null,"loc":null,"dtc":"2024-05-03","dy":"15","visit":"C1D15","visitnum":"3.0","epoch":"TREATMENT"},{"seq":"23","testcd":"TEMP","test":"Temperature","cat":null,"orres":"36.7","orresu":"C","stresc":"36.7","stresn":"36.7","stresu":"C","stnrlo":null,"stnrhi":null,"nrind":null,"pos":null,"loc":null,"dtc":"2024-05-03","dy":"15","visit":"C1D15","visitnum":"3.0","epoch":"TREATMENT"},{"seq":"24","testcd":"WEIGHT","test":"Weight","cat":null,"orres":"77.8","orresu":"kg","stresc":"77.8","stresn":"77.8","stresu":"kg","stnrlo":null,"stnrhi":null,"nrind":null,"pos":null,"loc":null,"dtc":"2024-05-03","dy":"15","visit":"C1D15","visitnum":"3.0","epoch":"TREATMENT"},{"seq":"25","testcd":"BMI","test":"BMI","cat":null,"orres":"31.2","orresu":"kg/m2","stresc":"31.2","stresn":"31.2","stresu":"kg/m2","stnrlo":null,"stnrhi":null,"nrind":null,"pos":null,"loc":null,"dtc":"2024-05-15","dy":"27","visit":"C2D1","visitnum":"4.0","epoch":"TREATMENT"},{"seq":"26","testcd":"DIABP","test":"Diastolic Blood Pressure","cat":null,"orres":"70.1","orresu":"mmHg","stresc":"70.1","stresn":"70.1","stresu":"mmHg","stnrlo":null,"stnrhi":null,"nrind":null,"pos":null,"loc":null,"dtc":"2024-05-15","dy":"27","visit":"C2D1","visitnum":"4.0","epoch":"TREATMENT"},{"seq":"27","testcd":"HEIGHT","test":"Height","cat":null,"orres":"156.7","orresu":"cm","stresc":"156.7","stresn":"156.7","stresu":"cm","stnrlo":null,"stnrhi":null,"nrind":null,"pos":null,"loc":null,"dtc":"2024-05-15","dy":"27","visit":"C2D1","visitnum":"4.0","epoch":"TREATMENT"},{"seq":"28","testcd":"PULSE","test":"Pulse Rate","cat":null,"orres":"58.6","orresu":"beats/min","stresc":"58.6","stresn":"58.6","stresu":"beats/min","stnrlo":null,"stnrhi":null,"nrind":null,"pos":null,"loc":null,"dtc":"2024-05-15","dy":"27","visit":"C2D1","visitnum":"4.0","epoch":"TREATMENT"},{"seq":"29","testcd":"RESP","test":"Respiratory Rate","cat":null,"orres":"11.1","orresu":"breaths/min","stresc":"11.1","stresn":"11.1","stresu":"breaths/min","stnrlo":null,"stnrhi":null,"nrind":null,"pos":null,"loc":null,"dtc":"2024-05-15","dy":"27","visit":"C2D1","visitnum":"4.0","epoch":"TREATMENT"},{"seq":"30","testcd":"SYSBP","test":"Systolic Blood Pressure","cat":null,"orres":"145.7","orresu":"mmHg","stresc":"145.7","stresn":"145.7","stresu":"mmHg","stnrlo":null,"stnrhi":null,"nrind":null,"pos":null,"loc":null,"dtc":"2024-05-15","dy":"27","visit":"C2D1","visitnum":"4.0","epoch":"TREATMENT"},{"seq":"31","testcd":"TEMP","test":"Temperature","cat":null,"orres":"36.9","orresu":"C","stresc":"36.9","stresn":"36.9","stresu":"C","stnrlo":null,"stnrhi":null,"nrind":null,"pos":null,"loc":null,"dtc":"2024-05-15","dy":"27","visit":"C2D1","visitnum":"4.0","epoch":"TREATMENT"},{"seq":"32","testcd":"WEIGHT","test":"Weight","cat":null,"orres":"76.5","orresu":"kg","stresc":"76.5","stresn":"76.5","stresu":"kg","stnrlo":null,"stnrhi":null,"nrind":null,"pos":null,"loc":null,"dtc":"2024-05-15","dy":"27","visit":"C2D1","visitnum":"4.0","epoch":"TREATMENT"}]},"section_10_questionnaires_and_scores":{"questionnaires":[],"findings_about":[{"seq":"1","testcd":"LDIAM","test":"Longest Diameter","cat":"TUMOR ASSESSMENT","orres":"51.5","stresc":"51.5","stresn":"51.5","dtc":"2024-03-17","visit":"SCREENING"},{"seq":"2","testcd":"SAXIS","test":"Short Axis","cat":"TUMOR ASSESSMENT","orres":"10.2","stresc":"10.2","stresn":"10.2","dtc":"2024-03-17","visit":"SCREENING"},{"seq":"3","testcd":"LDIAM","test":"Longest Diameter","cat":"TUMOR ASSESSMENT","orres":"43.6","stresc":"43.6","stresn":"43.6","dtc":"2024-04-19","visit":"C1D1"},{"seq":"4","testcd":"SAXIS","test":"Short Axis","cat":"TUMOR ASSESSMENT","orres":"9.0","stresc":"9.0","stresn":"9.0","dtc":"2024-04-19","visit":"C1D1"},{"seq":"5","testcd":"LDIAM","test":"Longest Diameter","cat":"TUMOR ASSESSMENT","orres":"36.6","stresc":"36.6","stresn":"36.6","dtc":"2024-05-03","visit":"C1D15"},{"seq":"6","testcd":"SAXIS","test":"Short Axis","cat":"TUMOR ASSESSMENT","orres":"7.9","stresc":"7.9","stresn":"7.9","dtc":"2024-05-03","visit":"C1D15"},{"seq":"7","testcd":"LDIAM","test":"Longest Diameter","cat":"TUMOR ASSESSMENT","orres":"30.8","stresc":"30.8","stresn":"30.8","dtc":"2024-05-17","visit":"C2D1"},{"seq":"8","testcd":"SAXIS","test":"Short Axis","cat":"TUMOR ASSESSMENT","orres":"6.0","stresc":"6.0","stresn":"6.0","dtc":"2024-05-17","visit":"C2D1"}]},"section_11_protocol_deviations":{"deviations":[{"seq":"1","term":"Missed TEPOTINIB dose on 2024-04-24","decod":"MISSED DOSE","cat":"MINOR","scat":"DOSING","start_dtc":"2024-04-24","end_dtc":null,"visit":null},{"seq":"2","term":"Missed TEPOTINIB dose on 2024-04-27","decod":"MISSED DOSE","cat":"MINOR","scat":"DOSING","start_dtc":"2024-04-27","end_dtc":null,"visit":null},{"seq":"3","term":"Visit C1D15 occurred 0 days late (Day 15 vs planned Day 15)","decod":"VISIT OCCURRED OUTSIDE VISIT WINDOW","cat":"MINOR","scat":"VISIT WINDOW","start_dtc":"2024-05-03","end_dtc":null,"visit":null},{"seq":"4","term":"Visit C2D1 occurred 2 days early (Day 27 vs planned Day 29)","decod":"VISIT OCCURRED OUTSIDE VISIT WINDOW","cat":"MINOR","scat":"VISIT WINDOW","start_dtc":"2024-05-15","end_dtc":null,"visit":null}],"total":4},"section_12_disposition":{"completion_status":"INFORMED CONSENT OBTAINED","disposition_records":[{"seq":"1","term":"INFORMED CONSENT OBTAINED","decod":"INFORMED CONSENT OBTAINED","cat":"PROTOCOL MILESTONE","scat":null,"dtc":"2024-03-17","dy":null,"visit":null,"epoch":"SCREENING"},{"seq":"2","term":"RANDOMIZED","decod":"RANDOMIZED","cat":"PROTOCOL MILESTONE","scat":null,"dtc":"2024-04-19","dy":null,"visit":null,"epoch":"TREATMENT"},{"seq":"3","term":"DEATH","decod":"DEATH","cat":"DISPOSITION EVENT","scat":null,"dtc":"2024-05-27","dy":null,"visit":null,"epoch":"TREATMENT"}],"death":{"seq":"1","dthdtc":null,"cause":null}},"section_13_hospitalizations":{"items":[],"total":0},"section_14_substance_use":{"items":[{"seq":"1","substance":"ALCOHOL","decod":"ALCOHOL","cat":"ALCOHOL","scat":null,"usage":"Y","dose":"10.0","dosu":"DRINKS/WEEK","freq":"QW","start_dtc":"2011-03-21","end_dtc":null},{"seq":"2","substance":"COFFEE","decod":"COFFEE","cat":"CAFFEINE","scat":null,"usage":"N","dose":null,"dosu":null,"freq":null,"start_dtc":null,"end_dtc":null},{"seq":"3","substance":"CIGARETTES","decod":"CIGARETTES","cat":"TOBACCO","scat":"CIGARETTES","usage":"Y","dose":null,"dosu":null,"freq":null,"start_dtc":"1998-03-24","end_dtc":"2011-03-21"}],"total":3},"section_15_subject_status":{"items":[{"seq":"1","testcd":"SURVSTAT","test":"Survival Status","orres":"DEAD","stresc":"DEAD","dtc":"2024-11-03","visit":"FOLLOW-UP","epoch":"FOLLOW-UP"}],"total":1}}