STUDYID,DOMAIN,USUBJID,DSSEQ,DSTERM,DSDECOD,DSCAT,EPOCH,DSSTDTC,DSSTDY
EMPEROR-HFPEF,DS,EMPEROR-HFPEF-SITE001-0001,1,INFORMED CONSENT OBTAINED,INFORMED CONSENT OBTAINED,PROTOCOL MILESTONE,SCREENING,2024-01-16,-33
EMPEROR-HFPEF,DS,EMPEROR-HFPEF-SITE001-0001,2,RANDOMIZED,RANDOMIZED,PROTOCOL MILESTONE,TREATMENT,2024-02-18,1
EMPEROR-HFPEF,DS,EMPEROR-HFPEF-SITE001-0001,3,COMPLETED,COMPLETED,DISPOSITION EVENT,FOLLOW-UP,2025-03-31,408
EMPEROR-HFPEF,DS,EMPEROR-HFPEF-SITE001-0004,1,INFORMED CONSENT OBTAINED,INFORMED CONSENT OBTAINED,PROTOCOL MILESTONE,SCREENING,2024-03-02,-34
EMPEROR-HFPEF,DS,EMPEROR-HFPEF-SITE001-0004,2,RANDOMIZED,RANDOMIZED,PROTOCOL MILESTONE,TREATMENT,2024-04-05,1
EMPEROR-HFPEF,DS,EMPEROR-HFPEF-SITE001-0004,3,COMPLETED,COMPLETED,DISPOSITION EVENT,FOLLOW-UP,2025-05-17,408
EMPEROR-HFPEF,DS,EMPEROR-HFPEF-SITE001-0007,1,INFORMED CONSENT OBTAINED,INFORMED CONSENT OBTAINED,PROTOCOL MILESTONE,SCREENING,2024-01-18,-30
EMPEROR-HFPEF,DS,EMPEROR-HFPEF-SITE001-0007,2,RANDOMIZED,RANDOMIZED,PROTOCOL MILESTONE,TREATMENT,2024-02-17,1
EMPEROR-HFPEF,DS,EMPEROR-HFPEF-SITE001-0007,3,COMPLETED,COMPLETED,DISPOSITION EVENT,FOLLOW-UP,2025-03-30,408
EMPEROR-HFPEF,DS,EMPEROR-HFPEF-SITE001-0010,1,INFORMED CONSENT OBTAINED,INFORMED CONSENT OBTAINED,PROTOCOL MILESTONE,SCREENING,2024-02-24,-22
EMPEROR-HFPEF,DS,EMPEROR-HFPEF-SITE001-0010,2,RANDOMIZED,RANDOMIZED,PROTOCOL MILESTONE,TREATMENT,2024-03-17,1
EMPEROR-HFPEF,DS,EMPEROR-HFPEF-SITE001-0010,3,WITHDRAWAL BY SUBJECT,WITHDRAWAL BY SUBJECT,DISPOSITION EVENT,TREATMENT,2024-03-29,13
EMPEROR-HFPEF,DS,EMPEROR-HFPEF-SITE001-0013,1,INFORMED CONSENT OBTAINED,INFORMED CONSENT OBTAINED,PROTOCOL MILESTONE,SCREENING,2024-02-13,-20
EMPEROR-HFPEF,DS,EMPEROR-HFPEF-SITE001-0013,2,RANDOMIZED,RANDOMIZED,PROTOCOL MILESTONE,TREATMENT,2024-03-04,1
EMPEROR-HFPEF,DS,EMPEROR-HFPEF-SITE001-0013,3,COMPLETED,COMPLETED,DISPOSITION EVENT,FOLLOW-UP,2025-04-15,408
EMPEROR-HFPEF,DS,EMPEROR-HFPEF-SITE001-0016,1,INFORMED CONSENT OBTAINED,INFORMED CONSENT OBTAINED,PROTOCOL MILESTONE,SCREENING,2024-03-09,-24
EMPEROR-HFPEF,DS,EMPEROR-HFPEF-SITE001-0016,2,RANDOMIZED,RANDOMIZED,PROTOCOL MILESTONE,TREATMENT,2024-04-02,1
EMPEROR-HFPEF,DS,EMPEROR-HFPEF-SITE001-0016,3,COMPLETED,COMPLETED,DISPOSITION EVENT,FOLLOW-UP,2025-05-14,408
EMPEROR-HFPEF,DS,EMPEROR-HFPEF-SITE001-0019,1,INFORMED CONSENT OBTAINED,INFORMED CONSENT OBTAINED,PROTOCOL MILESTONE,SCREENING,2024-03-16,-9
EMPEROR-HFPEF,DS,EMPEROR-HFPEF-SITE001-0019,2,RANDOMIZED,RANDOMIZED,PROTOCOL MILESTONE,TREATMENT,2024-03-25,1
EMPEROR-HFPEF,DS,EMPEROR-HFPEF-SITE001-0019,3,COMPLETED,COMPLETED,DISPOSITION EVENT,FOLLOW-UP,2025-05-06,408
EMPEROR-HFPEF,DS,EMPEROR-HFPEF-SITE001-0022,1,INFORMED CONSENT OBTAINED,INFORMED CONSENT OBTAINED,PROTOCOL MILESTONE,SCREENING,2024-04-05,-21
EMPEROR-HFPEF,DS,EMPEROR-HFPEF-SITE001-0022,2,RANDOMIZED,RANDOMIZED,PROTOCOL MILESTONE,TREATMENT,2024-04-26,1
EMPEROR-HFPEF,DS,EMPEROR-HFPEF-SITE001-0022,3,COMPLETED,COMPLETED,DISPOSITION EVENT,FOLLOW-UP,2025-06-07,408
EMPEROR-HFPEF,DS,EMPEROR-HFPEF-SITE001-0025,1,INFORMED CONSENT OBTAINED,INFORMED CONSENT OBTAINED,PROTOCOL MILESTONE,SCREENING,2024-01-17,-21
EMPEROR-HFPEF,DS,EMPEROR-HFPEF-SITE001-0025,2,RANDOMIZED,RANDOMIZED,PROTOCOL MILESTONE,TREATMENT,2024-02-07,1
EMPEROR-HFPEF,DS,EMPEROR-HFPEF-SITE001-0025,3,COMPLETED,COMPLETED,DISPOSITION EVENT,FOLLOW-UP,2025-03-20,408
EMPEROR-HFPEF,DS,EMPEROR-HFPEF-SITE001-0028,1,INFORMED CONSENT OBTAINED,INFORMED CONSENT OBTAINED,PROTOCOL MILESTONE,SCREENING,2024-03-01,-23
EMPEROR-HFPEF,DS,EMPEROR-HFPEF-SITE001-0028,2,RANDOMIZED,RANDOMIZED,PROTOCOL MILESTONE,TREATMENT,2024-03-24,1
EMPEROR-HFPEF,DS,EMPEROR-HFPEF-SITE001-0028,3,COMPLETED,COMPLETED,DISPOSITION EVENT,FOLLOW-UP,2025-05-05,408
EMPEROR-HFPEF,DS,EMPEROR-HFPEF-SITE001-0031,1,INFORMED CONSENT OBTAINED,INFORMED CONSENT OBTAINED,PROTOCOL MILESTONE,SCREENING,2024-02-25,-12
EMPEROR-HFPEF,DS,EMPEROR-HFPEF-SITE001-0031,2,RANDOMIZED,RANDOMIZED,PROTOCOL MILESTONE,TREATMENT,2024-03-08,1
EMPEROR-HFPEF,DS,EMPEROR-HFPEF-SITE001-0031,3,COMPLETED,COMPLETED,DISPOSITION EVENT,FOLLOW-UP,2025-04-19,408
EMPEROR-HFPEF,DS,EMPEROR-HFPEF-SITE001-0034,1,INFORMED CONSENT OBTAINED,INFORMED CONSENT OBTAINED,PROTOCOL MILESTONE,SCREENING,2024-04-09,-20
EMPEROR-HFPEF,DS,EMPEROR-HFPEF-SITE001-0034,2,RANDOMIZED,RANDOMIZED,PROTOCOL MILESTONE,TREATMENT,2024-04-29,1
EMPEROR-HFPEF,DS,EMPEROR-HFPEF-SITE001-0034,3,COMPLETED,COMPLETED,DISPOSITION EVENT,FOLLOW-UP,2025-06-10,408
EMPEROR-HFPEF,DS,EMPEROR-HFPEF-SITE001-0037,1,INFORMED CONSENT OBTAINED,INFORMED CONSENT OBTAINED,PROTOCOL MILESTONE,SCREENING,2024-02-08,-21
EMPEROR-HFPEF,DS,EMPEROR-HFPEF-SITE001-0037,2,RANDOMIZED,RANDOMIZED,PROTOCOL MILESTONE,TREATMENT,2024-02-29,1
EMPEROR-HFPEF,DS,EMPEROR-HFPEF-SITE001-0037,3,COMPLETED,COMPLETED,DISPOSITION EVENT,FOLLOW-UP,2025-04-11,408
EMPEROR-HFPEF,DS,EMPEROR-HFPEF-SITE001-0040,1,INFORMED CONSENT OBTAINED,INFORMED CONSENT OBTAINED,PROTOCOL MILESTONE,SCREENING,2024-01-23,-14
EMPEROR-HFPEF,DS,EMPEROR-HFPEF-SITE001-0040,2,RANDOMIZED,RANDOMIZED,PROTOCOL MILESTONE,TREATMENT,2024-02-06,1
EMPEROR-HFPEF,DS,EMPEROR-HFPEF-SITE001-0040,3,COMPLETED,COMPLETED,DISPOSITION EVENT,FOLLOW-UP,2025-03-19,408
EMPEROR-HFPEF,DS,EMPEROR-HFPEF-SITE001-0043,1,INFORMED CONSENT OBTAINED,INFORMED CONSENT OBTAINED,PROTOCOL MILESTONE,SCREENING,2024-03-21,-33
EMPEROR-HFPEF,DS,EMPEROR-HFPEF-SITE001-0043,2,RANDOMIZED,RANDOMIZED,PROTOCOL MILESTONE,TREATMENT,2024-04-23,1
EMPEROR-HFPEF,DS,EMPEROR-HFPEF-SITE001-0043,3,COMPLETED,COMPLETED,DISPOSITION EVENT,FOLLOW-UP,2025-06-04,408
EMPEROR-HFPEF,DS,EMPEROR-HFPEF-SITE001-0046,1,INFORMED CONSENT OBTAINED,INFORMED CONSENT OBTAINED,PROTOCOL MILESTONE,SCREENING,2024-04-09,-18
EMPEROR-HFPEF,DS,EMPEROR-HFPEF-SITE001-0046,2,RANDOMIZED,RANDOMIZED,PROTOCOL MILESTONE,TREATMENT,2024-04-27,1
EMPEROR-HFPEF,DS,EMPEROR-HFPEF-SITE001-0046,3,COMPLETED,COMPLETED,DISPOSITION EVENT,FOLLOW-UP,2025-06-08,408
EMPEROR-HFPEF,DS,EMPEROR-HFPEF-SITE001-0049,1,INFORMED CONSENT OBTAINED,INFORMED CONSENT OBTAINED,PROTOCOL MILESTONE,SCREENING,2024-03-17,-17
EMPEROR-HFPEF,DS,EMPEROR-HFPEF-SITE001-0049,2,RANDOMIZED,RANDOMIZED,PROTOCOL MILESTONE,TREATMENT,2024-04-03,1
EMPEROR-HFPEF,DS,EMPEROR-HFPEF-SITE001-0049,3,WITHDRAWAL BY SUBJECT,WITHDRAWAL BY SUBJECT,DISPOSITION EVENT,TREATMENT,2024-05-10,38
EMPEROR-HFPEF,DS,EMPEROR-HFPEF-SITE002-0002,1,INFORMED CONSENT OBTAINED,INFORMED CONSENT OBTAINED,PROTOCOL MILESTONE,SCREENING,2024-02-03,
EMPEROR-HFPEF,DS,EMPEROR-HFPEF-SITE002-0002,2,ELIGIBILITY CRITERIA NOT MET,ELIGIBILITY CRITERIA NOT MET,PROTOCOL MILESTONE,SCREENING,2024-03-02,
EMPEROR-HFPEF,DS,EMPEROR-HFPEF-SITE002-0005,1,INFORMED CONSENT OBTAINED,INFORMED CONSENT OBTAINED,PROTOCOL MILESTONE,SCREENING,2024-03-10,-35
EMPEROR-HFPEF,DS,EMPEROR-HFPEF-SITE002-0005,2,RANDOMIZED,RANDOMIZED,PROTOCOL MILESTONE,TREATMENT,2024-04-14,1
EMPEROR-HFPEF,DS,EMPEROR-HFPEF-SITE002-0005,3,ADVERSE EVENT,ADVERSE EVENT,DISPOSITION EVENT,TREATMENT,2024-06-17,65
EMPEROR-HFPEF,DS,EMPEROR-HFPEF-SITE002-0008,1,INFORMED CONSENT OBTAINED,INFORMED CONSENT OBTAINED,PROTOCOL MILESTONE,SCREENING,2024-02-25,-32
EMPEROR-HFPEF,DS,EMPEROR-HFPEF-SITE002-0008,2,RANDOMIZED,RANDOMIZED,PROTOCOL MILESTONE,TREATMENT,2024-03-28,1
EMPEROR-HFPEF,DS,EMPEROR-HFPEF-SITE002-0008,3,DEATH,DEATH,DISPOSITION EVENT,TREATMENT,2024-11-05,223
EMPEROR-HFPEF,DS,EMPEROR-HFPEF-SITE002-0011,1,INFORMED CONSENT OBTAINED,INFORMED CONSENT OBTAINED,PROTOCOL MILESTONE,SCREENING,2024-04-03,-14
EMPEROR-HFPEF,DS,EMPEROR-HFPEF-SITE002-0011,2,RANDOMIZED,RANDOMIZED,PROTOCOL MILESTONE,TREATMENT,2024-04-17,1
EMPEROR-HFPEF,DS,EMPEROR-HFPEF-SITE002-0011,3,COMPLETED,COMPLETED,DISPOSITION EVENT,FOLLOW-UP,2025-05-29,408
EMPEROR-HFPEF,DS,EMPEROR-HFPEF-SITE002-0014,1,INFORMED CONSENT OBTAINED,INFORMED CONSENT OBTAINED,PROTOCOL MILESTONE,SCREENING,2024-01-26,-34
EMPEROR-HFPEF,DS,EMPEROR-HFPEF-SITE002-0014,2,RANDOMIZED,RANDOMIZED,PROTOCOL MILESTONE,TREATMENT,2024-02-29,1
EMPEROR-HFPEF,DS,EMPEROR-HFPEF-SITE002-0014,3,COMPLETED,COMPLETED,DISPOSITION EVENT,FOLLOW-UP,2025-04-11,408
EMPEROR-HFPEF,DS,EMPEROR-HFPEF-SITE002-0017,1,INFORMED CONSENT OBTAINED,INFORMED CONSENT OBTAINED,PROTOCOL MILESTONE,SCREENING,2024-02-09,-23
EMPEROR-HFPEF,DS,EMPEROR-HFPEF-SITE002-0017,2,RANDOMIZED,RANDOMIZED,PROTOCOL MILESTONE,TREATMENT,2024-03-03,1
EMPEROR-HFPEF,DS,EMPEROR-HFPEF-SITE002-0017,3,COMPLETED,COMPLETED,DISPOSITION EVENT,FOLLOW-UP,2025-04-14,408
EMPEROR-HFPEF,DS,EMPEROR-HFPEF-SITE002-0020,1,INFORMED CONSENT OBTAINED,INFORMED CONSENT OBTAINED,PROTOCOL MILESTONE,SCREENING,2024-03-04,-22
EMPEROR-HFPEF,DS,EMPEROR-HFPEF-SITE002-0020,2,RANDOMIZED,RANDOMIZED,PROTOCOL MILESTONE,TREATMENT,2024-03-26,1
EMPEROR-HFPEF,DS,EMPEROR-HFPEF-SITE002-0020,3,COMPLETED,COMPLETED,DISPOSITION EVENT,FOLLOW-UP,2025-05-07,408
EMPEROR-HFPEF,DS,EMPEROR-HFPEF-SITE002-0023,1,INFORMED CONSENT OBTAINED,INFORMED CONSENT OBTAINED,PROTOCOL MILESTONE,SCREENING,2024-01-20,-22
EMPEROR-HFPEF,DS,EMPEROR-HFPEF-SITE002-0023,2,RANDOMIZED,RANDOMIZED,PROTOCOL MILESTONE,TREATMENT,2024-02-11,1
EMPEROR-HFPEF,DS,EMPEROR-HFPEF-SITE002-0023,3,COMPLETED,COMPLETED,DISPOSITION EVENT,FOLLOW-UP,2025-03-24,408
EMPEROR-HFPEF,DS,EMPEROR-HFPEF-SITE002-0026,1,INFORMED CONSENT OBTAINED,INFORMED CONSENT OBTAINED,PROTOCOL MILESTONE,SCREENING,2024-03-05,-35
EMPEROR-HFPEF,DS,EMPEROR-HFPEF-SITE002-0026,2,RANDOMIZED,RANDOMIZED,PROTOCOL MILESTONE,TREATMENT,2024-04-09,1
EMPEROR-HFPEF,DS,EMPEROR-HFPEF-SITE002-0026,3,ADVERSE EVENT,ADVERSE EVENT,DISPOSITION EVENT,TREATMENT,2024-04-13,5
EMPEROR-HFPEF,DS,EMPEROR-HFPEF-SITE002-0029,1,INFORMED CONSENT OBTAINED,INFORMED CONSENT OBTAINED,PROTOCOL MILESTONE,SCREENING,2024-02-28,
EMPEROR-HFPEF,DS,EMPEROR-HFPEF-SITE002-0029,2,ELIGIBILITY CRITERIA NOT MET,ELIGIBILITY CRITERIA NOT MET,PROTOCOL MILESTONE,SCREENING,2024-03-09,
EMPEROR-HFPEF,DS,EMPEROR-HFPEF-SITE002-0032,1,INFORMED CONSENT OBTAINED,INFORMED CONSENT OBTAINED,PROTOCOL MILESTONE,SCREENING,2024-04-14,-25
EMPEROR-HFPEF,DS,EMPEROR-HFPEF-SITE002-0032,2,RANDOMIZED,RANDOMIZED,PROTOCOL MILESTONE,TREATMENT,2024-05-09,1
EMPEROR-HFPEF,DS,EMPEROR-HFPEF-SITE002-0032,3,COMPLETED,COMPLETED,DISPOSITION EVENT,FOLLOW-UP,2025-06-20,408
EMPEROR-HFPEF,DS,EMPEROR-HFPEF-SITE002-0035,1,INFORMED CONSENT OBTAINED,INFORMED CONSENT OBTAINED,PROTOCOL MILESTONE,SCREENING,2024-03-15,-29
EMPEROR-HFPEF,DS,EMPEROR-HFPEF-SITE002-0035,2,RANDOMIZED,RANDOMIZED,PROTOCOL MILESTONE,TREATMENT,2024-04-13,1
EMPEROR-HFPEF,DS,EMPEROR-HFPEF-SITE002-0035,3,COMPLETED,COMPLETED,DISPOSITION EVENT,FOLLOW-UP,2025-05-25,408
EMPEROR-HFPEF,DS,EMPEROR-HFPEF-SITE002-0038,1,INFORMED CONSENT OBTAINED,INFORMED CONSENT OBTAINED,PROTOCOL MILESTONE,SCREENING,2024-01-29,-24
EMPEROR-HFPEF,DS,EMPEROR-HFPEF-SITE002-0038,2,RANDOMIZED,RANDOMIZED,PROTOCOL MILESTONE,TREATMENT,2024-02-22,1
EMPEROR-HFPEF,DS,EMPEROR-HFPEF-SITE002-0038,3,ADVERSE EVENT,ADVERSE EVENT,DISPOSITION EVENT,TREATMENT,2024-11-08,261
EMPEROR-HFPEF,DS,EMPEROR-HFPEF-SITE002-0041,1,INFORMED CONSENT OBTAINED,INFORMED CONSENT OBTAINED,PROTOCOL MILESTONE,SCREENING,2024-01-15,-18
EMPEROR-HFPEF,DS,EMPEROR-HFPEF-SITE002-0041,2,RANDOMIZED,RANDOMIZED,PROTOCOL MILESTONE,TREATMENT,2024-02-02,1
EMPEROR-HFPEF,DS,EMPEROR-HFPEF-SITE002-0041,3,COMPLETED,COMPLETED,DISPOSITION EVENT,FOLLOW-UP,2025-03-15,408
EMPEROR-HFPEF,DS,EMPEROR-HFPEF-SITE002-0044,1,INFORMED CONSENT OBTAINED,INFORMED CONSENT OBTAINED,PROTOCOL MILESTONE,SCREENING,2024-04-02,-20
EMPEROR-HFPEF,DS,EMPEROR-HFPEF-SITE002-0044,2,RANDOMIZED,RANDOMIZED,PROTOCOL MILESTONE,TREATMENT,2024-04-22,1
EMPEROR-HFPEF,DS,EMPEROR-HFPEF-SITE002-0044,3,COMPLETED,COMPLETED,DISPOSITION EVENT,FOLLOW-UP,2025-06-03,408
EMPEROR-HFPEF,DS,EMPEROR-HFPEF-SITE002-0047,1,INFORMED CONSENT OBTAINED,INFORMED CONSENT OBTAINED,PROTOCOL MILESTONE,SCREENING,2024-02-22,-21
EMPEROR-HFPEF,DS,EMPEROR-HFPEF-SITE002-0047,2,RANDOMIZED,RANDOMIZED,PROTOCOL MILESTONE,TREATMENT,2024-03-14,1
EMPEROR-HFPEF,DS,EMPEROR-HFPEF-SITE002-0047,3,ADVERSE EVENT,ADVERSE EVENT,DISPOSITION EVENT,TREATMENT,2024-03-31,18
EMPEROR-HFPEF,DS,EMPEROR-HFPEF-SITE002-0050,1,INFORMED CONSENT OBTAINED,INFORMED CONSENT OBTAINED,PROTOCOL MILESTONE,SCREENING,2024-03-23,-13
EMPEROR-HFPEF,DS,EMPEROR-HFPEF-SITE002-0050,2,RANDOMIZED,RANDOMIZED,PROTOCOL MILESTONE,TREATMENT,2024-04-05,1
EMPEROR-HFPEF,DS,EMPEROR-HFPEF-SITE002-0050,3,COMPLETED,COMPLETED,DISPOSITION EVENT,FOLLOW-UP,2025-05-17,408
EMPEROR-HFPEF,DS,EMPEROR-HFPEF-SITE003-0003,1,INFORMED CONSENT OBTAINED,INFORMED CONSENT OBTAINED,PROTOCOL MILESTONE,SCREENING,2024-03-03,-29
EMPEROR-HFPEF,DS,EMPEROR-HFPEF-SITE003-0003,2,RANDOMIZED,RANDOMIZED,PROTOCOL MILESTONE,TREATMENT,2024-04-01,1
EMPEROR-HFPEF,DS,EMPEROR-HFPEF-SITE003-0003,3,COMPLETED,COMPLETED,DISPOSITION EVENT,FOLLOW-UP,2025-05-13,408
EMPEROR-HFPEF,DS,EMPEROR-HFPEF-SITE003-0006,1,INFORMED CONSENT OBTAINED,INFORMED CONSENT OBTAINED,PROTOCOL MILESTONE,SCREENING,2024-01-20,-21
EMPEROR-HFPEF,DS,EMPEROR-HFPEF-SITE003-0006,2,RANDOMIZED,RANDOMIZED,PROTOCOL MILESTONE,TREATMENT,2024-02-10,1
EMPEROR-HFPEF,DS,EMPEROR-HFPEF-SITE003-0006,3,PROTOCOL VIOLATION,PROTOCOL VIOLATION,DISPOSITION EVENT,TREATMENT,2024-03-18,38
EMPEROR-HFPEF,DS,EMPEROR-HFPEF-SITE003-0009,1,INFORMED CONSENT OBTAINED,INFORMED CONSENT OBTAINED,PROTOCOL MILESTONE,SCREENING,2024-01-17,-32
EMPEROR-HFPEF,DS,EMPEROR-HFPEF-SITE003-0009,2,RANDOMIZED,RANDOMIZED,PROTOCOL MILESTONE,TREATMENT,2024-02-18,1
EMPEROR-HFPEF,DS,EMPEROR-HFPEF-SITE003-0009,3,COMPLETED,COMPLETED,DISPOSITION EVENT,FOLLOW-UP,2025-03-31,408
EMPEROR-HFPEF,DS,EMPEROR-HFPEF-SITE003-0012,1,INFORMED CONSENT OBTAINED,INFORMED CONSENT OBTAINED,PROTOCOL MILESTONE,SCREENING,2024-01-20,-21
EMPEROR-HFPEF,DS,EMPEROR-HFPEF-SITE003-0012,2,RANDOMIZED,RANDOMIZED,PROTOCOL MILESTONE,TREATMENT,2024-02-10,1
EMPEROR-HFPEF,DS,EMPEROR-HFPEF-SITE003-0012,3,COMPLETED,COMPLETED,DISPOSITION EVENT,FOLLOW-UP,2025-03-23,408
EMPEROR-HFPEF,DS,EMPEROR-HFPEF-SITE003-0015,1,INFORMED CONSENT OBTAINED,INFORMED CONSENT OBTAINED,PROTOCOL MILESTONE,SCREENING,2024-03-30,-15
EMPEROR-HFPEF,DS,EMPEROR-HFPEF-SITE003-0015,2,RANDOMIZED,RANDOMIZED,PROTOCOL MILESTONE,TREATMENT,2024-04-14,1
EMPEROR-HFPEF,DS,EMPEROR-HFPEF-SITE003-0015,3,COMPLETED,COMPLETED,DISPOSITION EVENT,FOLLOW-UP,2025-05-26,408
EMPEROR-HFPEF,DS,EMPEROR-HFPEF-SITE003-0018,1,INFORMED CONSENT OBTAINED,INFORMED CONSENT OBTAINED,PROTOCOL MILESTONE,SCREENING,2024-01-27,-20
EMPEROR-HFPEF,DS,EMPEROR-HFPEF-SITE003-0018,2,RANDOMIZED,RANDOMIZED,PROTOCOL MILESTONE,TREATMENT,2024-02-16,1
EMPEROR-HFPEF,DS,EMPEROR-HFPEF-SITE003-0018,3,COMPLETED,COMPLETED,DISPOSITION EVENT,FOLLOW-UP,2025-03-29,408
EMPEROR-HFPEF,DS,EMPEROR-HFPEF-SITE003-0021,1,INFORMED CONSENT OBTAINED,INFORMED CONSENT OBTAINED,PROTOCOL MILESTONE,SCREENING,2024-02-26,-32
EMPEROR-HFPEF,DS,EMPEROR-HFPEF-SITE003-0021,2,RANDOMIZED,RANDOMIZED,PROTOCOL MILESTONE,TREATMENT,2024-03-29,1
EMPEROR-HFPEF,DS,EMPEROR-HFPEF-SITE003-0021,3,COMPLETED,COMPLETED,DISPOSITION EVENT,FOLLOW-UP,2025-05-10,408
EMPEROR-HFPEF,DS,EMPEROR-HFPEF-SITE003-0024,1,INFORMED CONSENT OBTAINED,INFORMED CONSENT OBTAINED,PROTOCOL MILESTONE,SCREENING,2024-01-30,-18
EMPEROR-HFPEF,DS,EMPEROR-HFPEF-SITE003-0024,2,RANDOMIZED,RANDOMIZED,PROTOCOL MILESTONE,TREATMENT,2024-02-17,1
EMPEROR-HFPEF,DS,EMPEROR-HFPEF-SITE003-0024,3,COMPLETED,COMPLETED,DISPOSITION EVENT,FOLLOW-UP,2025-03-30,408
EMPEROR-HFPEF,DS,EMPEROR-HFPEF-SITE003-0027,1,INFORMED CONSENT OBTAINED,INFORMED CONSENT OBTAINED,PROTOCOL MILESTONE,SCREENING,2024-02-28,-8
EMPEROR-HFPEF,DS,EMPEROR-HFPEF-SITE003-0027,2,RANDOMIZED,RANDOMIZED,PROTOCOL MILESTONE,TREATMENT,2024-03-07,1
EMPEROR-HFPEF,DS,EMPEROR-HFPEF-SITE003-0027,3,COMPLETED,COMPLETED,DISPOSITION EVENT,FOLLOW-UP,2025-04-18,408
EMPEROR-HFPEF,DS,EMPEROR-HFPEF-SITE003-0030,1,INFORMED CONSENT OBTAINED,INFORMED CONSENT OBTAINED,PROTOCOL MILESTONE,SCREENING,2024-02-16,-25
EMPEROR-HFPEF,DS,EMPEROR-HFPEF-SITE003-0030,2,RANDOMIZED,RANDOMIZED,PROTOCOL MILESTONE,TREATMENT,2024-03-12,1
EMPEROR-HFPEF,DS,EMPEROR-HFPEF-SITE003-0030,3,COMPLETED,COMPLETED,DISPOSITION EVENT,FOLLOW-UP,2025-04-23,408
EMPEROR-HFPEF,DS,EMPEROR-HFPEF-SITE003-0033,1,INFORMED CONSENT OBTAINED,INFORMED CONSENT OBTAINED,PROTOCOL MILESTONE,SCREENING,2024-02-08,-7
EMPEROR-HFPEF,DS,EMPEROR-HFPEF-SITE003-0033,2,RANDOMIZED,RANDOMIZED,PROTOCOL MILESTONE,TREATMENT,2024-02-15,1
EMPEROR-HFPEF,DS,EMPEROR-HFPEF-SITE003-0033,3,ADVERSE EVENT,ADVERSE EVENT,DISPOSITION EVENT,TREATMENT,2024-03-17,32
EMPEROR-HFPEF,DS,EMPEROR-HFPEF-SITE003-0036,1,INFORMED CONSENT OBTAINED,INFORMED CONSENT OBTAINED,PROTOCOL MILESTONE,SCREENING,2024-02-14,-7
EMPEROR-HFPEF,DS,EMPEROR-HFPEF-SITE003-0036,2,RANDOMIZED,RANDOMIZED,PROTOCOL MILESTONE,TREATMENT,2024-02-21,1
EMPEROR-HFPEF,DS,EMPEROR-HFPEF-SITE003-0036,3,ADVERSE EVENT,ADVERSE EVENT,DISPOSITION EVENT,TREATMENT,2024-09-04,197
EMPEROR-HFPEF,DS,EMPEROR-HFPEF-SITE003-0039,1,INFORMED CONSENT OBTAINED,INFORMED CONSENT OBTAINED,PROTOCOL MILESTONE,SCREENING,2024-03-16,-31
EMPEROR-HFPEF,DS,EMPEROR-HFPEF-SITE003-0039,2,RANDOMIZED,RANDOMIZED,PROTOCOL MILESTONE,TREATMENT,2024-04-16,1
EMPEROR-HFPEF,DS,EMPEROR-HFPEF-SITE003-0039,3,DEATH,DEATH,DISPOSITION EVENT,TREATMENT,2025-04-03,353
EMPEROR-HFPEF,DS,EMPEROR-HFPEF-SITE003-0042,1,INFORMED CONSENT OBTAINED,INFORMED CONSENT OBTAINED,PROTOCOL MILESTONE,SCREENING,2024-04-01,-9
EMPEROR-HFPEF,DS,EMPEROR-HFPEF-SITE003-0042,2,RANDOMIZED,RANDOMIZED,PROTOCOL MILESTONE,TREATMENT,2024-04-10,1
EMPEROR-HFPEF,DS,EMPEROR-HFPEF-SITE003-0042,3,ADVERSE EVENT,ADVERSE EVENT,DISPOSITION EVENT,TREATMENT,2024-08-26,139
EMPEROR-HFPEF,DS,EMPEROR-HFPEF-SITE003-0045,1,INFORMED CONSENT OBTAINED,INFORMED CONSENT OBTAINED,PROTOCOL MILESTONE,SCREENING,2024-04-01,-19
EMPEROR-HFPEF,DS,EMPEROR-HFPEF-SITE003-0045,2,RANDOMIZED,RANDOMIZED,PROTOCOL MILESTONE,TREATMENT,2024-04-20,1
EMPEROR-HFPEF,DS,EMPEROR-HFPEF-SITE003-0045,3,COMPLETED,COMPLETED,DISPOSITION EVENT,FOLLOW-UP,2025-06-01,408
EMPEROR-HFPEF,DS,EMPEROR-HFPEF-SITE003-0048,1,INFORMED CONSENT OBTAINED,INFORMED CONSENT OBTAINED,PROTOCOL MILESTONE,SCREENING,2024-01-17,-8
EMPEROR-HFPEF,DS,EMPEROR-HFPEF-SITE003-0048,2,RANDOMIZED,RANDOMIZED,PROTOCOL MILESTONE,TREATMENT,2024-01-25,1
EMPEROR-HFPEF,DS,EMPEROR-HFPEF-SITE003-0048,3,ADVERSE EVENT,ADVERSE EVENT,DISPOSITION EVENT,TREATMENT,2024-03-23,59
