STUDYID,DOMAIN,USUBJID,HOSEQ,HOTERM,HODECOD,HOCAT,EPOCH,HOSTDTC,HOENDTC,HOSTDY,HOENDY
EMPEROR-HFPEF,HO,EMPEROR-HFPEF-SITE001-0001,1,Fatigue,Fatigue,HOSPITALIZATION,TREATMENT,2024-04-01,2024-04-07,44,50
EMPEROR-HFPEF,HO,EMPEROR-HFPEF-SITE001-0001,2,Hypotension,Hypotension,EMERGENCY ROOM VISIT,TREATMENT,2024-07-24,2024-08-02,158,167
EMPEROR-HFPEF,HO,EMPEROR-HFPEF-SITE001-0004,1,Hypotension,Hypotension,HOSPITALIZATION,TREATMENT,2024-06-26,2024-06-29,83,86
EMPEROR-HFPEF,HO,EMPEROR-HFPEF-SITE001-0007,1,Headache,Headache,HOSPITALIZATION,TREATMENT,2024-02-29,2024-03-10,13,23
EMPEROR-HFPEF,HO,EMPEROR-HFPEF-SITE001-0007,2,Atrial fibrillation,Atrial fibrillation,HOSPITALIZATION,TREATMENT,2024-12-28,2025-01-09,316,328
EMPEROR-HFPEF,HO,EMPEROR-HFPEF-SITE001-0013,1,Urinary tract infection,Urinary tract infection,HOSPITALIZATION,TREATMENT,2024-05-23,2024-06-02,81,91
EMPEROR-HFPEF,HO,EMPEROR-HFPEF-SITE001-0013,2,Dizziness,Dizziness,HOSPITALIZATION,TREATMENT,2024-06-10,2024-06-19,99,108
EMPEROR-HFPEF,HO,EMPEROR-HFPEF-SITE001-0013,3,Headache,Headache,HOSPITALIZATION,TREATMENT,2024-07-27,2024-08-05,146,155
EMPEROR-HFPEF,HO,EMPEROR-HFPEF-SITE001-0013,4,Sepsis,Sepsis,EMERGENCY ROOM VISIT,TREATMENT,2024-11-17,2024-11-20,259,262
EMPEROR-HFPEF,HO,EMPEROR-HFPEF-SITE001-0022,1,Cardiac failure,Cardiac failure,EMERGENCY ROOM VISIT,TREATMENT,2024-06-05,2024-06-08,41,44
EMPEROR-HFPEF,HO,EMPEROR-HFPEF-SITE001-0022,2,Hypotension,Hypotension,HOSPITALIZATION,TREATMENT,2024-10-20,2024-11-01,178,190
EMPEROR-HFPEF,HO,EMPEROR-HFPEF-SITE001-0034,1,Headache,Headache,HOSPITALIZATION,TREATMENT,2024-05-13,2024-05-22,15,24
EMPEROR-HFPEF,HO,EMPEROR-HFPEF-SITE001-0034,2,Cardiac failure,Cardiac failure,HOSPITALIZATION,TREATMENT,2024-07-09,2024-07-20,72,83
EMPEROR-HFPEF,HO,EMPEROR-HFPEF-SITE001-0034,3,Blood creatinine increased,Blood creatinine increased,EMERGENCY ROOM VISIT,TREATMENT,2024-07-10,2024-07-22,73,85
EMPEROR-HFPEF,HO,EMPEROR-HFPEF-SITE001-0034,4,Urinary tract infection,Urinary tract infection,HOSPITALIZATION,TREATMENT,2024-08-04,2024-08-09,98,103
EMPEROR-HFPEF,HO,EMPEROR-HFPEF-SITE001-0034,5,Nausea,Nausea,HOSPITALIZATION,TREATMENT,2024-10-05,2024-10-18,160,173
EMPEROR-HFPEF,HO,EMPEROR-HFPEF-SITE001-0034,6,Cardiac failure,Cardiac failure,HOSPITALIZATION,TREATMENT,2024-12-07,2024-12-16,223,232
EMPEROR-HFPEF,HO,EMPEROR-HFPEF-SITE001-0040,1,Nausea,Nausea,EMERGENCY ROOM VISIT,TREATMENT,2024-07-31,2024-08-10,177,187
EMPEROR-HFPEF,HO,EMPEROR-HFPEF-SITE001-0040,2,Dehydration,Dehydration,EMERGENCY ROOM VISIT,TREATMENT,2024-12-12,2024-12-26,311,325
EMPEROR-HFPEF,HO,EMPEROR-HFPEF-SITE001-0040,3,Cardiac failure,Cardiac failure,HOSPITALIZATION,TREATMENT,2025-01-29,2025-02-01,359,362
EMPEROR-HFPEF,HO,EMPEROR-HFPEF-SITE001-0043,1,Cardiac failure,Cardiac failure,EMERGENCY ROOM VISIT,TREATMENT,2024-07-14,2024-07-27,83,96
EMPEROR-HFPEF,HO,EMPEROR-HFPEF-SITE001-0043,2,Acute kidney injury,Acute kidney injury,HOSPITALIZATION,TREATMENT,2024-12-10,2024-12-17,232,239
EMPEROR-HFPEF,HO,EMPEROR-HFPEF-SITE001-0046,1,Urinary tract infection,Urinary tract infection,HOSPITALIZATION,TREATMENT,2025-04-01,2025-04-06,340,345
EMPEROR-HFPEF,HO,EMPEROR-HFPEF-SITE002-0005,1,Hypotension,Hypotension,HOSPITALIZATION,TREATMENT,2024-06-17,2024-06-17,65,65
EMPEROR-HFPEF,HO,EMPEROR-HFPEF-SITE002-0008,1,Headache,Headache,HOSPITALIZATION,TREATMENT,2024-06-10,2024-06-15,75,80
EMPEROR-HFPEF,HO,EMPEROR-HFPEF-SITE002-0011,1,Headache,Headache,HOSPITALIZATION,TREATMENT,2024-11-09,2024-11-19,207,217
EMPEROR-HFPEF,HO,EMPEROR-HFPEF-SITE002-0011,2,Urinary tract infection,Urinary tract infection,HOSPITALIZATION,TREATMENT,2024-11-10,2024-11-25,208,223
EMPEROR-HFPEF,HO,EMPEROR-HFPEF-SITE002-0014,1,Urinary tract infection,Urinary tract infection,HOSPITALIZATION,TREATMENT,2024-05-15,2024-05-18,77,80
EMPEROR-HFPEF,HO,EMPEROR-HFPEF-SITE002-0014,2,Dehydration,Dehydration,HOSPITALIZATION,TREATMENT,2024-06-02,2024-06-12,95,105
EMPEROR-HFPEF,HO,EMPEROR-HFPEF-SITE002-0017,1,Genital infection fungal,Genital infection fungal,HOSPITALIZATION,TREATMENT,2024-08-18,2024-08-26,169,177
EMPEROR-HFPEF,HO,EMPEROR-HFPEF-SITE002-0023,1,Urinary tract infection,Urinary tract infection,HOSPITALIZATION,TREATMENT,2024-12-09,2024-12-19,303,313
EMPEROR-HFPEF,HO,EMPEROR-HFPEF-SITE002-0032,1,Hypoglycaemia,Hypoglycaemia,HOSPITALIZATION,TREATMENT,2024-07-05,2024-07-17,58,70
EMPEROR-HFPEF,HO,EMPEROR-HFPEF-SITE002-0032,2,Fatigue,Fatigue,HOSPITALIZATION,TREATMENT,2024-09-29,2024-10-04,144,149
EMPEROR-HFPEF,HO,EMPEROR-HFPEF-SITE002-0032,3,Urinary tract infection,Urinary tract infection,HOSPITALIZATION,TREATMENT,2024-12-28,2025-01-04,234,241
EMPEROR-HFPEF,HO,EMPEROR-HFPEF-SITE002-0032,4,Atrial fibrillation,Atrial fibrillation,HOSPITALIZATION,TREATMENT,2025-03-06,2025-03-17,302,313
EMPEROR-HFPEF,HO,EMPEROR-HFPEF-SITE002-0038,1,Cardiac failure,Cardiac failure,HOSPITALIZATION,TREATMENT,2024-11-08,2024-11-08,261,261
EMPEROR-HFPEF,HO,EMPEROR-HFPEF-SITE002-0041,1,Urinary tract infection,Urinary tract infection,HOSPITALIZATION,TREATMENT,2024-05-16,2024-05-19,105,108
EMPEROR-HFPEF,HO,EMPEROR-HFPEF-SITE002-0041,2,Fatigue,Fatigue,HOSPITALIZATION,TREATMENT,2024-07-22,2024-08-05,172,186
EMPEROR-HFPEF,HO,EMPEROR-HFPEF-SITE002-0044,1,Dizziness,Dizziness,HOSPITALIZATION,TREATMENT,2024-05-26,2024-06-05,35,45
EMPEROR-HFPEF,HO,EMPEROR-HFPEF-SITE002-0050,1,Hypotension,Hypotension,EMERGENCY ROOM VISIT,TREATMENT,2024-06-19,2024-06-25,76,82
EMPEROR-HFPEF,HO,EMPEROR-HFPEF-SITE003-0003,1,Dehydration,Dehydration,HOSPITALIZATION,TREATMENT,2024-06-24,2024-06-30,85,91
EMPEROR-HFPEF,HO,EMPEROR-HFPEF-SITE003-0009,1,Cardiac failure,Cardiac failure,HOSPITALIZATION,TREATMENT,2024-03-17,2024-03-29,29,41
EMPEROR-HFPEF,HO,EMPEROR-HFPEF-SITE003-0009,2,Fatigue,Fatigue,HOSPITALIZATION,TREATMENT,2024-03-20,2024-03-24,32,36
EMPEROR-HFPEF,HO,EMPEROR-HFPEF-SITE003-0009,3,Fatigue,Fatigue,HOSPITALIZATION,TREATMENT,2024-07-19,2024-07-30,153,164
EMPEROR-HFPEF,HO,EMPEROR-HFPEF-SITE003-0012,1,Genital infection fungal,Genital infection fungal,HOSPITALIZATION,TREATMENT,2024-10-30,2024-11-06,264,271
EMPEROR-HFPEF,HO,EMPEROR-HFPEF-SITE003-0021,1,Cytokine release syndrome,Cytokine release syndrome,EMERGENCY ROOM VISIT,TREATMENT,2024-08-11,2024-08-16,136,141
EMPEROR-HFPEF,HO,EMPEROR-HFPEF-SITE003-0021,2,Fatigue,Fatigue,HOSPITALIZATION,TREATMENT,2024-08-19,2024-08-22,144,147
EMPEROR-HFPEF,HO,EMPEROR-HFPEF-SITE003-0024,1,Genital infection fungal,Genital infection fungal,HOSPITALIZATION,TREATMENT,2024-11-13,2024-11-22,271,280
EMPEROR-HFPEF,HO,EMPEROR-HFPEF-SITE003-0027,1,Hypotension,Hypotension,EMERGENCY ROOM VISIT,TREATMENT,2024-09-30,2024-10-07,208,215
EMPEROR-HFPEF,HO,EMPEROR-HFPEF-SITE003-0030,1,Headache,Headache,EMERGENCY ROOM VISIT,TREATMENT,2024-10-02,2024-10-13,205,216
EMPEROR-HFPEF,HO,EMPEROR-HFPEF-SITE003-0030,2,Headache,Headache,HOSPITALIZATION,TREATMENT,2025-01-05,2025-01-13,300,308
EMPEROR-HFPEF,HO,EMPEROR-HFPEF-SITE003-0039,1,Headache,Headache,HOSPITALIZATION,TREATMENT,2024-06-29,2024-07-09,75,85
EMPEROR-HFPEF,HO,EMPEROR-HFPEF-SITE003-0039,2,Nausea,Nausea,HOSPITALIZATION,TREATMENT,2024-09-23,2024-09-30,161,168
EMPEROR-HFPEF,HO,EMPEROR-HFPEF-SITE003-0039,3,Cardiac failure,Cardiac failure,EMERGENCY ROOM VISIT,TREATMENT,2024-10-03,2024-10-14,171,182
EMPEROR-HFPEF,HO,EMPEROR-HFPEF-SITE003-0039,4,Fatigue,Fatigue,HOSPITALIZATION,TREATMENT,2025-03-03,2025-03-10,322,329
EMPEROR-HFPEF,HO,EMPEROR-HFPEF-SITE003-0039,5,Nausea,Nausea,HOSPITALIZATION,TREATMENT,2025-03-28,2025-04-03,347,353
EMPEROR-HFPEF,HO,EMPEROR-HFPEF-SITE003-0042,1,Atrial fibrillation,Atrial fibrillation,HOSPITALIZATION,TREATMENT,2024-05-22,2024-06-11,43,63
EMPEROR-HFPEF,HO,EMPEROR-HFPEF-SITE003-0045,1,Urinary tract infection,Urinary tract infection,HOSPITALIZATION,TREATMENT,2024-10-08,2024-10-19,172,183
EMPEROR-HFPEF,HO,EMPEROR-HFPEF-SITE003-0048,1,Urinary tract infection,Urinary tract infection,EMERGENCY ROOM VISIT,TREATMENT,2024-02-18,2024-02-29,25,36
