STUDYID,DOMAIN,USUBJID,SESEQ,ETCD,ELEMENT,EPOCH,SESTDTC,SEENDTC,SESTDY,SEENDY
EMPEROR-HFPEF,SE,EMPEROR-HFPEF-SITE001-0001,1,SCRN,Screening,SCREENING,2024-02-04,2024-02-18,-14,1
EMPEROR-HFPEF,SE,EMPEROR-HFPEF-SITE001-0001,2,TRT,Treatment,TREATMENT,2024-02-18,2025-02-16,1,365
EMPEROR-HFPEF,SE,EMPEROR-HFPEF-SITE001-0001,3,FU,Follow-up,FOLLOW-UP,2025-02-16,2025-03-17,365,394
EMPEROR-HFPEF,SE,EMPEROR-HFPEF-SITE001-0004,1,SCRN,Screening,SCREENING,2024-03-22,2024-04-05,-14,1
EMPEROR-HFPEF,SE,EMPEROR-HFPEF-SITE001-0004,2,TRT,Treatment,TREATMENT,2024-04-05,2025-04-04,1,365
EMPEROR-HFPEF,SE,EMPEROR-HFPEF-SITE001-0004,3,FU,Follow-up,FOLLOW-UP,2025-04-04,2025-05-03,365,394
EMPEROR-HFPEF,SE,EMPEROR-HFPEF-SITE001-0007,1,SCRN,Screening,SCREENING,2024-02-03,2024-02-17,-14,1
EMPEROR-HFPEF,SE,EMPEROR-HFPEF-SITE001-0007,2,TRT,Treatment,TREATMENT,2024-02-17,2025-02-15,1,365
EMPEROR-HFPEF,SE,EMPEROR-HFPEF-SITE001-0007,3,FU,Follow-up,FOLLOW-UP,2025-02-15,2025-03-16,365,394
EMPEROR-HFPEF,SE,EMPEROR-HFPEF-SITE001-0010,1,SCRN,Screening,SCREENING,2024-03-03,2024-03-17,-14,1
EMPEROR-HFPEF,SE,EMPEROR-HFPEF-SITE001-0010,2,TRT,Treatment,TREATMENT,2024-03-17,2024-03-29,1,13
EMPEROR-HFPEF,SE,EMPEROR-HFPEF-SITE001-0013,1,SCRN,Screening,SCREENING,2024-02-19,2024-03-04,-14,1
EMPEROR-HFPEF,SE,EMPEROR-HFPEF-SITE001-0013,2,TRT,Treatment,TREATMENT,2024-03-04,2025-03-03,1,365
EMPEROR-HFPEF,SE,EMPEROR-HFPEF-SITE001-0013,3,FU,Follow-up,FOLLOW-UP,2025-03-03,2025-04-01,365,394
EMPEROR-HFPEF,SE,EMPEROR-HFPEF-SITE001-0016,1,SCRN,Screening,SCREENING,2024-03-19,2024-04-02,-14,1
EMPEROR-HFPEF,SE,EMPEROR-HFPEF-SITE001-0016,2,TRT,Treatment,TREATMENT,2024-04-02,2025-04-01,1,365
EMPEROR-HFPEF,SE,EMPEROR-HFPEF-SITE001-0016,3,FU,Follow-up,FOLLOW-UP,2025-04-01,2025-04-30,365,394
EMPEROR-HFPEF,SE,EMPEROR-HFPEF-SITE001-0019,1,SCRN,Screening,SCREENING,2024-03-11,2024-03-25,-14,1
EMPEROR-HFPEF,SE,EMPEROR-HFPEF-SITE001-0019,2,TRT,Treatment,TREATMENT,2024-03-25,2025-03-24,1,365
EMPEROR-HFPEF,SE,EMPEROR-HFPEF-SITE001-0019,3,FU,Follow-up,FOLLOW-UP,2025-03-24,2025-04-22,365,394
EMPEROR-HFPEF,SE,EMPEROR-HFPEF-SITE001-0022,1,SCRN,Screening,SCREENING,2024-04-12,2024-04-26,-14,1
EMPEROR-HFPEF,SE,EMPEROR-HFPEF-SITE001-0022,2,TRT,Treatment,TREATMENT,2024-04-26,2025-04-25,1,365
EMPEROR-HFPEF,SE,EMPEROR-HFPEF-SITE001-0022,3,FU,Follow-up,FOLLOW-UP,2025-04-25,2025-05-24,365,394
EMPEROR-HFPEF,SE,EMPEROR-HFPEF-SITE001-0025,1,SCRN,Screening,SCREENING,2024-01-24,2024-02-07,-14,1
EMPEROR-HFPEF,SE,EMPEROR-HFPEF-SITE001-0025,2,TRT,Treatment,TREATMENT,2024-02-07,2025-02-05,1,365
EMPEROR-HFPEF,SE,EMPEROR-HFPEF-SITE001-0025,3,FU,Follow-up,FOLLOW-UP,2025-02-05,2025-03-06,365,394
EMPEROR-HFPEF,SE,EMPEROR-HFPEF-SITE001-0028,1,SCRN,Screening,SCREENING,2024-03-10,2024-03-24,-14,1
EMPEROR-HFPEF,SE,EMPEROR-HFPEF-SITE001-0028,2,TRT,Treatment,TREATMENT,2024-03-24,2025-03-23,1,365
EMPEROR-HFPEF,SE,EMPEROR-HFPEF-SITE001-0028,3,FU,Follow-up,FOLLOW-UP,2025-03-23,2025-04-21,365,394
EMPEROR-HFPEF,SE,EMPEROR-HFPEF-SITE001-0031,1,SCRN,Screening,SCREENING,2024-02-23,2024-03-08,-14,1
EMPEROR-HFPEF,SE,EMPEROR-HFPEF-SITE001-0031,2,TRT,Treatment,TREATMENT,2024-03-08,2025-03-07,1,365
EMPEROR-HFPEF,SE,EMPEROR-HFPEF-SITE001-0031,3,FU,Follow-up,FOLLOW-UP,2025-03-07,2025-04-05,365,394
EMPEROR-HFPEF,SE,EMPEROR-HFPEF-SITE001-0034,1,SCRN,Screening,SCREENING,2024-04-15,2024-04-29,-14,1
EMPEROR-HFPEF,SE,EMPEROR-HFPEF-SITE001-0034,2,TRT,Treatment,TREATMENT,2024-04-29,2025-04-28,1,365
EMPEROR-HFPEF,SE,EMPEROR-HFPEF-SITE001-0034,3,FU,Follow-up,FOLLOW-UP,2025-04-28,2025-05-27,365,394
EMPEROR-HFPEF,SE,EMPEROR-HFPEF-SITE001-0037,1,SCRN,Screening,SCREENING,2024-02-15,2024-02-29,-14,1
EMPEROR-HFPEF,SE,EMPEROR-HFPEF-SITE001-0037,2,TRT,Treatment,TREATMENT,2024-02-29,2025-02-27,1,365
EMPEROR-HFPEF,SE,EMPEROR-HFPEF-SITE001-0037,3,FU,Follow-up,FOLLOW-UP,2025-02-27,2025-03-28,365,394
EMPEROR-HFPEF,SE,EMPEROR-HFPEF-SITE001-0040,1,SCRN,Screening,SCREENING,2024-01-23,2024-02-06,-14,1
EMPEROR-HFPEF,SE,EMPEROR-HFPEF-SITE001-0040,2,TRT,Treatment,TREATMENT,2024-02-06,2025-02-04,1,365
EMPEROR-HFPEF,SE,EMPEROR-HFPEF-SITE001-0040,3,FU,Follow-up,FOLLOW-UP,2025-02-04,2025-03-05,365,394
EMPEROR-HFPEF,SE,EMPEROR-HFPEF-SITE001-0043,1,SCRN,Screening,SCREENING,2024-04-09,2024-04-23,-14,1
EMPEROR-HFPEF,SE,EMPEROR-HFPEF-SITE001-0043,2,TRT,Treatment,TREATMENT,2024-04-23,2025-04-22,1,365
EMPEROR-HFPEF,SE,EMPEROR-HFPEF-SITE001-0043,3,FU,Follow-up,FOLLOW-UP,2025-04-22,2025-05-21,365,394
EMPEROR-HFPEF,SE,EMPEROR-HFPEF-SITE001-0046,1,SCRN,Screening,SCREENING,2024-04-13,2024-04-27,-14,1
EMPEROR-HFPEF,SE,EMPEROR-HFPEF-SITE001-0046,2,TRT,Treatment,TREATMENT,2024-04-27,2025-04-26,1,365
EMPEROR-HFPEF,SE,EMPEROR-HFPEF-SITE001-0046,3,FU,Follow-up,FOLLOW-UP,2025-04-26,2025-05-25,365,394
EMPEROR-HFPEF,SE,EMPEROR-HFPEF-SITE001-0049,1,SCRN,Screening,SCREENING,2024-03-20,2024-04-03,-14,1
EMPEROR-HFPEF,SE,EMPEROR-HFPEF-SITE001-0049,2,TRT,Treatment,TREATMENT,2024-04-03,2024-05-10,1,38
EMPEROR-HFPEF,SE,EMPEROR-HFPEF-SITE002-0005,1,SCRN,Screening,SCREENING,2024-03-31,2024-04-14,-14,1
EMPEROR-HFPEF,SE,EMPEROR-HFPEF-SITE002-0005,2,TRT,Treatment,TREATMENT,2024-04-14,2024-06-17,1,65
EMPEROR-HFPEF,SE,EMPEROR-HFPEF-SITE002-0008,1,SCRN,Screening,SCREENING,2024-03-14,2024-03-28,-14,1
EMPEROR-HFPEF,SE,EMPEROR-HFPEF-SITE002-0008,2,TRT,Treatment,TREATMENT,2024-03-28,2024-11-05,1,223
EMPEROR-HFPEF,SE,EMPEROR-HFPEF-SITE002-0011,1,SCRN,Screening,SCREENING,2024-04-03,2024-04-17,-14,1
EMPEROR-HFPEF,SE,EMPEROR-HFPEF-SITE002-0011,2,TRT,Treatment,TREATMENT,2024-04-17,2025-04-16,1,365
EMPEROR-HFPEF,SE,EMPEROR-HFPEF-SITE002-0011,3,FU,Follow-up,FOLLOW-UP,2025-04-16,2025-05-15,365,394
EMPEROR-HFPEF,SE,EMPEROR-HFPEF-SITE002-0014,1,SCRN,Screening,SCREENING,2024-02-15,2024-02-29,-14,1
EMPEROR-HFPEF,SE,EMPEROR-HFPEF-SITE002-0014,2,TRT,Treatment,TREATMENT,2024-02-29,2025-02-27,1,365
EMPEROR-HFPEF,SE,EMPEROR-HFPEF-SITE002-0014,3,FU,Follow-up,FOLLOW-UP,2025-02-27,2025-03-28,365,394
EMPEROR-HFPEF,SE,EMPEROR-HFPEF-SITE002-0017,1,SCRN,Screening,SCREENING,2024-02-18,2024-03-03,-14,1
EMPEROR-HFPEF,SE,EMPEROR-HFPEF-SITE002-0017,2,TRT,Treatment,TREATMENT,2024-03-03,2025-03-02,1,365
EMPEROR-HFPEF,SE,EMPEROR-HFPEF-SITE002-0017,3,FU,Follow-up,FOLLOW-UP,2025-03-02,2025-03-31,365,394
EMPEROR-HFPEF,SE,EMPEROR-HFPEF-SITE002-0020,1,SCRN,Screening,SCREENING,2024-03-12,2024-03-26,-14,1
EMPEROR-HFPEF,SE,EMPEROR-HFPEF-SITE002-0020,2,TRT,Treatment,TREATMENT,2024-03-26,2025-03-25,1,365
EMPEROR-HFPEF,SE,EMPEROR-HFPEF-SITE002-0020,3,FU,Follow-up,FOLLOW-UP,2025-03-25,2025-04-23,365,394
EMPEROR-HFPEF,SE,EMPEROR-HFPEF-SITE002-0023,1,SCRN,Screening,SCREENING,2024-01-28,2024-02-11,-14,1
EMPEROR-HFPEF,SE,EMPEROR-HFPEF-SITE002-0023,2,TRT,Treatment,TREATMENT,2024-02-11,2025-02-09,1,365
EMPEROR-HFPEF,SE,EMPEROR-HFPEF-SITE002-0023,3,FU,Follow-up,FOLLOW-UP,2025-02-09,2025-03-10,365,394
EMPEROR-HFPEF,SE,EMPEROR-HFPEF-SITE002-0026,1,SCRN,Screening,SCREENING,2024-03-26,2024-04-09,-14,1
EMPEROR-HFPEF,SE,EMPEROR-HFPEF-SITE002-0026,2,TRT,Treatment,TREATMENT,2024-04-09,2024-04-13,1,5
EMPEROR-HFPEF,SE,EMPEROR-HFPEF-SITE002-0032,1,SCRN,Screening,SCREENING,2024-04-25,2024-05-09,-14,1
EMPEROR-HFPEF,SE,EMPEROR-HFPEF-SITE002-0032,2,TRT,Treatment,TREATMENT,2024-05-09,2025-05-08,1,365
EMPEROR-HFPEF,SE,EMPEROR-HFPEF-SITE002-0032,3,FU,Follow-up,FOLLOW-UP,2025-05-08,2025-06-06,365,394
EMPEROR-HFPEF,SE,EMPEROR-HFPEF-SITE002-0035,1,SCRN,Screening,SCREENING,2024-03-30,2024-04-13,-14,1
EMPEROR-HFPEF,SE,EMPEROR-HFPEF-SITE002-0035,2,TRT,Treatment,TREATMENT,2024-04-13,2025-04-12,1,365
EMPEROR-HFPEF,SE,EMPEROR-HFPEF-SITE002-0035,3,FU,Follow-up,FOLLOW-UP,2025-04-12,2025-05-11,365,394
EMPEROR-HFPEF,SE,EMPEROR-HFPEF-SITE002-0038,1,SCRN,Screening,SCREENING,2024-02-08,2024-02-22,-14,1
EMPEROR-HFPEF,SE,EMPEROR-HFPEF-SITE002-0038,2,TRT,Treatment,TREATMENT,2024-02-22,2024-11-08,1,261
EMPEROR-HFPEF,SE,EMPEROR-HFPEF-SITE002-0041,1,SCRN,Screening,SCREENING,2024-01-19,2024-02-02,-14,1
EMPEROR-HFPEF,SE,EMPEROR-HFPEF-SITE002-0041,2,TRT,Treatment,TREATMENT,2024-02-02,2025-01-31,1,365
EMPEROR-HFPEF,SE,EMPEROR-HFPEF-SITE002-0041,3,FU,Follow-up,FOLLOW-UP,2025-01-31,2025-03-01,365,394
EMPEROR-HFPEF,SE,EMPEROR-HFPEF-SITE002-0044,1,SCRN,Screening,SCREENING,2024-04-08,2024-04-22,-14,1
EMPEROR-HFPEF,SE,EMPEROR-HFPEF-SITE002-0044,2,TRT,Treatment,TREATMENT,2024-04-22,2025-04-21,1,365
EMPEROR-HFPEF,SE,EMPEROR-HFPEF-SITE002-0044,3,FU,Follow-up,FOLLOW-UP,2025-04-21,2025-05-20,365,394
EMPEROR-HFPEF,SE,EMPEROR-HFPEF-SITE002-0047,1,SCRN,Screening,SCREENING,2024-02-29,2024-03-14,-14,1
EMPEROR-HFPEF,SE,EMPEROR-HFPEF-SITE002-0047,2,TRT,Treatment,TREATMENT,2024-03-14,2024-03-31,1,18
EMPEROR-HFPEF,SE,EMPEROR-HFPEF-SITE002-0050,1,SCRN,Screening,SCREENING,2024-03-22,2024-04-05,-14,1
EMPEROR-HFPEF,SE,EMPEROR-HFPEF-SITE002-0050,2,TRT,Treatment,TREATMENT,2024-04-05,2025-04-04,1,365
EMPEROR-HFPEF,SE,EMPEROR-HFPEF-SITE002-0050,3,FU,Follow-up,FOLLOW-UP,2025-04-04,2025-05-03,365,394
EMPEROR-HFPEF,SE,EMPEROR-HFPEF-SITE003-0003,1,SCRN,Screening,SCREENING,2024-03-18,2024-04-01,-14,1
EMPEROR-HFPEF,SE,EMPEROR-HFPEF-SITE003-0003,2,TRT,Treatment,TREATMENT,2024-04-01,2025-03-31,1,365
EMPEROR-HFPEF,SE,EMPEROR-HFPEF-SITE003-0003,3,FU,Follow-up,FOLLOW-UP,2025-03-31,2025-04-29,365,394
EMPEROR-HFPEF,SE,EMPEROR-HFPEF-SITE003-0006,1,SCRN,Screening,SCREENING,2024-01-27,2024-02-10,-14,1
EMPEROR-HFPEF,SE,EMPEROR-HFPEF-SITE003-0006,2,TRT,Treatment,TREATMENT,2024-02-10,2024-03-18,1,38
EMPEROR-HFPEF,SE,EMPEROR-HFPEF-SITE003-0009,1,SCRN,Screening,SCREENING,2024-02-04,2024-02-18,-14,1
EMPEROR-HFPEF,SE,EMPEROR-HFPEF-SITE003-0009,2,TRT,Treatment,TREATMENT,2024-02-18,2025-02-16,1,365
EMPEROR-HFPEF,SE,EMPEROR-HFPEF-SITE003-0009,3,FU,Follow-up,FOLLOW-UP,2025-02-16,2025-03-17,365,394
EMPEROR-HFPEF,SE,EMPEROR-HFPEF-SITE003-0012,1,SCRN,Screening,SCREENING,2024-01-27,2024-02-10,-14,1
EMPEROR-HFPEF,SE,EMPEROR-HFPEF-SITE003-0012,2,TRT,Treatment,TREATMENT,2024-02-10,2025-02-08,1,365
EMPEROR-HFPEF,SE,EMPEROR-HFPEF-SITE003-0012,3,FU,Follow-up,FOLLOW-UP,2025-02-08,2025-03-09,365,394
EMPEROR-HFPEF,SE,EMPEROR-HFPEF-SITE003-0015,1,SCRN,Screening,SCREENING,2024-03-31,2024-04-14,-14,1
EMPEROR-HFPEF,SE,EMPEROR-HFPEF-SITE003-0015,2,TRT,Treatment,TREATMENT,2024-04-14,2025-04-13,1,365
EMPEROR-HFPEF,SE,EMPEROR-HFPEF-SITE003-0015,3,FU,Follow-up,FOLLOW-UP,2025-04-13,2025-05-12,365,394
EMPEROR-HFPEF,SE,EMPEROR-HFPEF-SITE003-0018,1,SCRN,Screening,SCREENING,2024-02-02,2024-02-16,-14,1
EMPEROR-HFPEF,SE,EMPEROR-HFPEF-SITE003-0018,2,TRT,Treatment,TREATMENT,2024-02-16,2025-02-14,1,365
EMPEROR-HFPEF,SE,EMPEROR-HFPEF-SITE003-0018,3,FU,Follow-up,FOLLOW-UP,2025-02-14,2025-03-15,365,394
EMPEROR-HFPEF,SE,EMPEROR-HFPEF-SITE003-0021,1,SCRN,Screening,SCREENING,2024-03-15,2024-03-29,-14,1
EMPEROR-HFPEF,SE,EMPEROR-HFPEF-SITE003-0021,2,TRT,Treatment,TREATMENT,2024-03-29,2025-03-28,1,365
EMPEROR-HFPEF,SE,EMPEROR-HFPEF-SITE003-0021,3,FU,Follow-up,FOLLOW-UP,2025-03-28,2025-04-26,365,394
EMPEROR-HFPEF,SE,EMPEROR-HFPEF-SITE003-0024,1,SCRN,Screening,SCREENING,2024-02-03,2024-02-17,-14,1
EMPEROR-HFPEF,SE,EMPEROR-HFPEF-SITE003-0024,2,TRT,Treatment,TREATMENT,2024-02-17,2025-02-15,1,365
EMPEROR-HFPEF,SE,EMPEROR-HFPEF-SITE003-0024,3,FU,Follow-up,FOLLOW-UP,2025-02-15,2025-03-16,365,394
EMPEROR-HFPEF,SE,EMPEROR-HFPEF-SITE003-0027,1,SCRN,Screening,SCREENING,2024-02-22,2024-03-07,-14,1
EMPEROR-HFPEF,SE,EMPEROR-HFPEF-SITE003-0027,2,TRT,Treatment,TREATMENT,2024-03-07,2025-03-06,1,365
EMPEROR-HFPEF,SE,EMPEROR-HFPEF-SITE003-0027,3,FU,Follow-up,FOLLOW-UP,2025-03-06,2025-04-04,365,394
EMPEROR-HFPEF,SE,EMPEROR-HFPEF-SITE003-0030,1,SCRN,Screening,SCREENING,2024-02-27,2024-03-12,-14,1
EMPEROR-HFPEF,SE,EMPEROR-HFPEF-SITE003-0030,2,TRT,Treatment,TREATMENT,2024-03-12,2025-03-11,1,365
EMPEROR-HFPEF,SE,EMPEROR-HFPEF-SITE003-0030,3,FU,Follow-up,FOLLOW-UP,2025-03-11,2025-04-09,365,394
EMPEROR-HFPEF,SE,EMPEROR-HFPEF-SITE003-0033,1,SCRN,Screening,SCREENING,2024-02-01,2024-02-15,-14,1
EMPEROR-HFPEF,SE,EMPEROR-HFPEF-SITE003-0033,2,TRT,Treatment,TREATMENT,2024-02-15,2024-03-17,1,32
EMPEROR-HFPEF,SE,EMPEROR-HFPEF-SITE003-0036,1,SCRN,Screening,SCREENING,2024-02-07,2024-02-21,-14,1
EMPEROR-HFPEF,SE,EMPEROR-HFPEF-SITE003-0036,2,TRT,Treatment,TREATMENT,2024-02-21,2024-09-04,1,197
EMPEROR-HFPEF,SE,EMPEROR-HFPEF-SITE003-0039,1,SCRN,Screening,SCREENING,2024-04-02,2024-04-16,-14,1
EMPEROR-HFPEF,SE,EMPEROR-HFPEF-SITE003-0039,2,TRT,Treatment,TREATMENT,2024-04-16,2025-04-03,1,353
EMPEROR-HFPEF,SE,EMPEROR-HFPEF-SITE003-0042,1,SCRN,Screening,SCREENING,2024-03-27,2024-04-10,-14,1
EMPEROR-HFPEF,SE,EMPEROR-HFPEF-SITE003-0042,2,TRT,Treatment,TREATMENT,2024-04-10,2024-08-26,1,139
EMPEROR-HFPEF,SE,EMPEROR-HFPEF-SITE003-0045,1,SCRN,Screening,SCREENING,2024-04-06,2024-04-20,-14,1
EMPEROR-HFPEF,SE,EMPEROR-HFPEF-SITE003-0045,2,TRT,Treatment,TREATMENT,2024-04-20,2025-04-19,1,365
EMPEROR-HFPEF,SE,EMPEROR-HFPEF-SITE003-0045,3,FU,Follow-up,FOLLOW-UP,2025-04-19,2025-05-18,365,394
EMPEROR-HFPEF,SE,EMPEROR-HFPEF-SITE003-0048,1,SCRN,Screening,SCREENING,2024-01-11,2024-01-25,-14,1
EMPEROR-HFPEF,SE,EMPEROR-HFPEF-SITE003-0048,2,TRT,Treatment,TREATMENT,2024-01-25,2024-03-23,1,59
