{
  "generator_version": "2.0",
  "sdtmig_version": "3.4",
  "generated_at": "2026-06-16T11:15:04.919790+00:00",
  "study_id": "TERPSIS-MDD-201",
  "protocol_name": "psychiatry_mdd",
  "seed": 1,
  "subjects": {
    "total_generated": 50,
    "enrolled": 43,
    "screen_failures": 7,
    "completed": 38,
    "deaths": 0,
    "total_adverse_events": 116
  },
  "arms": [
    {
      "armcd": "PSI25",
      "arm": "Psilocybin 25mg",
      "type": "",
      "n_randomized": 12,
      "n_completed": 10,
      "n_discontinued": 2,
      "discontinuation_reasons": {
        "LOST TO FOLLOW-UP": 1,
        "ADVERSE EVENT": 1
      },
      "mean_exposure_days": 60.2,
      "total_aes": 27,
      "ae_rate_per_subject": 2.2,
      "subjects_with_ae": 9,
      "serious_ae_count": 5
    },
    {
      "armcd": "PSI10",
      "arm": "Psilocybin 10mg",
      "type": "",
      "n_randomized": 17,
      "n_completed": 16,
      "n_discontinued": 1,
      "discontinuation_reasons": {
        "ADVERSE EVENT": 1
      },
      "mean_exposure_days": 53.8,
      "total_aes": 53,
      "ae_rate_per_subject": 3.1,
      "subjects_with_ae": 15,
      "serious_ae_count": 14
    },
    {
      "armcd": "PSI1",
      "arm": "Psilocybin 1mg (Control)",
      "type": "",
      "n_randomized": 14,
      "n_completed": 12,
      "n_discontinued": 2,
      "discontinuation_reasons": {
        "ADVERSE EVENT": 2
      },
      "mean_exposure_days": 50.5,
      "total_aes": 36,
      "ae_rate_per_subject": 2.6,
      "subjects_with_ae": 13,
      "serious_ae_count": 8
    }
  ],
  "sites": [
    {
      "siteid": "SITE001",
      "n_subjects": 17,
      "n_enrolled": 16,
      "n_screen_failures": 1,
      "country": "USA",
      "investigator": "Dr. Robert Chen",
      "n_completed": 15,
      "n_deaths": 0
    },
    {
      "siteid": "SITE002",
      "n_subjects": 17,
      "n_enrolled": 11,
      "n_screen_failures": 6,
      "country": "USA",
      "investigator": "Dr. Maria Santos",
      "n_completed": 8,
      "n_deaths": 0
    },
    {
      "siteid": "SITE003",
      "n_subjects": 16,
      "n_enrolled": 16,
      "n_screen_failures": 0,
      "country": "USA",
      "investigator": "Dr. James Wilson",
      "n_completed": 15,
      "n_deaths": 0
    }
  ],
  "domains": {
    "AE": {
      "record_count": 116,
      "variable_count": 35,
      "file": "ae.csv",
      "variables": [
        "STUDYID",
        "DOMAIN",
        "USUBJID",
        "AESEQ",
        "AELNKID",
        "AETERM",
        "AELLT",
        "AELLTCD",
        "AEDECOD",
        "AEPTCD",
        "AEHLT",
        "AEHLTCD",
        "AEHLGT",
        "AEHLGTCD",
        "AEBODSYS",
        "AEBDSYCD",
        "AESOC",
        "AESOCCD",
        "AESEV",
        "AESER",
        "AEACN",
        "AEREL",
        "AEOUT",
        "AESCONG",
        "AESDISAB",
        "AESDTH",
        "AESHOSP",
        "AESLIFE",
        "AESMIE",
        "EPOCH",
        "AESTDTC",
        "AEENDTC",
        "AESTDY",
        "AEENDY",
        "AEENRF"
      ]
    },
    "CM": {
      "record_count": 98,
      "variable_count": 17,
      "file": "cm.csv",
      "variables": [
        "STUDYID",
        "DOMAIN",
        "USUBJID",
        "CMSEQ",
        "CMTRT",
        "CMDECOD",
        "CMCAT",
        "CMINDC",
        "CMDOSE",
        "CMDOSU",
        "CMDOSFRQ",
        "CMROUTE",
        "EPOCH",
        "CMSTDTC",
        "CMENDTC",
        "CMSTDY",
        "CMENDY"
      ]
    },
    "DA": {
      "record_count": 7107,
      "variable_count": 16,
      "file": "da.csv",
      "variables": [
        "STUDYID",
        "DOMAIN",
        "USUBJID",
        "DASEQ",
        "DATESTCD",
        "DATEST",
        "DAORRES",
        "DAORRESU",
        "DASTRESC",
        "DASTRESN",
        "DASTRESU",
        "VISITNUM",
        "VISIT",
        "EPOCH",
        "DADTC",
        "DADY"
      ]
    },
    "DM": {
      "record_count": 50,
      "variable_count": 27,
      "file": "dm.csv",
      "variables": [
        "STUDYID",
        "DOMAIN",
        "USUBJID",
        "SUBJID",
        "RFSTDTC",
        "RFENDTC",
        "RFXSTDTC",
        "RFXENDTC",
        "RFICDTC",
        "RFPENDTC",
        "DTHDTC",
        "DTHFL",
        "SITEID",
        "INVNAM",
        "BRTHDTC",
        "AGE",
        "AGEU",
        "SEX",
        "RACE",
        "ETHNIC",
        "ARMCD",
        "ARM",
        "ACTARMCD",
        "ACTARM",
        "ARMNRS",
        "ACTARMUD",
        "COUNTRY"
      ]
    },
    "DS": {
      "record_count": 143,
      "variable_count": 10,
      "file": "ds.csv",
      "variables": [
        "STUDYID",
        "DOMAIN",
        "USUBJID",
        "DSSEQ",
        "DSTERM",
        "DSDECOD",
        "DSCAT",
        "EPOCH",
        "DSSTDTC",
        "DSSTDY"
      ]
    },
    "DV": {
      "record_count": 201,
      "variable_count": 11,
      "file": "dv.csv",
      "variables": [
        "STUDYID",
        "DOMAIN",
        "USUBJID",
        "DVSEQ",
        "DVTERM",
        "DVDECOD",
        "DVCAT",
        "DVSCAT",
        "EPOCH",
        "DVSTDTC",
        "DVSTDY"
      ]
    },
    "EC": {
      "record_count": 2369,
      "variable_count": 23,
      "file": "ec.csv",
      "variables": [
        "STUDYID",
        "DOMAIN",
        "USUBJID",
        "ECSEQ",
        "ECTRT",
        "ECPRESP",
        "ECOCCUR",
        "ECDOSE",
        "ECDOSTXT",
        "ECDOSU",
        "ECDOSFRM",
        "ECDOSFRQ",
        "ECROUTE",
        "ECMOOD",
        "ECSTAT",
        "ECREASND",
        "EPOCH",
        "ECSTDTC",
        "ECENDTC",
        "ECSTDY",
        "ECENDY",
        "VISITNUM",
        "VISIT"
      ]
    },
    "EX": {
      "record_count": 52,
      "variable_count": 15,
      "file": "ex.csv",
      "variables": [
        "STUDYID",
        "DOMAIN",
        "USUBJID",
        "EXSEQ",
        "EXTRT",
        "EXDOSE",
        "EXDOSU",
        "EXDOSFRM",
        "EXDOSFRQ",
        "EXROUTE",
        "EPOCH",
        "EXSTDTC",
        "EXENDTC",
        "EXSTDY",
        "EXENDY"
      ]
    },
    "HO": {
      "record_count": 17,
      "variable_count": 12,
      "file": "ho.csv",
      "variables": [
        "STUDYID",
        "DOMAIN",
        "USUBJID",
        "HOSEQ",
        "HOTERM",
        "HODECOD",
        "HOCAT",
        "EPOCH",
        "HOSTDTC",
        "HOENDTC",
        "HOSTDY",
        "HOENDY"
      ]
    },
    "IE": {
      "record_count": 7,
      "variable_count": 14,
      "file": "ie.csv",
      "variables": [
        "STUDYID",
        "DOMAIN",
        "USUBJID",
        "IESEQ",
        "IETESTCD",
        "IETEST",
        "IECAT",
        "IEORRES",
        "IESTRESC",
        "VISITNUM",
        "VISIT",
        "EPOCH",
        "IEDTC",
        "IEDY"
      ]
    },
    "LB": {
      "record_count": 1848,
      "variable_count": 25,
      "file": "lb.csv",
      "variables": [
        "STUDYID",
        "DOMAIN",
        "USUBJID",
        "LBSEQ",
        "LBTESTCD",
        "LBTEST",
        "LBCAT",
        "LBORRES",
        "LBORRESU",
        "LBORNRLO",
        "LBORNRHI",
        "LBSTRESC",
        "LBSTRESN",
        "LBSTRESU",
        "LBSTNRLO",
        "LBSTNRHI",
        "LBNRIND",
        "LBSTAT",
        "LBLOBXFL",
        "LBBLFL",
        "VISITNUM",
        "VISIT",
        "EPOCH",
        "LBDTC",
        "LBDY"
      ]
    },
    "MH": {
      "record_count": 110,
      "variable_count": 15,
      "file": "mh.csv",
      "variables": [
        "STUDYID",
        "DOMAIN",
        "USUBJID",
        "MHSEQ",
        "MHTERM",
        "MHDECOD",
        "MHCAT",
        "MHSCAT",
        "MHBODSYS",
        "EPOCH",
        "MHSTDTC",
        "MHENDTC",
        "MHSTDY",
        "MHENDY",
        "MHENRF"
      ]
    },
    "PE": {
      "record_count": 860,
      "variable_count": 13,
      "file": "pe.csv",
      "variables": [
        "STUDYID",
        "DOMAIN",
        "USUBJID",
        "PESEQ",
        "PETESTCD",
        "PETEST",
        "PEORRES",
        "PESTRESC",
        "VISITNUM",
        "VISIT",
        "EPOCH",
        "PEDTC",
        "PEDY"
      ]
    },
    "QS": {
      "record_count": 946,
      "variable_count": 19,
      "file": "qs.csv",
      "variables": [
        "STUDYID",
        "DOMAIN",
        "USUBJID",
        "QSSEQ",
        "QSTESTCD",
        "QSTEST",
        "QSCAT",
        "QSSCAT",
        "QSORRES",
        "QSSTRESC",
        "QSSTRESN",
        "QSSTAT",
        "QSLOBXFL",
        "QSBLFL",
        "VISITNUM",
        "VISIT",
        "EPOCH",
        "QSDTC",
        "QSDY"
      ]
    },
    "RELREC": {
      "record_count": 90,
      "variable_count": 7,
      "file": "relrec.csv",
      "variables": [
        "STUDYID",
        "RDOMAIN",
        "USUBJID",
        "IDVAR",
        "IDVARVAL",
        "RELTYPE",
        "RELID"
      ]
    },
    "SC": {
      "record_count": 185,
      "variable_count": 13,
      "file": "sc.csv",
      "variables": [
        "STUDYID",
        "DOMAIN",
        "USUBJID",
        "SCSEQ",
        "SCTESTCD",
        "SCTEST",
        "SCCAT",
        "SCORRES",
        "SCSTRESC",
        "SCSTRESN",
        "SCSTRESU",
        "SCDTC",
        "SCDY"
      ]
    },
    "SE": {
      "record_count": 124,
      "variable_count": 11,
      "file": "se.csv",
      "variables": [
        "STUDYID",
        "DOMAIN",
        "USUBJID",
        "SESEQ",
        "ETCD",
        "ELEMENT",
        "EPOCH",
        "SESTDTC",
        "SEENDTC",
        "SESTDY",
        "SEENDY"
      ]
    },
    "SS": {
      "record_count": 43,
      "variable_count": 14,
      "file": "ss.csv",
      "variables": [
        "STUDYID",
        "DOMAIN",
        "USUBJID",
        "SSSEQ",
        "SSTESTCD",
        "SSTEST",
        "SSCAT",
        "SSORRES",
        "SSSTRESC",
        "VISITNUM",
        "VISIT",
        "EPOCH",
        "SSDTC",
        "SSDY"
      ]
    },
    "SU": {
      "record_count": 129,
      "variable_count": 18,
      "file": "su.csv",
      "variables": [
        "STUDYID",
        "DOMAIN",
        "USUBJID",
        "SUSEQ",
        "SUTRT",
        "SUDECOD",
        "SUCAT",
        "SUSCAT",
        "SUOCCUR",
        "SUSTAT",
        "SUDOSE",
        "SUDOSU",
        "SUDOSFRQ",
        "EPOCH",
        "SUSTDTC",
        "SUENDTC",
        "SUSTDY",
        "SUENDY"
      ]
    },
    "SV": {
      "record_count": 299,
      "variable_count": 13,
      "file": "sv.csv",
      "variables": [
        "STUDYID",
        "DOMAIN",
        "USUBJID",
        "SVSEQ",
        "VISITNUM",
        "VISIT",
        "SVPRESP",
        "SVOCCUR",
        "EPOCH",
        "SVSTDTC",
        "SVENDTC",
        "SVSTDY",
        "SVENDY"
      ]
    },
    "TA": {
      "record_count": 9,
      "variable_count": 10,
      "file": "ta.csv",
      "variables": [
        "STUDYID",
        "DOMAIN",
        "ARMCD",
        "ARM",
        "TAETORD",
        "ETCD",
        "ELEMENT",
        "TABRANCH",
        "TATRANS",
        "EPOCH"
      ]
    },
    "TE": {
      "record_count": 3,
      "variable_count": 7,
      "file": "te.csv",
      "variables": [
        "STUDYID",
        "DOMAIN",
        "ETCD",
        "ELEMENT",
        "TESTRL",
        "TEENRL",
        "TEDUR"
      ]
    },
    "TI": {
      "record_count": 10,
      "variable_count": 8,
      "file": "ti.csv",
      "variables": [
        "STUDYID",
        "DOMAIN",
        "IETESTCD",
        "IETEST",
        "IECAT",
        "IESCAT",
        "TIRL",
        "TIVERS"
      ]
    },
    "TS": {
      "record_count": 44,
      "variable_count": 11,
      "file": "ts.csv",
      "variables": [
        "STUDYID",
        "DOMAIN",
        "TSSEQ",
        "TSGRPID",
        "TSPARMCD",
        "TSPARM",
        "TSVAL",
        "TSVALNF",
        "TSVALCD",
        "TSVCDREF",
        "TSVCDVER"
      ]
    },
    "TV": {
      "record_count": 21,
      "variable_count": 9,
      "file": "tv.csv",
      "variables": [
        "STUDYID",
        "DOMAIN",
        "VISITNUM",
        "VISIT",
        "VISITDY",
        "ARMCD",
        "ARM",
        "TVSTRL",
        "TVENRL"
      ]
    },
    "VS": {
      "record_count": 2038,
      "variable_count": 19,
      "file": "vs.csv",
      "variables": [
        "STUDYID",
        "DOMAIN",
        "USUBJID",
        "VSSEQ",
        "VSTESTCD",
        "VSTEST",
        "VSORRES",
        "VSORRESU",
        "VSSTRESC",
        "VSSTRESN",
        "VSSTRESU",
        "VSSTAT",
        "VSLOBXFL",
        "VSBLFL",
        "VISITNUM",
        "VISIT",
        "EPOCH",
        "VSDTC",
        "VSDY"
      ]
    }
  },
  "disposition_flow": {
    "nodes": [
      "SCREENED",
      "ENROLLED",
      "SCREEN FAILURE",
      "COMPLETED",
      "ADVERSE EVENT",
      "LOST TO FOLLOW-UP"
    ],
    "links": [
      {
        "source": "SCREENED",
        "target": "ENROLLED",
        "value": 43
      },
      {
        "source": "SCREENED",
        "target": "SCREEN FAILURE",
        "value": 7
      },
      {
        "source": "ENROLLED",
        "target": "COMPLETED",
        "value": 38
      },
      {
        "source": "ENROLLED",
        "target": "ADVERSE EVENT",
        "value": 4
      },
      {
        "source": "ENROLLED",
        "target": "LOST TO FOLLOW-UP",
        "value": 1
      }
    ]
  },
  "config_snapshot": {
    "study_id": "TERPSIS-MDD-201",
    "phase": "2",
    "n_subjects_default": 240,
    "demographics": {
      "age_min": 18,
      "age_max": 75,
      "sex_distribution": {
        "M": 0.5,
        "F": 0.5
      },
      "race_distribution": {
        "WHITE": 0.65,
        "BLACK OR AFRICAN AMERICAN": 0.15,
        "ASIAN": 0.1,
        "OTHER": 0.1
      }
    },
    "enabled_domains": [
      "DM",
      "AE",
      "DS",
      "EX",
      "EC",
      "CM",
      "MH",
      "SE",
      "SV",
      "VS",
      "LB",
      "IE",
      "PE",
      "DA",
      "DD",
      "HO",
      "DV",
      "SC",
      "SU",
      "SS",
      "QS"
    ]
  }
}