{"subject_id":"COVID-THER-301-SITE001-0481","study_id":"COVID-THER-301","generated_at":"2026-06-12T05:15:36.592655+00:00","sdtmig_version":"3.4","flags":{"has_serious_ae":false,"has_fatal_ae":false,"has_protocol_deviation":true,"n_protocol_deviations":2,"n_adverse_events":0,"n_concomitant_meds":2,"max_ae_severity":null,"screen_failure":false,"discontinued_early":false,"discontinuation_reason":null,"death":false,"exposure_days":1},"timeline":[{"dtc":"2015-03-18","dy":"-3303","event":"CM START: LISINOPRIL","domain":"CM","category":"concomitant_med"},{"dtc":"2024-03-15","dy":"-18","event":"INFORMED CONSENT OBTAINED","domain":"DS","category":"milestone"},{"dtc":"2024-04-02","dy":"1","event":"RANDOMIZED","domain":"DS","category":"milestone"},{"dtc":"2024-04-02","dy":"1","event":"FIRST DOSE: PLACEBO","domain":"EX","category":"exposure"},{"dtc":"2024-04-02","dy":"1","event":"VISIT: BASELINE","domain":"SV","category":"visit"},{"dtc":"2024-04-04","dy":"3","event":"VISIT: DAY 3","domain":"SV","category":"visit"},{"dtc":"2024-04-06","dy":"5","event":"VISIT: DAY 5","domain":"SV","category":"visit"},{"dtc":"2024-04-14","dy":"13","event":"DEVIATION: VISIT OCCURRED OUTSIDE VISIT WINDOW","domain":"DV","category":"deviation"},{"dtc":"2024-04-14","dy":"13","event":"VISIT: DAY 14","domain":"SV","category":"visit"},{"dtc":"2024-04-30","dy":"29","event":"COMPLETED","domain":"DS","category":"milestone"},{"dtc":"2024-04-30","dy":"29","event":"DEVIATION: MISSED ASSESSMENT","domain":"DV","category":"deviation"},{"dtc":"2024-04-30","dy":"29","event":"VISIT: DAY 28","domain":"SV","category":"visit"},{"dtc":"2024-04-30","dy":"29","event":"CM START: OMEPRAZOLE","domain":"CM","category":"concomitant_med"}],"section_1_demographics":{"usubjid":"COVID-THER-301-SITE001-0481","subjid":"0481","siteid":"SITE001","age":"40","ageu":"YEARS","sex":"M","race":"WHITE","ethnicity":"NOT HISPANIC OR LATINO","country":"USA","arm":"Placebo","armcd":"PBO","actarm":"Placebo","actarmcd":"PBO","randomization_date":null,"informed_consent_date":"2024-03-15","reference_start_date":"2024-04-02","reference_end_date":"2024-04-30","screen_failure":false,"death_flag":null,"death_date":null,"subject_characteristics":[{"testcd":"ALCUSE","test":"Alcohol Use","orres":"CURRENT DRINKER","stresc":"CURRENT DRINKER","visit":null,"dtc":"2024-03-15"},{"testcd":"BMI","test":"Body Mass Index","orres":"22.9","stresc":"22.9","visit":null,"dtc":"2024-03-15"},{"testcd":"DURDIS","test":"Duration of Disease","orres":"109 months","stresc":"109","visit":null,"dtc":"2024-03-15"},{"testcd":"TOBPKYR","test":"Tobacco Pack-Years","orres":"21","stresc":"21","visit":null,"dtc":"2024-03-15"},{"testcd":"TOBUSE","test":"Tobacco Use","orres":"FORMER SMOKER","stresc":"FORMER SMOKER","visit":null,"dtc":"2024-03-15"}]},"section_2_medical_history":{"items":[{"seq":"1","term":"DEPRESSION","decod":"DEPRESSION","cat":"PSYCHIATRIC","scat":null,"presp":null,"occur":null,"status":null,"onset_dtc":"2022-03","end_dtc":"2023-08-12","visit":null},{"seq":"2","term":"HYPERLIPIDEMIA","decod":"HYPERLIPIDEMIA","cat":"METABOLIC","scat":null,"presp":null,"occur":null,"status":null,"onset_dtc":"2017-03-17","end_dtc":"2020-02-11","visit":null},{"seq":"3","term":"HYPERTENSION","decod":"HYPERTENSION","cat":"CARDIOVASCULAR","scat":null,"presp":null,"occur":null,"status":null,"onset_dtc":"2015-03-18","end_dtc":null,"visit":null}]},"section_3_inclusion_exclusion":{"criteria":[]},"section_4_trial_participation":{"visits":[{"visitnum":"1.0","visit":"BASELINE","start_dtc":"2024-04-02","end_dtc":"2024-04-02","updes":null},{"visitnum":"2.0","visit":"DAY 3","start_dtc":"2024-04-04","end_dtc":"2024-04-04","updes":null},{"visitnum":"3.0","visit":"DAY 5","start_dtc":"2024-04-06","end_dtc":"2024-04-06","updes":null},{"visitnum":"4.0","visit":"DAY 14","start_dtc":"2024-04-14","end_dtc":"2024-04-14","updes":null},{"visitnum":"5.0","visit":"DAY 28","start_dtc":"2024-04-30","end_dtc":"2024-04-30","updes":null}],"epochs":[{"seq":"1","etcd":"SCRN","element":"Screening","start_dtc":"2024-04-01","end_dtc":"2024-04-02","updes":null},{"seq":"2","etcd":"TRT","element":"Treatment","start_dtc":"2024-04-02","end_dtc":"2024-04-07","updes":null},{"seq":"3","etcd":"FU","element":"Follow-up","start_dtc":"2024-04-07","end_dtc":"2024-04-29","updes":null}],"visit_count":5},"section_5_concomitant_medications":{"medications":[{"seq":"1","trt":"LISINOPRIL","decod":"LISINOPRIL","cat":"PRIOR","dose":"10","doseu":null,"dosef":"QD","route":"ORAL","indication":"HYPERTENSION","start_dtc":"2015-03-18","end_dtc":"2024-04-30","ongoing":null,"visit":null},{"seq":"2","trt":"OMEPRAZOLE","decod":"OMEPRAZOLE","cat":"CONCOMITANT","dose":null,"doseu":null,"dosef":"QD","route":"ORAL","indication":null,"start_dtc":"2024-04-30","end_dtc":"2024-04-30","ongoing":null,"visit":null}]},"section_6_exposure":{"exposure_as_administered":[{"seq":"1","trt":"PLACEBO","dose":"0.0","doseu":null,"dosef":"BID","route":"ORAL","lot":null,"start_dtc":"2024-04-02","end_dtc":"2024-04-03","start_dy":"1","end_dy":"2","epoch":"TREATMENT","visit":null}],"exposure_as_collected":[{"seq":"1","trt":"PLACEBO","dose":null,"doseu":null,"dosef":"BID","route":"ORAL","start_dtc":"2024-04-02","end_dtc":"2024-04-02","visit":"BASELINE"},{"seq":"2","trt":"PLACEBO","dose":null,"doseu":null,"dosef":"BID","route":"ORAL","start_dtc":"2024-04-02","end_dtc":"2024-04-02","visit":"BASELINE"},{"seq":"3","trt":"PLACEBO","dose":null,"doseu":null,"dosef":"BID","route":"ORAL","start_dtc":"2024-04-03","end_dtc":"2024-04-03","visit":"BASELINE"},{"seq":"4","trt":"PLACEBO","dose":null,"doseu":null,"dosef":"BID","route":"ORAL","start_dtc":"2024-04-03","end_dtc":"2024-04-03","visit":"BASELINE"}]},"section_7_adverse_events":{"summary":{"total_aes":0,"serious_aes":0,"fatal_aes":0,"by_severity":{},"by_soc":{}},"events":[]},"section_8_laboratory_results":{"summary":{"total_records":28,"abnormal_count":0,"abnormal_pct":0.0},"shift_summary":[{"testcd":"ALT","baseline_value":25.04,"baseline_nrind":"NORMAL","worst_post_baseline_value":27.63,"worst_post_baseline_nrind":"NORMAL","worst_visit":"DAY 5"},{"testcd":"AST","baseline_value":34.23,"baseline_nrind":"NORMAL","worst_post_baseline_value":35.28,"worst_post_baseline_nrind":"NORMAL","worst_visit":"DAY 3"},{"testcd":"CREAT","baseline_value":81.79,"baseline_nrind":"NORMAL","worst_post_baseline_value":81.79,"worst_post_baseline_nrind":"NORMAL","worst_visit":"DAY 3"},{"testcd":"GLUC","baseline_value":5.11,"baseline_nrind":"NORMAL","worst_post_baseline_value":5.03,"worst_post_baseline_nrind":"NORMAL","worst_visit":"DAY 3"},{"testcd":"HGB","baseline_value":139.88,"baseline_nrind":"NORMAL","worst_post_baseline_value":140.01,"worst_post_baseline_nrind":"NORMAL","worst_visit":"DAY 28"},{"testcd":"PLAT","baseline_value":212.27,"baseline_nrind":"NORMAL","worst_post_baseline_value":220.72,"worst_post_baseline_nrind":"NORMAL","worst_visit":"DAY 3"},{"testcd":"WBC","baseline_value":4.19,"baseline_nrind":"NORMAL","worst_post_baseline_value":5.23,"worst_post_baseline_nrind":"NORMAL","worst_visit":"DAY 5"}],"results":[{"seq":"1","testcd":"ALT","test":"Alanine Aminotransferase","cat":"CHEMISTRY","orres":"25.04","orresu":"U/L","stresc":"25.04","stresn":"25.04","stresu":"U/L","stnrlo":"7","stnrhi":"56","nrind":"NORMAL","fast":null,"dtc":"2024-04-02","dy":"1","visit":"BASELINE","visitnum":"1.0","epoch":"TREATMENT","spec":null,"method":null},{"seq":"2","testcd":"AST","test":"Aspartate Aminotransferase","cat":"CHEMISTRY","orres":"34.23","orresu":"U/L","stresc":"34.23","stresn":"34.23","stresu":"U/L","stnrlo":"10","stnrhi":"40","nrind":"NORMAL","fast":null,"dtc":"2024-04-02","dy":"1","visit":"BASELINE","visitnum":"1.0","epoch":"TREATMENT","spec":null,"method":null},{"seq":"3","testcd":"CREAT","test":"Creatinine","cat":"CHEMISTRY","orres":null,"orresu":null,"stresc":null,"stresn":null,"stresu":null,"stnrlo":null,"stnrhi":null,"nrind":null,"fast":null,"dtc":"2024-04-02","dy":"1","visit":"BASELINE","visitnum":"1.0","epoch":"TREATMENT","spec":null,"method":null},{"seq":"4","testcd":"GLUC","test":"Glucose","cat":"CHEMISTRY","orres":"5.11","orresu":"mmol/L","stresc":"5.11","stresn":"5.11","stresu":"mmol/L","stnrlo":"3.9","stnrhi":"5.6","nrind":"NORMAL","fast":null,"dtc":"2024-04-02","dy":"1","visit":"BASELINE","visitnum":"1.0","epoch":"TREATMENT","spec":null,"method":null},{"seq":"5","testcd":"HGB","test":"Hemoglobin","cat":"HEMATOLOGY","orres":"139.88","orresu":"g/L","stresc":"139.88","stresn":"139.88","stresu":"g/L","stnrlo":"130","stnrhi":"175","nrind":"NORMAL","fast":null,"dtc":"2024-04-02","dy":"1","visit":"BASELINE","visitnum":"1.0","epoch":"TREATMENT","spec":null,"method":null},{"seq":"6","testcd":"PLAT","test":"Platelets","cat":"HEMATOLOGY","orres":"212.27","orresu":"10^9/L","stresc":"212.27","stresn":"212.27","stresu":"10^9/L","stnrlo":"150","stnrhi":"400","nrind":"NORMAL","fast":null,"dtc":"2024-04-02","dy":"1","visit":"BASELINE","visitnum":"1.0","epoch":"TREATMENT","spec":null,"method":null},{"seq":"7","testcd":"WBC","test":"Leukocytes","cat":"HEMATOLOGY","orres":"4.19","orresu":"10^9/L","stresc":"4.19","stresn":"4.19","stresu":"10^9/L","stnrlo":"4.0","stnrhi":"11.0","nrind":"NORMAL","fast":null,"dtc":"2024-04-02","dy":"1","visit":"BASELINE","visitnum":"1.0","epoch":"TREATMENT","spec":null,"method":null},{"seq":"8","testcd":"ALT","test":"Alanine Aminotransferase","cat":"CHEMISTRY","orres":"25.92","orresu":"U/L","stresc":"25.92","stresn":"25.92","stresu":"U/L","stnrlo":"7","stnrhi":"56","nrind":"NORMAL","fast":null,"dtc":"2024-04-04","dy":"3","visit":"DAY 3","visitnum":"2.0","epoch":"TREATMENT","spec":null,"method":null},{"seq":"9","testcd":"AST","test":"Aspartate Aminotransferase","cat":"CHEMISTRY","orres":"35.28","orresu":"U/L","stresc":"35.28","stresn":"35.28","stresu":"U/L","stnrlo":"10","stnrhi":"40","nrind":"NORMAL","fast":null,"dtc":"2024-04-04","dy":"3","visit":"DAY 3","visitnum":"2.0","epoch":"TREATMENT","spec":null,"method":null},{"seq":"10","testcd":"CREAT","test":"Creatinine","cat":"CHEMISTRY","orres":"81.79","orresu":"umol/L","stresc":"81.79","stresn":"81.79","stresu":"umol/L","stnrlo":"62","stnrhi":"106","nrind":"NORMAL","fast":null,"dtc":"2024-04-04","dy":"3","visit":"DAY 3","visitnum":"2.0","epoch":"TREATMENT","spec":null,"method":null},{"seq":"11","testcd":"GLUC","test":"Glucose","cat":"CHEMISTRY","orres":"5.03","orresu":"mmol/L","stresc":"5.03","stresn":"5.03","stresu":"mmol/L","stnrlo":"3.9","stnrhi":"5.6","nrind":"NORMAL","fast":null,"dtc":"2024-04-04","dy":"3","visit":"DAY 3","visitnum":"2.0","epoch":"TREATMENT","spec":null,"method":null},{"seq":"12","testcd":"HGB","test":"Hemoglobin","cat":"HEMATOLOGY","orres":"140.4","orresu":"g/L","stresc":"140.4","stresn":"140.4","stresu":"g/L","stnrlo":"130","stnrhi":"175","nrind":"NORMAL","fast":null,"dtc":"2024-04-04","dy":"3","visit":"DAY 3","visitnum":"2.0","epoch":"TREATMENT","spec":null,"method":null},{"seq":"13","testcd":"PLAT","test":"Platelets","cat":"HEMATOLOGY","orres":"220.72","orresu":"10^9/L","stresc":"220.72","stresn":"220.72","stresu":"10^9/L","stnrlo":"150","stnrhi":"400","nrind":"NORMAL","fast":null,"dtc":"2024-04-04","dy":"3","visit":"DAY 3","visitnum":"2.0","epoch":"TREATMENT","spec":null,"method":null},{"seq":"14","testcd":"WBC","test":"Leukocytes","cat":"HEMATOLOGY","orres":"5.05","orresu":"10^9/L","stresc":"5.05","stresn":"5.05","stresu":"10^9/L","stnrlo":"4.0","stnrhi":"11.0","nrind":"NORMAL","fast":null,"dtc":"2024-04-04","dy":"3","visit":"DAY 3","visitnum":"2.0","epoch":"TREATMENT","spec":null,"method":null},{"seq":"15","testcd":"ALT","test":"Alanine Aminotransferase","cat":"CHEMISTRY","orres":"27.63","orresu":"U/L","stresc":"27.63","stresn":"27.63","stresu":"U/L","stnrlo":"7","stnrhi":"56","nrind":"NORMAL","fast":null,"dtc":"2024-04-06","dy":"5","visit":"DAY 5","visitnum":"3.0","epoch":"TREATMENT","spec":null,"method":null},{"seq":"16","testcd":"AST","test":"Aspartate Aminotransferase","cat":"CHEMISTRY","orres":"33.02","orresu":"U/L","stresc":"33.02","stresn":"33.02","stresu":"U/L","stnrlo":"10","stnrhi":"40","nrind":"NORMAL","fast":null,"dtc":"2024-04-06","dy":"5","visit":"DAY 5","visitnum":"3.0","epoch":"TREATMENT","spec":null,"method":null},{"seq":"17","testcd":"CREAT","test":"Creatinine","cat":"CHEMISTRY","orres":"79.17","orresu":"umol/L","stresc":"79.17","stresn":"79.17","stresu":"umol/L","stnrlo":"62","stnrhi":"106","nrind":"NORMAL","fast":null,"dtc":"2024-04-06","dy":"5","visit":"DAY 5","visitnum":"3.0","epoch":"TREATMENT","spec":null,"method":null},{"seq":"18","testcd":"GLUC","test":"Glucose","cat":"CHEMISTRY","orres":"4.91","orresu":"mmol/L","stresc":"4.91","stresn":"4.91","stresu":"mmol/L","stnrlo":"3.9","stnrhi":"5.6","nrind":"NORMAL","fast":null,"dtc":"2024-04-06","dy":"5","visit":"DAY 5","visitnum":"3.0","epoch":"TREATMENT","spec":null,"method":null},{"seq":"19","testcd":"HGB","test":"Hemoglobin","cat":"HEMATOLOGY","orres":"140.06","orresu":"g/L","stresc":"140.06","stresn":"140.06","stresu":"g/L","stnrlo":"130","stnrhi":"175","nrind":"NORMAL","fast":null,"dtc":"2024-04-06","dy":"5","visit":"DAY 5","visitnum":"3.0","epoch":"TREATMENT","spec":null,"method":null},{"seq":"20","testcd":"PLAT","test":"Platelets","cat":"HEMATOLOGY","orres":"209.72","orresu":"10^9/L","stresc":"209.72","stresn":"209.72","stresu":"10^9/L","stnrlo":"150","stnrhi":"400","nrind":"NORMAL","fast":null,"dtc":"2024-04-06","dy":"5","visit":"DAY 5","visitnum":"3.0","epoch":"TREATMENT","spec":null,"method":null},{"seq":"21","testcd":"WBC","test":"Leukocytes","cat":"HEMATOLOGY","orres":"5.23","orresu":"10^9/L","stresc":"5.23","stresn":"5.23","stresu":"10^9/L","stnrlo":"4.0","stnrhi":"11.0","nrind":"NORMAL","fast":null,"dtc":"2024-04-06","dy":"5","visit":"DAY 5","visitnum":"3.0","epoch":"TREATMENT","spec":null,"method":null},{"seq":"22","testcd":"ALT","test":"Alanine Aminotransferase","cat":"CHEMISTRY","orres":"26.19","orresu":"U/L","stresc":"26.19","stresn":"26.19","stresu":"U/L","stnrlo":"7","stnrhi":"56","nrind":"NORMAL","fast":null,"dtc":"2024-04-30","dy":"29","visit":"DAY 28","visitnum":"5.0","epoch":"FOLLOW-UP","spec":null,"method":null},{"seq":"23","testcd":"AST","test":"Aspartate Aminotransferase","cat":"CHEMISTRY","orres":"31.06","orresu":"U/L","stresc":"31.06","stresn":"31.06","stresu":"U/L","stnrlo":"10","stnrhi":"40","nrind":"NORMAL","fast":null,"dtc":"2024-04-30","dy":"29","visit":"DAY 28","visitnum":"5.0","epoch":"FOLLOW-UP","spec":null,"method":null},{"seq":"24","testcd":"CREAT","test":"Creatinine","cat":"CHEMISTRY","orres":"77.54","orresu":"umol/L","stresc":"77.54","stresn":"77.54","stresu":"umol/L","stnrlo":"62","stnrhi":"106","nrind":"NORMAL","fast":null,"dtc":"2024-04-30","dy":"29","visit":"DAY 28","visitnum":"5.0","epoch":"FOLLOW-UP","spec":null,"method":null},{"seq":"25","testcd":"GLUC","test":"Glucose","cat":"CHEMISTRY","orres":"4.94","orresu":"mmol/L","stresc":"4.94","stresn":"4.94","stresu":"mmol/L","stnrlo":"3.9","stnrhi":"5.6","nrind":"NORMAL","fast":null,"dtc":"2024-04-30","dy":"29","visit":"DAY 28","visitnum":"5.0","epoch":"FOLLOW-UP","spec":null,"method":null},{"seq":"26","testcd":"HGB","test":"Hemoglobin","cat":"HEMATOLOGY","orres":"140.01","orresu":"g/L","stresc":"140.01","stresn":"140.01","stresu":"g/L","stnrlo":"130","stnrhi":"175","nrind":"NORMAL","fast":null,"dtc":"2024-04-30","dy":"29","visit":"DAY 28","visitnum":"5.0","epoch":"FOLLOW-UP","spec":null,"method":null},{"seq":"27","testcd":"PLAT","test":"Platelets","cat":"HEMATOLOGY","orres":"185.65","orresu":"10^9/L","stresc":"185.65","stresn":"185.65","stresu":"10^9/L","stnrlo":"150","stnrhi":"400","nrind":"NORMAL","fast":null,"dtc":"2024-04-30","dy":"29","visit":"DAY 28","visitnum":"5.0","epoch":"FOLLOW-UP","spec":null,"method":null},{"seq":"28","testcd":"WBC","test":"Leukocytes","cat":"HEMATOLOGY","orres":"4.27","orresu":"10^9/L","stresc":"4.27","stresn":"4.27","stresu":"10^9/L","stnrlo":"4.0","stnrhi":"11.0","nrind":"NORMAL","fast":null,"dtc":"2024-04-30","dy":"29","visit":"DAY 28","visitnum":"5.0","epoch":"FOLLOW-UP","spec":null,"method":null}]},"section_9_vital_signs":{"summary":{"total_records":40},"trends":{"BMI":[{"visit":"BASELINE","visitnum":"1.0","dtc":"2024-04-02","value":"22.9","unit":"kg/m2"},{"visit":"DAY 3","visitnum":"2.0","dtc":"2024-04-04","value":"23.9","unit":"kg/m2"},{"visit":"DAY 5","visitnum":"3.0","dtc":"2024-04-06","value":"23.5","unit":"kg/m2"},{"visit":"DAY 14","visitnum":"4.0","dtc":"2024-04-14","value":"23.1","unit":"kg/m2"},{"visit":"DAY 28","visitnum":"5.0","dtc":"2024-04-30","value":"23.0","unit":"kg/m2"}],"DIABP":[{"visit":"BASELINE","visitnum":"1.0","dtc":"2024-04-02","value":"78.2","unit":"mmHg"},{"visit":"DAY 5","visitnum":"3.0","dtc":"2024-04-06","value":"78.7","unit":"mmHg"},{"visit":"DAY 14","visitnum":"4.0","dtc":"2024-04-14","value":"79.4","unit":"mmHg"},{"visit":"DAY 28","visitnum":"5.0","dtc":"2024-04-30","value":"78.5","unit":"mmHg"}],"HEIGHT":[{"visit":"BASELINE","visitnum":"1.0","dtc":"2024-04-02","value":"170.8","unit":"cm"},{"visit":"DAY 3","visitnum":"2.0","dtc":"2024-04-04","value":"170.3","unit":"cm"},{"visit":"DAY 5","visitnum":"3.0","dtc":"2024-04-06","value":"170.6","unit":"cm"},{"visit":"DAY 14","visitnum":"4.0","dtc":"2024-04-14","value":"171.9","unit":"cm"},{"visit":"DAY 28","visitnum":"5.0","dtc":"2024-04-30","value":"171.8","unit":"cm"}],"PULSE":[{"visit":"BASELINE","visitnum":"1.0","dtc":"2024-04-02","value":"55.8","unit":"beats/min"},{"visit":"DAY 3","visitnum":"2.0","dtc":"2024-04-04","value":"66.3","unit":"beats/min"},{"visit":"DAY 5","visitnum":"3.0","dtc":"2024-04-06","value":"62.5","unit":"beats/min"},{"visit":"DAY 14","visitnum":"4.0","dtc":"2024-04-14","value":"59.8","unit":"beats/min"},{"visit":"DAY 28","visitnum":"5.0","dtc":"2024-04-30","value":"58.0","unit":"beats/min"}],"RESP":[{"visit":"BASELINE","visitnum":"1.0","dtc":"2024-04-02","value":"18.8","unit":"breaths/min"},{"visit":"DAY 3","visitnum":"2.0","dtc":"2024-04-04","value":"18.5","unit":"breaths/min"},{"visit":"DAY 5","visitnum":"3.0","dtc":"2024-04-06","value":"19.5","unit":"breaths/min"},{"visit":"DAY 14","visitnum":"4.0","dtc":"2024-04-14","value":"21.3","unit":"breaths/min"},{"visit":"DAY 28","visitnum":"5.0","dtc":"2024-04-30","value":"20.2","unit":"breaths/min"}],"SYSBP":[{"visit":"BASELINE","visitnum":"1.0","dtc":"2024-04-02","value":"148.4","unit":"mmHg"},{"visit":"DAY 3","visitnum":"2.0","dtc":"2024-04-04","value":"148.8","unit":"mmHg"},{"visit":"DAY 5","visitnum":"3.0","dtc":"2024-04-06","value":"148.9","unit":"mmHg"},{"visit":"DAY 14","visitnum":"4.0","dtc":"2024-04-14","value":"150.6","unit":"mmHg"}],"TEMP":[{"visit":"BASELINE","visitnum":"1.0","dtc":"2024-04-02","value":"36.0","unit":"C"},{"visit":"DAY 3","visitnum":"2.0","dtc":"2024-04-04","value":"36.1","unit":"C"},{"visit":"DAY 5","visitnum":"3.0","dtc":"2024-04-06","value":"36.2","unit":"C"},{"visit":"DAY 14","visitnum":"4.0","dtc":"2024-04-14","value":"36.1","unit":"C"},{"visit":"DAY 28","visitnum":"5.0","dtc":"2024-04-30","value":"36.2","unit":"C"}],"WEIGHT":[{"visit":"BASELINE","visitnum":"1.0","dtc":"2024-04-02","value":"66.8","unit":"kg"},{"visit":"DAY 3","visitnum":"2.0","dtc":"2024-04-04","value":"69.3","unit":"kg"},{"visit":"DAY 5","visitnum":"3.0","dtc":"2024-04-06","value":"68.4","unit":"kg"},{"visit":"DAY 14","visitnum":"4.0","dtc":"2024-04-14","value":"68.3","unit":"kg"},{"visit":"DAY 28","visitnum":"5.0","dtc":"2024-04-30","value":"67.8","unit":"kg"}]},"results":[{"seq":"1","testcd":"BMI","test":"BMI","cat":null,"orres":"22.9","orresu":"kg/m2","stresc":"22.9","stresn":"22.9","stresu":"kg/m2","stnrlo":null,"stnrhi":null,"nrind":null,"pos":null,"loc":null,"dtc":"2024-04-02","dy":"1","visit":"BASELINE","visitnum":"1.0","epoch":"TREATMENT"},{"seq":"2","testcd":"DIABP","test":"Diastolic Blood Pressure","cat":null,"orres":"78.2","orresu":"mmHg","stresc":"78.2","stresn":"78.2","stresu":"mmHg","stnrlo":null,"stnrhi":null,"nrind":null,"pos":null,"loc":null,"dtc":"2024-04-02","dy":"1","visit":"BASELINE","visitnum":"1.0","epoch":"TREATMENT"},{"seq":"3","testcd":"HEIGHT","test":"Height","cat":null,"orres":"170.8","orresu":"cm","stresc":"170.8","stresn":"170.8","stresu":"cm","stnrlo":null,"stnrhi":null,"nrind":null,"pos":null,"loc":null,"dtc":"2024-04-02","dy":"1","visit":"BASELINE","visitnum":"1.0","epoch":"TREATMENT"},{"seq":"4","testcd":"PULSE","test":"Pulse Rate","cat":null,"orres":"55.8","orresu":"beats/min","stresc":"55.8","stresn":"55.8","stresu":"beats/min","stnrlo":null,"stnrhi":null,"nrind":null,"pos":null,"loc":null,"dtc":"2024-04-02","dy":"1","visit":"BASELINE","visitnum":"1.0","epoch":"TREATMENT"},{"seq":"5","testcd":"RESP","test":"Respiratory Rate","cat":null,"orres":"18.8","orresu":"breaths/min","stresc":"18.8","stresn":"18.8","stresu":"breaths/min","stnrlo":null,"stnrhi":null,"nrind":null,"pos":null,"loc":null,"dtc":"2024-04-02","dy":"1","visit":"BASELINE","visitnum":"1.0","epoch":"TREATMENT"},{"seq":"6","testcd":"SYSBP","test":"Systolic Blood Pressure","cat":null,"orres":"148.4","orresu":"mmHg","stresc":"148.4","stresn":"148.4","stresu":"mmHg","stnrlo":null,"stnrhi":null,"nrind":null,"pos":null,"loc":null,"dtc":"2024-04-02","dy":"1","visit":"BASELINE","visitnum":"1.0","epoch":"TREATMENT"},{"seq":"7","testcd":"TEMP","test":"Temperature","cat":null,"orres":"36.0","orresu":"C","stresc":"36.0","stresn":"36.0","stresu":"C","stnrlo":null,"stnrhi":null,"nrind":null,"pos":null,"loc":null,"dtc":"2024-04-02","dy":"1","visit":"BASELINE","visitnum":"1.0","epoch":"TREATMENT"},{"seq":"8","testcd":"WEIGHT","test":"Weight","cat":null,"orres":"66.8","orresu":"kg","stresc":"66.8","stresn":"66.8","stresu":"kg","stnrlo":null,"stnrhi":null,"nrind":null,"pos":null,"loc":null,"dtc":"2024-04-02","dy":"1","visit":"BASELINE","visitnum":"1.0","epoch":"TREATMENT"},{"seq":"9","testcd":"BMI","test":"BMI","cat":null,"orres":"23.9","orresu":"kg/m2","stresc":"23.9","stresn":"23.9","stresu":"kg/m2","stnrlo":null,"stnrhi":null,"nrind":null,"pos":null,"loc":null,"dtc":"2024-04-04","dy":"3","visit":"DAY 3","visitnum":"2.0","epoch":"TREATMENT"},{"seq":"10","testcd":"DIABP","test":"Diastolic Blood Pressure","cat":null,"orres":null,"orresu":null,"stresc":null,"stresn":null,"stresu":null,"stnrlo":null,"stnrhi":null,"nrind":null,"pos":null,"loc":null,"dtc":"2024-04-04","dy":"3","visit":"DAY 3","visitnum":"2.0","epoch":"TREATMENT"},{"seq":"11","testcd":"HEIGHT","test":"Height","cat":null,"orres":"170.3","orresu":"cm","stresc":"170.3","stresn":"170.3","stresu":"cm","stnrlo":null,"stnrhi":null,"nrind":null,"pos":null,"loc":null,"dtc":"2024-04-04","dy":"3","visit":"DAY 3","visitnum":"2.0","epoch":"TREATMENT"},{"seq":"12","testcd":"PULSE","test":"Pulse Rate","cat":null,"orres":"66.3","orresu":"beats/min","stresc":"66.3","stresn":"66.3","stresu":"beats/min","stnrlo":null,"stnrhi":null,"nrind":null,"pos":null,"loc":null,"dtc":"2024-04-04","dy":"3","visit":"DAY 3","visitnum":"2.0","epoch":"TREATMENT"},{"seq":"13","testcd":"RESP","test":"Respiratory Rate","cat":null,"orres":"18.5","orresu":"breaths/min","stresc":"18.5","stresn":"18.5","stresu":"breaths/min","stnrlo":null,"stnrhi":null,"nrind":null,"pos":null,"loc":null,"dtc":"2024-04-04","dy":"3","visit":"DAY 3","visitnum":"2.0","epoch":"TREATMENT"},{"seq":"14","testcd":"SYSBP","test":"Systolic Blood Pressure","cat":null,"orres":"148.8","orresu":"mmHg","stresc":"148.8","stresn":"148.8","stresu":"mmHg","stnrlo":null,"stnrhi":null,"nrind":null,"pos":null,"loc":null,"dtc":"2024-04-04","dy":"3","visit":"DAY 3","visitnum":"2.0","epoch":"TREATMENT"},{"seq":"15","testcd":"TEMP","test":"Temperature","cat":null,"orres":"36.1","orresu":"C","stresc":"36.1","stresn":"36.1","stresu":"C","stnrlo":null,"stnrhi":null,"nrind":null,"pos":null,"loc":null,"dtc":"2024-04-04","dy":"3","visit":"DAY 3","visitnum":"2.0","epoch":"TREATMENT"},{"seq":"16","testcd":"WEIGHT","test":"Weight","cat":null,"orres":"69.3","orresu":"kg","stresc":"69.3","stresn":"69.3","stresu":"kg","stnrlo":null,"stnrhi":null,"nrind":null,"pos":null,"loc":null,"dtc":"2024-04-04","dy":"3","visit":"DAY 3","visitnum":"2.0","epoch":"TREATMENT"},{"seq":"17","testcd":"BMI","test":"BMI","cat":null,"orres":"23.5","orresu":"kg/m2","stresc":"23.5","stresn":"23.5","stresu":"kg/m2","stnrlo":null,"stnrhi":null,"nrind":null,"pos":null,"loc":null,"dtc":"2024-04-06","dy":"5","visit":"DAY 5","visitnum":"3.0","epoch":"TREATMENT"},{"seq":"18","testcd":"DIABP","test":"Diastolic Blood Pressure","cat":null,"orres":"78.7","orresu":"mmHg","stresc":"78.7","stresn":"78.7","stresu":"mmHg","stnrlo":null,"stnrhi":null,"nrind":null,"pos":null,"loc":null,"dtc":"2024-04-06","dy":"5","visit":"DAY 5","visitnum":"3.0","epoch":"TREATMENT"},{"seq":"19","testcd":"HEIGHT","test":"Height","cat":null,"orres":"170.6","orresu":"cm","stresc":"170.6","stresn":"170.6","stresu":"cm","stnrlo":null,"stnrhi":null,"nrind":null,"pos":null,"loc":null,"dtc":"2024-04-06","dy":"5","visit":"DAY 5","visitnum":"3.0","epoch":"TREATMENT"},{"seq":"20","testcd":"PULSE","test":"Pulse Rate","cat":null,"orres":"62.5","orresu":"beats/min","stresc":"62.5","stresn":"62.5","stresu":"beats/min","stnrlo":null,"stnrhi":null,"nrind":null,"pos":null,"loc":null,"dtc":"2024-04-06","dy":"5","visit":"DAY 5","visitnum":"3.0","epoch":"TREATMENT"},{"seq":"21","testcd":"RESP","test":"Respiratory Rate","cat":null,"orres":"19.5","orresu":"breaths/min","stresc":"19.5","stresn":"19.5","stresu":"breaths/min","stnrlo":null,"stnrhi":null,"nrind":null,"pos":null,"loc":null,"dtc":"2024-04-06","dy":"5","visit":"DAY 5","visitnum":"3.0","epoch":"TREATMENT"},{"seq":"22","testcd":"SYSBP","test":"Systolic Blood Pressure","cat":null,"orres":"148.9","orresu":"mmHg","stresc":"148.9","stresn":"148.9","stresu":"mmHg","stnrlo":null,"stnrhi":null,"nrind":null,"pos":null,"loc":null,"dtc":"2024-04-06","dy":"5","visit":"DAY 5","visitnum":"3.0","epoch":"TREATMENT"},{"seq":"23","testcd":"TEMP","test":"Temperature","cat":null,"orres":"36.2","orresu":"C","stresc":"36.2","stresn":"36.2","stresu":"C","stnrlo":null,"stnrhi":null,"nrind":null,"pos":null,"loc":null,"dtc":"2024-04-06","dy":"5","visit":"DAY 5","visitnum":"3.0","epoch":"TREATMENT"},{"seq":"24","testcd":"WEIGHT","test":"Weight","cat":null,"orres":"68.4","orresu":"kg","stresc":"68.4","stresn":"68.4","stresu":"kg","stnrlo":null,"stnrhi":null,"nrind":null,"pos":null,"loc":null,"dtc":"2024-04-06","dy":"5","visit":"DAY 5","visitnum":"3.0","epoch":"TREATMENT"},{"seq":"25","testcd":"BMI","test":"BMI","cat":null,"orres":"23.1","orresu":"kg/m2","stresc":"23.1","stresn":"23.1","stresu":"kg/m2","stnrlo":null,"stnrhi":null,"nrind":null,"pos":null,"loc":null,"dtc":"2024-04-14","dy":"13","visit":"DAY 14","visitnum":"4.0","epoch":"FOLLOW-UP"},{"seq":"26","testcd":"DIABP","test":"Diastolic Blood Pressure","cat":null,"orres":"79.4","orresu":"mmHg","stresc":"79.4","stresn":"79.4","stresu":"mmHg","stnrlo":null,"stnrhi":null,"nrind":null,"pos":null,"loc":null,"dtc":"2024-04-14","dy":"13","visit":"DAY 14","visitnum":"4.0","epoch":"FOLLOW-UP"},{"seq":"27","testcd":"HEIGHT","test":"Height","cat":null,"orres":"171.9","orresu":"cm","stresc":"171.9","stresn":"171.9","stresu":"cm","stnrlo":null,"stnrhi":null,"nrind":null,"pos":null,"loc":null,"dtc":"2024-04-14","dy":"13","visit":"DAY 14","visitnum":"4.0","epoch":"FOLLOW-UP"},{"seq":"28","testcd":"PULSE","test":"Pulse Rate","cat":null,"orres":"59.8","orresu":"beats/min","stresc":"59.8","stresn":"59.8","stresu":"beats/min","stnrlo":null,"stnrhi":null,"nrind":null,"pos":null,"loc":null,"dtc":"2024-04-14","dy":"13","visit":"DAY 14","visitnum":"4.0","epoch":"FOLLOW-UP"},{"seq":"29","testcd":"RESP","test":"Respiratory Rate","cat":null,"orres":"21.3","orresu":"breaths/min","stresc":"21.3","stresn":"21.3","stresu":"breaths/min","stnrlo":null,"stnrhi":null,"nrind":null,"pos":null,"loc":null,"dtc":"2024-04-14","dy":"13","visit":"DAY 14","visitnum":"4.0","epoch":"FOLLOW-UP"},{"seq":"30","testcd":"SYSBP","test":"Systolic Blood Pressure","cat":null,"orres":"150.6","orresu":"mmHg","stresc":"150.6","stresn":"150.6","stresu":"mmHg","stnrlo":null,"stnrhi":null,"nrind":null,"pos":null,"loc":null,"dtc":"2024-04-14","dy":"13","visit":"DAY 14","visitnum":"4.0","epoch":"FOLLOW-UP"},{"seq":"31","testcd":"TEMP","test":"Temperature","cat":null,"orres":"36.1","orresu":"C","stresc":"36.1","stresn":"36.1","stresu":"C","stnrlo":null,"stnrhi":null,"nrind":null,"pos":null,"loc":null,"dtc":"2024-04-14","dy":"13","visit":"DAY 14","visitnum":"4.0","epoch":"FOLLOW-UP"},{"seq":"32","testcd":"WEIGHT","test":"Weight","cat":null,"orres":"68.3","orresu":"kg","stresc":"68.3","stresn":"68.3","stresu":"kg","stnrlo":null,"stnrhi":null,"nrind":null,"pos":null,"loc":null,"dtc":"2024-04-14","dy":"13","visit":"DAY 14","visitnum":"4.0","epoch":"FOLLOW-UP"},{"seq":"33","testcd":"BMI","test":"BMI","cat":null,"orres":"23.0","orresu":"kg/m2","stresc":"23.0","stresn":"23.0","stresu":"kg/m2","stnrlo":null,"stnrhi":null,"nrind":null,"pos":null,"loc":null,"dtc":"2024-04-30","dy":"29","visit":"DAY 28","visitnum":"5.0","epoch":"FOLLOW-UP"},{"seq":"34","testcd":"DIABP","test":"Diastolic Blood Pressure","cat":null,"orres":"78.5","orresu":"mmHg","stresc":"78.5","stresn":"78.5","stresu":"mmHg","stnrlo":null,"stnrhi":null,"nrind":null,"pos":null,"loc":null,"dtc":"2024-04-30","dy":"29","visit":"DAY 28","visitnum":"5.0","epoch":"FOLLOW-UP"},{"seq":"35","testcd":"HEIGHT","test":"Height","cat":null,"orres":"171.8","orresu":"cm","stresc":"171.8","stresn":"171.8","stresu":"cm","stnrlo":null,"stnrhi":null,"nrind":null,"pos":null,"loc":null,"dtc":"2024-04-30","dy":"29","visit":"DAY 28","visitnum":"5.0","epoch":"FOLLOW-UP"},{"seq":"36","testcd":"PULSE","test":"Pulse Rate","cat":null,"orres":"58.0","orresu":"beats/min","stresc":"58.0","stresn":"58.0","stresu":"beats/min","stnrlo":null,"stnrhi":null,"nrind":null,"pos":null,"loc":null,"dtc":"2024-04-30","dy":"29","visit":"DAY 28","visitnum":"5.0","epoch":"FOLLOW-UP"},{"seq":"37","testcd":"RESP","test":"Respiratory Rate","cat":null,"orres":"20.2","orresu":"breaths/min","stresc":"20.2","stresn":"20.2","stresu":"breaths/min","stnrlo":null,"stnrhi":null,"nrind":null,"pos":null,"loc":null,"dtc":"2024-04-30","dy":"29","visit":"DAY 28","visitnum":"5.0","epoch":"FOLLOW-UP"},{"seq":"38","testcd":"SYSBP","test":"Systolic Blood Pressure","cat":null,"orres":null,"orresu":null,"stresc":null,"stresn":null,"stresu":null,"stnrlo":null,"stnrhi":null,"nrind":null,"pos":null,"loc":null,"dtc":"2024-04-30","dy":"29","visit":"DAY 28","visitnum":"5.0","epoch":"FOLLOW-UP"},{"seq":"39","testcd":"TEMP","test":"Temperature","cat":null,"orres":"36.2","orresu":"C","stresc":"36.2","stresn":"36.2","stresu":"C","stnrlo":null,"stnrhi":null,"nrind":null,"pos":null,"loc":null,"dtc":"2024-04-30","dy":"29","visit":"DAY 28","visitnum":"5.0","epoch":"FOLLOW-UP"},{"seq":"40","testcd":"WEIGHT","test":"Weight","cat":null,"orres":"67.8","orresu":"kg","stresc":"67.8","stresn":"67.8","stresu":"kg","stnrlo":null,"stnrhi":null,"nrind":null,"pos":null,"loc":null,"dtc":"2024-04-30","dy":"29","visit":"DAY 28","visitnum":"5.0","epoch":"FOLLOW-UP"}]},"section_10_questionnaires_and_scores":{"questionnaires":[],"findings_about":[]},"section_11_protocol_deviations":{"deviations":[{"seq":"1","term":"Visit DAY 14 occurred 1 days early (Day 13 vs planned Day 14)","decod":"VISIT OCCURRED OUTSIDE VISIT WINDOW","cat":"MINOR","scat":"VISIT WINDOW","start_dtc":"2024-04-14","end_dtc":null,"visit":null},{"seq":"2","term":"Vital signs assessment not performed at DAY 28","decod":"MISSED ASSESSMENT","cat":"MINOR","scat":"ASSESSMENT","start_dtc":"2024-04-30","end_dtc":null,"visit":null}],"total":2},"section_12_disposition":{"completion_status":"COMPLETED","disposition_records":[{"seq":"1","term":"INFORMED CONSENT OBTAINED","decod":"INFORMED CONSENT OBTAINED","cat":"PROTOCOL MILESTONE","scat":null,"dtc":"2024-03-15","dy":null,"visit":null,"epoch":"SCREENING"},{"seq":"2","term":"RANDOMIZED","decod":"RANDOMIZED","cat":"PROTOCOL MILESTONE","scat":null,"dtc":"2024-04-02","dy":null,"visit":null,"epoch":"TREATMENT"},{"seq":"3","term":"COMPLETED","decod":"COMPLETED","cat":"DISPOSITION EVENT","scat":null,"dtc":"2024-04-30","dy":null,"visit":null,"epoch":"FOLLOW-UP"}],"death":null},"section_13_hospitalizations":{"items":[],"total":0},"section_14_substance_use":{"items":[{"seq":"1","substance":"ALCOHOL","decod":"ALCOHOL","cat":"ALCOHOL","scat":null,"usage":"Y","dose":"2.0","dosu":"DRINKS/WEEK","freq":"QW","start_dtc":"2019-03-17","end_dtc":null},{"seq":"2","substance":"COFFEE","decod":"COFFEE","cat":"CAFFEINE","scat":null,"usage":"Y","dose":"1.0","dosu":"CUPS/DAY","freq":"QD","start_dtc":"2004-03-20","end_dtc":null},{"seq":"3","substance":"CIGARETTES","decod":"CIGARETTES","cat":"TOBACCO","scat":"CIGARETTES","usage":"Y","dose":null,"dosu":null,"freq":null,"start_dtc":"2009-03-19","end_dtc":"2021-03-16"}],"total":3},"section_15_subject_status":{"items":[{"seq":"1","testcd":"SURVSTAT","test":"Survival Status","orres":"ALIVE","stresc":"ALIVE","dtc":"2024-04-15","visit":"DAY 14","epoch":"FOLLOW-UP"},{"seq":"2","testcd":"SURVSTAT","test":"Survival Status","orres":"ALIVE","stresc":"ALIVE","dtc":"2024-04-29","visit":"DAY 28","epoch":"FOLLOW-UP"}],"total":2}}