{"subject_id":"COVID-THER-301-SITE002-0209","study_id":"COVID-THER-301","generated_at":"2026-06-12T05:15:43.395688+00:00","sdtmig_version":"3.4","flags":{"has_serious_ae":false,"has_fatal_ae":false,"has_protocol_deviation":true,"n_protocol_deviations":2,"n_adverse_events":0,"n_concomitant_meds":0,"max_ae_severity":null,"screen_failure":false,"discontinued_early":false,"discontinuation_reason":null,"death":false,"exposure_days":2},"timeline":[{"dtc":"2024-04-11","dy":"-23","event":"INFORMED CONSENT OBTAINED","domain":"DS","category":"milestone"},{"dtc":"2024-05-04","dy":"1","event":"RANDOMIZED","domain":"DS","category":"milestone"},{"dtc":"2024-05-04","dy":"1","event":"FIRST DOSE: ANTIVIRAL","domain":"EX","category":"exposure"},{"dtc":"2024-05-04","dy":"1","event":"VISIT: BASELINE","domain":"SV","category":"visit"},{"dtc":"2024-05-05","dy":"2","event":"DEVIATION: MISSED DOSE","domain":"DV","category":"deviation"},{"dtc":"2024-05-06","dy":"3","event":"DEVIATION: MISSED DOSE","domain":"DV","category":"deviation"},{"dtc":"2024-05-06","dy":"3","event":"VISIT: DAY 3","domain":"SV","category":"visit"},{"dtc":"2024-05-09","dy":"6","event":"VISIT: DAY 5","domain":"SV","category":"visit"},{"dtc":"2024-05-18","dy":"15","event":"VISIT: DAY 14","domain":"SV","category":"visit"},{"dtc":"2024-06-01","dy":"29","event":"COMPLETED","domain":"DS","category":"milestone"}],"section_1_demographics":{"usubjid":"COVID-THER-301-SITE002-0209","subjid":"0209","siteid":"SITE002","age":"44","ageu":"YEARS","sex":"M","race":"BLACK OR AFRICAN AMERICAN","ethnicity":"NOT HISPANIC OR LATINO","country":"USA","arm":"Antiviral 200mg BID","armcd":"AV200","actarm":"Antiviral 200mg BID","actarmcd":"AV200","randomization_date":null,"informed_consent_date":"2024-04-11","reference_start_date":"2024-05-04","reference_end_date":"2024-06-01","screen_failure":false,"death_flag":null,"death_date":null,"subject_characteristics":[{"testcd":"ALCUSE","test":"Alcohol Use","orres":"NON-DRINKER","stresc":"NON-DRINKER","visit":null,"dtc":"2024-04-11"},{"testcd":"BMI","test":"Body Mass Index","orres":"22.6","stresc":"22.6","visit":null,"dtc":"2024-04-11"},{"testcd":"TOBPKYR","test":"Tobacco Pack-Years","orres":"25","stresc":"25","visit":null,"dtc":"2024-04-11"},{"testcd":"TOBUSE","test":"Tobacco Use","orres":"CURRENT SMOKER","stresc":"CURRENT SMOKER","visit":null,"dtc":"2024-04-11"}]},"section_2_medical_history":{"items":[]},"section_3_inclusion_exclusion":{"criteria":[]},"section_4_trial_participation":{"visits":[{"visitnum":"1.0","visit":"BASELINE","start_dtc":"2024-05-04","end_dtc":"2024-05-04","updes":null},{"visitnum":"2.0","visit":"DAY 3","start_dtc":"2024-05-06","end_dtc":"2024-05-06","updes":null},{"visitnum":"3.0","visit":"DAY 5","start_dtc":"2024-05-09","end_dtc":"2024-05-09","updes":null},{"visitnum":"4.0","visit":"DAY 14","start_dtc":"2024-05-18","end_dtc":"2024-05-18","updes":null}],"epochs":[{"seq":"1","etcd":"SCRN","element":"Screening","start_dtc":"2024-05-03","end_dtc":"2024-05-04","updes":null},{"seq":"2","etcd":"TRT","element":"Treatment","start_dtc":"2024-05-04","end_dtc":"2024-05-09","updes":null},{"seq":"3","etcd":"FU","element":"Follow-up","start_dtc":"2024-05-09","end_dtc":"2024-05-31","updes":null}],"visit_count":4},"section_5_concomitant_medications":{"medications":[]},"section_6_exposure":{"exposure_as_administered":[{"seq":"1","trt":"ANTIVIRAL","dose":"200.0","doseu":null,"dosef":"BID","route":"ORAL","lot":null,"start_dtc":"2024-05-04","end_dtc":"2024-05-06","start_dy":"1","end_dy":"3","epoch":"TREATMENT","visit":null}],"exposure_as_collected":[{"seq":"1","trt":"ANTIVIRAL","dose":"200.0","doseu":null,"dosef":"BID","route":"ORAL","start_dtc":"2024-05-04","end_dtc":"2024-05-04","visit":"BASELINE"},{"seq":"2","trt":"ANTIVIRAL","dose":null,"doseu":null,"dosef":"BID","route":"ORAL","start_dtc":"2024-05-04","end_dtc":"2024-05-04","visit":"BASELINE"},{"seq":"3","trt":"ANTIVIRAL","dose":"200.0","doseu":null,"dosef":"BID","route":"ORAL","start_dtc":"2024-05-05","end_dtc":"2024-05-05","visit":"BASELINE"},{"seq":"4","trt":"ANTIVIRAL","dose":null,"doseu":null,"dosef":"BID","route":"ORAL","start_dtc":"2024-05-05","end_dtc":"2024-05-05","visit":"BASELINE"},{"seq":"5","trt":"ANTIVIRAL","dose":"200.0","doseu":null,"dosef":"BID","route":"ORAL","start_dtc":"2024-05-06","end_dtc":"2024-05-06","visit":"BASELINE"},{"seq":"6","trt":"ANTIVIRAL","dose":null,"doseu":null,"dosef":"BID","route":"ORAL","start_dtc":"2024-05-06","end_dtc":"2024-05-06","visit":"BASELINE"}]},"section_7_adverse_events":{"summary":{"total_aes":0,"serious_aes":0,"fatal_aes":0,"by_severity":{},"by_soc":{}},"events":[]},"section_8_laboratory_results":{"summary":{"total_records":28,"abnormal_count":5,"abnormal_pct":17.9},"shift_summary":[{"testcd":"ALT","baseline_value":22.39,"baseline_nrind":"NORMAL","worst_post_baseline_value":21.25,"worst_post_baseline_nrind":"NORMAL","worst_visit":"DAY 5"},{"testcd":"AST","baseline_value":23.73,"baseline_nrind":"NORMAL","worst_post_baseline_value":26.93,"worst_post_baseline_nrind":"NORMAL","worst_visit":"DAY 14"},{"testcd":"CREAT","baseline_value":52.77,"baseline_nrind":"LOW","worst_post_baseline_value":54.2,"worst_post_baseline_nrind":"LOW","worst_visit":"DAY 14"},{"testcd":"GLUC","baseline_value":4.39,"baseline_nrind":"NORMAL","worst_post_baseline_value":4.54,"worst_post_baseline_nrind":"NORMAL","worst_visit":"DAY 3"},{"testcd":"HGB","baseline_value":134.8,"baseline_nrind":"NORMAL","worst_post_baseline_value":129.9,"worst_post_baseline_nrind":"LOW","worst_visit":"DAY 14"},{"testcd":"PLAT","baseline_value":292.74,"baseline_nrind":"NORMAL","worst_post_baseline_value":285.3,"worst_post_baseline_nrind":"NORMAL","worst_visit":"DAY 14"},{"testcd":"WBC","baseline_value":9.84,"baseline_nrind":"NORMAL","worst_post_baseline_value":10.03,"worst_post_baseline_nrind":"NORMAL","worst_visit":"DAY 14"}],"results":[{"seq":"1","testcd":"ALT","test":"Alanine Aminotransferase","cat":"CHEMISTRY","orres":"22.39","orresu":"U/L","stresc":"22.39","stresn":"22.39","stresu":"U/L","stnrlo":"7","stnrhi":"56","nrind":"NORMAL","fast":null,"dtc":"2024-05-04","dy":"1","visit":"BASELINE","visitnum":"1.0","epoch":"TREATMENT","spec":null,"method":null},{"seq":"2","testcd":"AST","test":"Aspartate Aminotransferase","cat":"CHEMISTRY","orres":"23.73","orresu":"U/L","stresc":"23.73","stresn":"23.73","stresu":"U/L","stnrlo":"10","stnrhi":"40","nrind":"NORMAL","fast":null,"dtc":"2024-05-04","dy":"1","visit":"BASELINE","visitnum":"1.0","epoch":"TREATMENT","spec":null,"method":null},{"seq":"3","testcd":"CREAT","test":"Creatinine","cat":"CHEMISTRY","orres":"52.77","orresu":"umol/L","stresc":"52.77","stresn":"52.77","stresu":"umol/L","stnrlo":"62","stnrhi":"106","nrind":"LOW","fast":null,"dtc":"2024-05-04","dy":"1","visit":"BASELINE","visitnum":"1.0","epoch":"TREATMENT","spec":null,"method":null},{"seq":"4","testcd":"GLUC","test":"Glucose","cat":"CHEMISTRY","orres":"4.39","orresu":"mmol/L","stresc":"4.39","stresn":"4.39","stresu":"mmol/L","stnrlo":"3.9","stnrhi":"5.6","nrind":"NORMAL","fast":null,"dtc":"2024-05-04","dy":"1","visit":"BASELINE","visitnum":"1.0","epoch":"TREATMENT","spec":null,"method":null},{"seq":"5","testcd":"HGB","test":"Hemoglobin","cat":"HEMATOLOGY","orres":"134.8","orresu":"g/L","stresc":"134.8","stresn":"134.8","stresu":"g/L","stnrlo":"130","stnrhi":"175","nrind":"NORMAL","fast":null,"dtc":"2024-05-04","dy":"1","visit":"BASELINE","visitnum":"1.0","epoch":"TREATMENT","spec":null,"method":null},{"seq":"6","testcd":"PLAT","test":"Platelets","cat":"HEMATOLOGY","orres":"292.74","orresu":"10^9/L","stresc":"292.74","stresn":"292.74","stresu":"10^9/L","stnrlo":"150","stnrhi":"400","nrind":"NORMAL","fast":null,"dtc":"2024-05-04","dy":"1","visit":"BASELINE","visitnum":"1.0","epoch":"TREATMENT","spec":null,"method":null},{"seq":"7","testcd":"WBC","test":"Leukocytes","cat":"HEMATOLOGY","orres":"9.84","orresu":"10^9/L","stresc":"9.84","stresn":"9.84","stresu":"10^9/L","stnrlo":"4.0","stnrhi":"11.0","nrind":"NORMAL","fast":null,"dtc":"2024-05-04","dy":"1","visit":"BASELINE","visitnum":"1.0","epoch":"TREATMENT","spec":null,"method":null},{"seq":"8","testcd":"ALT","test":"Alanine Aminotransferase","cat":"CHEMISTRY","orres":null,"orresu":null,"stresc":null,"stresn":null,"stresu":null,"stnrlo":null,"stnrhi":null,"nrind":null,"fast":null,"dtc":"2024-05-06","dy":"3","visit":"DAY 3","visitnum":"2.0","epoch":"TREATMENT","spec":null,"method":null},{"seq":"9","testcd":"AST","test":"Aspartate Aminotransferase","cat":"CHEMISTRY","orres":"22.75","orresu":"U/L","stresc":"22.75","stresn":"22.75","stresu":"U/L","stnrlo":"10","stnrhi":"40","nrind":"NORMAL","fast":null,"dtc":"2024-05-06","dy":"3","visit":"DAY 3","visitnum":"2.0","epoch":"TREATMENT","spec":null,"method":null},{"seq":"10","testcd":"CREAT","test":"Creatinine","cat":"CHEMISTRY","orres":"49.9","orresu":"umol/L","stresc":"49.9","stresn":"49.9","stresu":"umol/L","stnrlo":"62","stnrhi":"106","nrind":"LOW","fast":null,"dtc":"2024-05-06","dy":"3","visit":"DAY 3","visitnum":"2.0","epoch":"TREATMENT","spec":null,"method":null},{"seq":"11","testcd":"GLUC","test":"Glucose","cat":"CHEMISTRY","orres":"4.54","orresu":"mmol/L","stresc":"4.54","stresn":"4.54","stresu":"mmol/L","stnrlo":"3.9","stnrhi":"5.6","nrind":"NORMAL","fast":null,"dtc":"2024-05-06","dy":"3","visit":"DAY 3","visitnum":"2.0","epoch":"TREATMENT","spec":null,"method":null},{"seq":"12","testcd":"HGB","test":"Hemoglobin","cat":"HEMATOLOGY","orres":"133.76","orresu":"g/L","stresc":"133.76","stresn":"133.76","stresu":"g/L","stnrlo":"130","stnrhi":"175","nrind":"NORMAL","fast":null,"dtc":"2024-05-06","dy":"3","visit":"DAY 3","visitnum":"2.0","epoch":"TREATMENT","spec":null,"method":null},{"seq":"13","testcd":"PLAT","test":"Platelets","cat":"HEMATOLOGY","orres":"279.87","orresu":"10^9/L","stresc":"279.87","stresn":"279.87","stresu":"10^9/L","stnrlo":"150","stnrhi":"400","nrind":"NORMAL","fast":null,"dtc":"2024-05-06","dy":"3","visit":"DAY 3","visitnum":"2.0","epoch":"TREATMENT","spec":null,"method":null},{"seq":"14","testcd":"WBC","test":"Leukocytes","cat":"HEMATOLOGY","orres":null,"orresu":null,"stresc":null,"stresn":null,"stresu":null,"stnrlo":null,"stnrhi":null,"nrind":null,"fast":null,"dtc":"2024-05-06","dy":"3","visit":"DAY 3","visitnum":"2.0","epoch":"TREATMENT","spec":null,"method":null},{"seq":"15","testcd":"ALT","test":"Alanine Aminotransferase","cat":"CHEMISTRY","orres":"21.25","orresu":"U/L","stresc":"21.25","stresn":"21.25","stresu":"U/L","stnrlo":"7","stnrhi":"56","nrind":"NORMAL","fast":null,"dtc":"2024-05-09","dy":"6","visit":"DAY 5","visitnum":"3.0","epoch":"TREATMENT","spec":null,"method":null},{"seq":"16","testcd":"AST","test":"Aspartate Aminotransferase","cat":"CHEMISTRY","orres":"24.69","orresu":"U/L","stresc":"24.69","stresn":"24.69","stresu":"U/L","stnrlo":"10","stnrhi":"40","nrind":"NORMAL","fast":null,"dtc":"2024-05-09","dy":"6","visit":"DAY 5","visitnum":"3.0","epoch":"TREATMENT","spec":null,"method":null},{"seq":"17","testcd":"CREAT","test":"Creatinine","cat":"CHEMISTRY","orres":"52.77","orresu":"umol/L","stresc":"52.77","stresn":"52.77","stresu":"umol/L","stnrlo":"62","stnrhi":"106","nrind":"LOW","fast":null,"dtc":"2024-05-09","dy":"6","visit":"DAY 5","visitnum":"3.0","epoch":"TREATMENT","spec":null,"method":null},{"seq":"18","testcd":"GLUC","test":"Glucose","cat":"CHEMISTRY","orres":"4.39","orresu":"mmol/L","stresc":"4.39","stresn":"4.39","stresu":"mmol/L","stnrlo":"3.9","stnrhi":"5.6","nrind":"NORMAL","fast":null,"dtc":"2024-05-09","dy":"6","visit":"DAY 5","visitnum":"3.0","epoch":"TREATMENT","spec":null,"method":null},{"seq":"19","testcd":"HGB","test":"Hemoglobin","cat":"HEMATOLOGY","orres":"132.5","orresu":"g/L","stresc":"132.5","stresn":"132.5","stresu":"g/L","stnrlo":"130","stnrhi":"175","nrind":"NORMAL","fast":null,"dtc":"2024-05-09","dy":"6","visit":"DAY 5","visitnum":"3.0","epoch":"TREATMENT","spec":null,"method":null},{"seq":"20","testcd":"PLAT","test":"Platelets","cat":"HEMATOLOGY","orres":"271.53","orresu":"10^9/L","stresc":"271.53","stresn":"271.53","stresu":"10^9/L","stnrlo":"150","stnrhi":"400","nrind":"NORMAL","fast":null,"dtc":"2024-05-09","dy":"6","visit":"DAY 5","visitnum":"3.0","epoch":"TREATMENT","spec":null,"method":null},{"seq":"21","testcd":"WBC","test":"Leukocytes","cat":"HEMATOLOGY","orres":"9.78","orresu":"10^9/L","stresc":"9.78","stresn":"9.78","stresu":"10^9/L","stnrlo":"4.0","stnrhi":"11.0","nrind":"NORMAL","fast":null,"dtc":"2024-05-09","dy":"6","visit":"DAY 5","visitnum":"3.0","epoch":"TREATMENT","spec":null,"method":null},{"seq":"22","testcd":"ALT","test":"Alanine Aminotransferase","cat":"CHEMISTRY","orres":"20.78","orresu":"U/L","stresc":"20.78","stresn":"20.78","stresu":"U/L","stnrlo":"7","stnrhi":"56","nrind":"NORMAL","fast":null,"dtc":"2024-05-18","dy":"15","visit":"DAY 14","visitnum":"4.0","epoch":"FOLLOW-UP","spec":null,"method":null},{"seq":"23","testcd":"AST","test":"Aspartate Aminotransferase","cat":"CHEMISTRY","orres":"26.93","orresu":"U/L","stresc":"26.93","stresn":"26.93","stresu":"U/L","stnrlo":"10","stnrhi":"40","nrind":"NORMAL","fast":null,"dtc":"2024-05-18","dy":"15","visit":"DAY 14","visitnum":"4.0","epoch":"FOLLOW-UP","spec":null,"method":null},{"seq":"24","testcd":"CREAT","test":"Creatinine","cat":"CHEMISTRY","orres":"54.2","orresu":"umol/L","stresc":"54.2","stresn":"54.2","stresu":"umol/L","stnrlo":"62","stnrhi":"106","nrind":"LOW","fast":null,"dtc":"2024-05-18","dy":"15","visit":"DAY 14","visitnum":"4.0","epoch":"FOLLOW-UP","spec":null,"method":null},{"seq":"25","testcd":"GLUC","test":"Glucose","cat":"CHEMISTRY","orres":"4.45","orresu":"mmol/L","stresc":"4.45","stresn":"4.45","stresu":"mmol/L","stnrlo":"3.9","stnrhi":"5.6","nrind":"NORMAL","fast":null,"dtc":"2024-05-18","dy":"15","visit":"DAY 14","visitnum":"4.0","epoch":"FOLLOW-UP","spec":null,"method":null},{"seq":"26","testcd":"HGB","test":"Hemoglobin","cat":"HEMATOLOGY","orres":"129.9","orresu":"g/L","stresc":"129.9","stresn":"129.9","stresu":"g/L","stnrlo":"130","stnrhi":"175","nrind":"LOW","fast":null,"dtc":"2024-05-18","dy":"15","visit":"DAY 14","visitnum":"4.0","epoch":"FOLLOW-UP","spec":null,"method":null},{"seq":"27","testcd":"PLAT","test":"Platelets","cat":"HEMATOLOGY","orres":"285.3","orresu":"10^9/L","stresc":"285.3","stresn":"285.3","stresu":"10^9/L","stnrlo":"150","stnrhi":"400","nrind":"NORMAL","fast":null,"dtc":"2024-05-18","dy":"15","visit":"DAY 14","visitnum":"4.0","epoch":"FOLLOW-UP","spec":null,"method":null},{"seq":"28","testcd":"WBC","test":"Leukocytes","cat":"HEMATOLOGY","orres":"10.03","orresu":"10^9/L","stresc":"10.03","stresn":"10.03","stresu":"10^9/L","stnrlo":"4.0","stnrhi":"11.0","nrind":"NORMAL","fast":null,"dtc":"2024-05-18","dy":"15","visit":"DAY 14","visitnum":"4.0","epoch":"FOLLOW-UP","spec":null,"method":null}]},"section_9_vital_signs":{"summary":{"total_records":32},"trends":{"BMI":[{"visit":"BASELINE","visitnum":"1.0","dtc":"2024-05-04","value":"22.6","unit":"kg/m2"},{"visit":"DAY 3","visitnum":"2.0","dtc":"2024-05-06","value":"22.4","unit":"kg/m2"},{"visit":"DAY 5","visitnum":"3.0","dtc":"2024-05-09","value":"23.0","unit":"kg/m2"},{"visit":"DAY 14","visitnum":"4.0","dtc":"2024-05-18","value":"22.2","unit":"kg/m2"}],"DIABP":[{"visit":"BASELINE","visitnum":"1.0","dtc":"2024-05-04","value":"69.7","unit":"mmHg"},{"visit":"DAY 3","visitnum":"2.0","dtc":"2024-05-06","value":"71.3","unit":"mmHg"},{"visit":"DAY 5","visitnum":"3.0","dtc":"2024-05-09","value":"68.6","unit":"mmHg"},{"visit":"DAY 14","visitnum":"4.0","dtc":"2024-05-18","value":"71.0","unit":"mmHg"}],"HEIGHT":[{"visit":"BASELINE","visitnum":"1.0","dtc":"2024-05-04","value":"162.0","unit":"cm"},{"visit":"DAY 3","visitnum":"2.0","dtc":"2024-05-06","value":"161.9","unit":"cm"},{"visit":"DAY 5","visitnum":"3.0","dtc":"2024-05-09","value":"161.2","unit":"cm"},{"visit":"DAY 14","visitnum":"4.0","dtc":"2024-05-18","value":"161.7","unit":"cm"}],"PULSE":[{"visit":"BASELINE","visitnum":"1.0","dtc":"2024-05-04","value":"56.4","unit":"beats/min"},{"visit":"DAY 3","visitnum":"2.0","dtc":"2024-05-06","value":"53.0","unit":"beats/min"},{"visit":"DAY 5","visitnum":"3.0","dtc":"2024-05-09","value":"52.6","unit":"beats/min"},{"visit":"DAY 14","visitnum":"4.0","dtc":"2024-05-18","value":"52.6","unit":"beats/min"}],"RESP":[{"visit":"BASELINE","visitnum":"1.0","dtc":"2024-05-04","value":"19.1","unit":"breaths/min"},{"visit":"DAY 3","visitnum":"2.0","dtc":"2024-05-06","value":"18.3","unit":"breaths/min"},{"visit":"DAY 5","visitnum":"3.0","dtc":"2024-05-09","value":"18.9","unit":"breaths/min"},{"visit":"DAY 14","visitnum":"4.0","dtc":"2024-05-18","value":"18.4","unit":"breaths/min"}],"SYSBP":[{"visit":"BASELINE","visitnum":"1.0","dtc":"2024-05-04","value":"138.6","unit":"mmHg"},{"visit":"DAY 3","visitnum":"2.0","dtc":"2024-05-06","value":"140.8","unit":"mmHg"},{"visit":"DAY 5","visitnum":"3.0","dtc":"2024-05-09","value":"137.8","unit":"mmHg"},{"visit":"DAY 14","visitnum":"4.0","dtc":"2024-05-18","value":"139.2","unit":"mmHg"}],"TEMP":[{"visit":"BASELINE","visitnum":"1.0","dtc":"2024-05-04","value":"37.9","unit":"C"},{"visit":"DAY 3","visitnum":"2.0","dtc":"2024-05-06","value":"37.9","unit":"C"},{"visit":"DAY 5","visitnum":"3.0","dtc":"2024-05-09","value":"37.7","unit":"C"},{"visit":"DAY 14","visitnum":"4.0","dtc":"2024-05-18","value":"37.5","unit":"C"}],"WEIGHT":[{"visit":"BASELINE","visitnum":"1.0","dtc":"2024-05-04","value":"59.3","unit":"kg"},{"visit":"DAY 3","visitnum":"2.0","dtc":"2024-05-06","value":"58.6","unit":"kg"},{"visit":"DAY 5","visitnum":"3.0","dtc":"2024-05-09","value":"59.7","unit":"kg"},{"visit":"DAY 14","visitnum":"4.0","dtc":"2024-05-18","value":"58.1","unit":"kg"}]},"results":[{"seq":"1","testcd":"BMI","test":"BMI","cat":null,"orres":"22.6","orresu":"kg/m2","stresc":"22.6","stresn":"22.6","stresu":"kg/m2","stnrlo":null,"stnrhi":null,"nrind":null,"pos":null,"loc":null,"dtc":"2024-05-04","dy":"1","visit":"BASELINE","visitnum":"1.0","epoch":"TREATMENT"},{"seq":"2","testcd":"DIABP","test":"Diastolic Blood Pressure","cat":null,"orres":"69.7","orresu":"mmHg","stresc":"69.7","stresn":"69.7","stresu":"mmHg","stnrlo":null,"stnrhi":null,"nrind":null,"pos":null,"loc":null,"dtc":"2024-05-04","dy":"1","visit":"BASELINE","visitnum":"1.0","epoch":"TREATMENT"},{"seq":"3","testcd":"HEIGHT","test":"Height","cat":null,"orres":"162.0","orresu":"cm","stresc":"162.0","stresn":"162.0","stresu":"cm","stnrlo":null,"stnrhi":null,"nrind":null,"pos":null,"loc":null,"dtc":"2024-05-04","dy":"1","visit":"BASELINE","visitnum":"1.0","epoch":"TREATMENT"},{"seq":"4","testcd":"PULSE","test":"Pulse Rate","cat":null,"orres":"56.4","orresu":"beats/min","stresc":"56.4","stresn":"56.4","stresu":"beats/min","stnrlo":null,"stnrhi":null,"nrind":null,"pos":null,"loc":null,"dtc":"2024-05-04","dy":"1","visit":"BASELINE","visitnum":"1.0","epoch":"TREATMENT"},{"seq":"5","testcd":"RESP","test":"Respiratory Rate","cat":null,"orres":"19.1","orresu":"breaths/min","stresc":"19.1","stresn":"19.1","stresu":"breaths/min","stnrlo":null,"stnrhi":null,"nrind":null,"pos":null,"loc":null,"dtc":"2024-05-04","dy":"1","visit":"BASELINE","visitnum":"1.0","epoch":"TREATMENT"},{"seq":"6","testcd":"SYSBP","test":"Systolic Blood Pressure","cat":null,"orres":"138.6","orresu":"mmHg","stresc":"138.6","stresn":"138.6","stresu":"mmHg","stnrlo":null,"stnrhi":null,"nrind":null,"pos":null,"loc":null,"dtc":"2024-05-04","dy":"1","visit":"BASELINE","visitnum":"1.0","epoch":"TREATMENT"},{"seq":"7","testcd":"TEMP","test":"Temperature","cat":null,"orres":"37.9","orresu":"C","stresc":"37.9","stresn":"37.9","stresu":"C","stnrlo":null,"stnrhi":null,"nrind":null,"pos":null,"loc":null,"dtc":"2024-05-04","dy":"1","visit":"BASELINE","visitnum":"1.0","epoch":"TREATMENT"},{"seq":"8","testcd":"WEIGHT","test":"Weight","cat":null,"orres":"59.3","orresu":"kg","stresc":"59.3","stresn":"59.3","stresu":"kg","stnrlo":null,"stnrhi":null,"nrind":null,"pos":null,"loc":null,"dtc":"2024-05-04","dy":"1","visit":"BASELINE","visitnum":"1.0","epoch":"TREATMENT"},{"seq":"9","testcd":"BMI","test":"BMI","cat":null,"orres":"22.4","orresu":"kg/m2","stresc":"22.4","stresn":"22.4","stresu":"kg/m2","stnrlo":null,"stnrhi":null,"nrind":null,"pos":null,"loc":null,"dtc":"2024-05-06","dy":"3","visit":"DAY 3","visitnum":"2.0","epoch":"TREATMENT"},{"seq":"10","testcd":"DIABP","test":"Diastolic Blood Pressure","cat":null,"orres":"71.3","orresu":"mmHg","stresc":"71.3","stresn":"71.3","stresu":"mmHg","stnrlo":null,"stnrhi":null,"nrind":null,"pos":null,"loc":null,"dtc":"2024-05-06","dy":"3","visit":"DAY 3","visitnum":"2.0","epoch":"TREATMENT"},{"seq":"11","testcd":"HEIGHT","test":"Height","cat":null,"orres":"161.9","orresu":"cm","stresc":"161.9","stresn":"161.9","stresu":"cm","stnrlo":null,"stnrhi":null,"nrind":null,"pos":null,"loc":null,"dtc":"2024-05-06","dy":"3","visit":"DAY 3","visitnum":"2.0","epoch":"TREATMENT"},{"seq":"12","testcd":"PULSE","test":"Pulse Rate","cat":null,"orres":"53.0","orresu":"beats/min","stresc":"53.0","stresn":"53.0","stresu":"beats/min","stnrlo":null,"stnrhi":null,"nrind":null,"pos":null,"loc":null,"dtc":"2024-05-06","dy":"3","visit":"DAY 3","visitnum":"2.0","epoch":"TREATMENT"},{"seq":"13","testcd":"RESP","test":"Respiratory Rate","cat":null,"orres":"18.3","orresu":"breaths/min","stresc":"18.3","stresn":"18.3","stresu":"breaths/min","stnrlo":null,"stnrhi":null,"nrind":null,"pos":null,"loc":null,"dtc":"2024-05-06","dy":"3","visit":"DAY 3","visitnum":"2.0","epoch":"TREATMENT"},{"seq":"14","testcd":"SYSBP","test":"Systolic Blood Pressure","cat":null,"orres":"140.8","orresu":"mmHg","stresc":"140.8","stresn":"140.8","stresu":"mmHg","stnrlo":null,"stnrhi":null,"nrind":null,"pos":null,"loc":null,"dtc":"2024-05-06","dy":"3","visit":"DAY 3","visitnum":"2.0","epoch":"TREATMENT"},{"seq":"15","testcd":"TEMP","test":"Temperature","cat":null,"orres":"37.9","orresu":"C","stresc":"37.9","stresn":"37.9","stresu":"C","stnrlo":null,"stnrhi":null,"nrind":null,"pos":null,"loc":null,"dtc":"2024-05-06","dy":"3","visit":"DAY 3","visitnum":"2.0","epoch":"TREATMENT"},{"seq":"16","testcd":"WEIGHT","test":"Weight","cat":null,"orres":"58.6","orresu":"kg","stresc":"58.6","stresn":"58.6","stresu":"kg","stnrlo":null,"stnrhi":null,"nrind":null,"pos":null,"loc":null,"dtc":"2024-05-06","dy":"3","visit":"DAY 3","visitnum":"2.0","epoch":"TREATMENT"},{"seq":"17","testcd":"BMI","test":"BMI","cat":null,"orres":"23.0","orresu":"kg/m2","stresc":"23.0","stresn":"23.0","stresu":"kg/m2","stnrlo":null,"stnrhi":null,"nrind":null,"pos":null,"loc":null,"dtc":"2024-05-09","dy":"6","visit":"DAY 5","visitnum":"3.0","epoch":"TREATMENT"},{"seq":"18","testcd":"DIABP","test":"Diastolic Blood Pressure","cat":null,"orres":"68.6","orresu":"mmHg","stresc":"68.6","stresn":"68.6","stresu":"mmHg","stnrlo":null,"stnrhi":null,"nrind":null,"pos":null,"loc":null,"dtc":"2024-05-09","dy":"6","visit":"DAY 5","visitnum":"3.0","epoch":"TREATMENT"},{"seq":"19","testcd":"HEIGHT","test":"Height","cat":null,"orres":"161.2","orresu":"cm","stresc":"161.2","stresn":"161.2","stresu":"cm","stnrlo":null,"stnrhi":null,"nrind":null,"pos":null,"loc":null,"dtc":"2024-05-09","dy":"6","visit":"DAY 5","visitnum":"3.0","epoch":"TREATMENT"},{"seq":"20","testcd":"PULSE","test":"Pulse Rate","cat":null,"orres":"52.6","orresu":"beats/min","stresc":"52.6","stresn":"52.6","stresu":"beats/min","stnrlo":null,"stnrhi":null,"nrind":null,"pos":null,"loc":null,"dtc":"2024-05-09","dy":"6","visit":"DAY 5","visitnum":"3.0","epoch":"TREATMENT"},{"seq":"21","testcd":"RESP","test":"Respiratory Rate","cat":null,"orres":"18.9","orresu":"breaths/min","stresc":"18.9","stresn":"18.9","stresu":"breaths/min","stnrlo":null,"stnrhi":null,"nrind":null,"pos":null,"loc":null,"dtc":"2024-05-09","dy":"6","visit":"DAY 5","visitnum":"3.0","epoch":"TREATMENT"},{"seq":"22","testcd":"SYSBP","test":"Systolic Blood Pressure","cat":null,"orres":"137.8","orresu":"mmHg","stresc":"137.8","stresn":"137.8","stresu":"mmHg","stnrlo":null,"stnrhi":null,"nrind":null,"pos":null,"loc":null,"dtc":"2024-05-09","dy":"6","visit":"DAY 5","visitnum":"3.0","epoch":"TREATMENT"},{"seq":"23","testcd":"TEMP","test":"Temperature","cat":null,"orres":"37.7","orresu":"C","stresc":"37.7","stresn":"37.7","stresu":"C","stnrlo":null,"stnrhi":null,"nrind":null,"pos":null,"loc":null,"dtc":"2024-05-09","dy":"6","visit":"DAY 5","visitnum":"3.0","epoch":"TREATMENT"},{"seq":"24","testcd":"WEIGHT","test":"Weight","cat":null,"orres":"59.7","orresu":"kg","stresc":"59.7","stresn":"59.7","stresu":"kg","stnrlo":null,"stnrhi":null,"nrind":null,"pos":null,"loc":null,"dtc":"2024-05-09","dy":"6","visit":"DAY 5","visitnum":"3.0","epoch":"TREATMENT"},{"seq":"25","testcd":"BMI","test":"BMI","cat":null,"orres":"22.2","orresu":"kg/m2","stresc":"22.2","stresn":"22.2","stresu":"kg/m2","stnrlo":null,"stnrhi":null,"nrind":null,"pos":null,"loc":null,"dtc":"2024-05-18","dy":"15","visit":"DAY 14","visitnum":"4.0","epoch":"FOLLOW-UP"},{"seq":"26","testcd":"DIABP","test":"Diastolic Blood Pressure","cat":null,"orres":"71.0","orresu":"mmHg","stresc":"71.0","stresn":"71.0","stresu":"mmHg","stnrlo":null,"stnrhi":null,"nrind":null,"pos":null,"loc":null,"dtc":"2024-05-18","dy":"15","visit":"DAY 14","visitnum":"4.0","epoch":"FOLLOW-UP"},{"seq":"27","testcd":"HEIGHT","test":"Height","cat":null,"orres":"161.7","orresu":"cm","stresc":"161.7","stresn":"161.7","stresu":"cm","stnrlo":null,"stnrhi":null,"nrind":null,"pos":null,"loc":null,"dtc":"2024-05-18","dy":"15","visit":"DAY 14","visitnum":"4.0","epoch":"FOLLOW-UP"},{"seq":"28","testcd":"PULSE","test":"Pulse Rate","cat":null,"orres":"52.6","orresu":"beats/min","stresc":"52.6","stresn":"52.6","stresu":"beats/min","stnrlo":null,"stnrhi":null,"nrind":null,"pos":null,"loc":null,"dtc":"2024-05-18","dy":"15","visit":"DAY 14","visitnum":"4.0","epoch":"FOLLOW-UP"},{"seq":"29","testcd":"RESP","test":"Respiratory Rate","cat":null,"orres":"18.4","orresu":"breaths/min","stresc":"18.4","stresn":"18.4","stresu":"breaths/min","stnrlo":null,"stnrhi":null,"nrind":null,"pos":null,"loc":null,"dtc":"2024-05-18","dy":"15","visit":"DAY 14","visitnum":"4.0","epoch":"FOLLOW-UP"},{"seq":"30","testcd":"SYSBP","test":"Systolic Blood Pressure","cat":null,"orres":"139.2","orresu":"mmHg","stresc":"139.2","stresn":"139.2","stresu":"mmHg","stnrlo":null,"stnrhi":null,"nrind":null,"pos":null,"loc":null,"dtc":"2024-05-18","dy":"15","visit":"DAY 14","visitnum":"4.0","epoch":"FOLLOW-UP"},{"seq":"31","testcd":"TEMP","test":"Temperature","cat":null,"orres":"37.5","orresu":"C","stresc":"37.5","stresn":"37.5","stresu":"C","stnrlo":null,"stnrhi":null,"nrind":null,"pos":null,"loc":null,"dtc":"2024-05-18","dy":"15","visit":"DAY 14","visitnum":"4.0","epoch":"FOLLOW-UP"},{"seq":"32","testcd":"WEIGHT","test":"Weight","cat":null,"orres":"58.1","orresu":"kg","stresc":"58.1","stresn":"58.1","stresu":"kg","stnrlo":null,"stnrhi":null,"nrind":null,"pos":null,"loc":null,"dtc":"2024-05-18","dy":"15","visit":"DAY 14","visitnum":"4.0","epoch":"FOLLOW-UP"}]},"section_10_questionnaires_and_scores":{"questionnaires":[],"findings_about":[]},"section_11_protocol_deviations":{"deviations":[{"seq":"1","term":"Missed ANTIVIRAL dose on 2024-05-05","decod":"MISSED DOSE","cat":"MINOR","scat":"DOSING","start_dtc":"2024-05-05","end_dtc":null,"visit":null},{"seq":"2","term":"Missed ANTIVIRAL dose on 2024-05-06","decod":"MISSED DOSE","cat":"MINOR","scat":"DOSING","start_dtc":"2024-05-06","end_dtc":null,"visit":null}],"total":2},"section_12_disposition":{"completion_status":"COMPLETED","disposition_records":[{"seq":"1","term":"INFORMED CONSENT OBTAINED","decod":"INFORMED CONSENT OBTAINED","cat":"PROTOCOL MILESTONE","scat":null,"dtc":"2024-04-11","dy":null,"visit":null,"epoch":"SCREENING"},{"seq":"2","term":"RANDOMIZED","decod":"RANDOMIZED","cat":"PROTOCOL MILESTONE","scat":null,"dtc":"2024-05-04","dy":null,"visit":null,"epoch":"TREATMENT"},{"seq":"3","term":"COMPLETED","decod":"COMPLETED","cat":"DISPOSITION EVENT","scat":null,"dtc":"2024-06-01","dy":null,"visit":null,"epoch":"FOLLOW-UP"}],"death":null},"section_13_hospitalizations":{"items":[],"total":0},"section_14_substance_use":{"items":[{"seq":"1","substance":"ALCOHOL","decod":"ALCOHOL","cat":"ALCOHOL","scat":null,"usage":"N","dose":null,"dosu":null,"freq":null,"start_dtc":null,"end_dtc":null},{"seq":"2","substance":"COFFEE","decod":"COFFEE","cat":"CAFFEINE","scat":null,"usage":"Y","dose":null,"dosu":null,"freq":null,"start_dtc":"2018-04-13","end_dtc":"2020-04-12"},{"seq":"3","substance":"CIGARETTES","decod":"CIGARETTES","cat":"TOBACCO","scat":"CIGARETTES","usage":"Y","dose":"15.0","dosu":"CIGARETTES/DAY","freq":"QD","start_dtc":"2001-04-17","end_dtc":null}],"total":3},"section_15_subject_status":{"items":[{"seq":"1","testcd":"SURVSTAT","test":"Survival Status","orres":"ALIVE","stresc":"ALIVE","dtc":"2024-05-17","visit":"DAY 14","epoch":"FOLLOW-UP"},{"seq":"2","testcd":"SURVSTAT","test":"Survival Status","orres":"ALIVE","stresc":"ALIVE","dtc":"2024-05-31","visit":"DAY 28","epoch":"FOLLOW-UP"}],"total":2}}