{"subject_id":"COVID-THER-301-SITE002-0200","study_id":"COVID-THER-301","generated_at":"2026-06-12T05:15:42.985435+00:00","sdtmig_version":"3.4","flags":{"has_serious_ae":false,"has_fatal_ae":false,"has_protocol_deviation":false,"n_protocol_deviations":0,"n_adverse_events":0,"n_concomitant_meds":2,"max_ae_severity":null,"screen_failure":false,"discontinued_early":false,"discontinuation_reason":null,"death":false,"exposure_days":1},"timeline":[{"dtc":"2019-04-14","dy":"-1857","event":"CM START: SALBUTAMOL","domain":"CM","category":"concomitant_med"},{"dtc":"2024-04-12","dy":"-32","event":"INFORMED CONSENT OBTAINED","domain":"DS","category":"milestone"},{"dtc":"2024-05-14","dy":"1","event":"RANDOMIZED","domain":"DS","category":"milestone"},{"dtc":"2024-05-14","dy":"1","event":"FIRST DOSE: ANTIVIRAL","domain":"EX","category":"exposure"},{"dtc":"2024-05-14","dy":"1","event":"VISIT: BASELINE","domain":"SV","category":"visit"},{"dtc":"2024-05-17","dy":"4","event":"VISIT: DAY 3","domain":"SV","category":"visit"},{"dtc":"2024-05-19","dy":"6","event":"VISIT: DAY 5","domain":"SV","category":"visit"},{"dtc":"2024-05-27","dy":"14","event":"VISIT: DAY 14","domain":"SV","category":"visit"},{"dtc":"2024-06-06","dy":"24","event":"CM START: METFORMIN","domain":"CM","category":"concomitant_med"},{"dtc":"2024-06-08","dy":"26","event":"VISIT: DAY 28","domain":"SV","category":"visit"},{"dtc":"2024-06-11","dy":"29","event":"COMPLETED","domain":"DS","category":"milestone"}],"section_1_demographics":{"usubjid":"COVID-THER-301-SITE002-0200","subjid":"0200","siteid":"SITE002","age":"46","ageu":"YEARS","sex":"F","race":"BLACK OR AFRICAN AMERICAN","ethnicity":"HISPANIC OR LATINO","country":"USA","arm":"Antiviral 200mg BID","armcd":"AV200","actarm":"Antiviral 200mg BID","actarmcd":"AV200","randomization_date":null,"informed_consent_date":"2024-04-12","reference_start_date":"2024-05-14","reference_end_date":"2024-06-11","screen_failure":false,"death_flag":null,"death_date":null,"subject_characteristics":[{"testcd":"ALCUSE","test":"Alcohol Use","orres":"NON-DRINKER","stresc":"NON-DRINKER","visit":null,"dtc":"2024-04-12"},{"testcd":"BMI","test":"Body Mass Index","orres":"23.7","stresc":"23.7","visit":null,"dtc":"2024-04-12"},{"testcd":"DURDIS","test":"Duration of Disease","orres":"73 months","stresc":"73","visit":null,"dtc":"2024-04-12"},{"testcd":"TOBPKYR","test":"Tobacco Pack-Years","orres":"15","stresc":"15","visit":null,"dtc":"2024-04-12"},{"testcd":"TOBUSE","test":"Tobacco Use","orres":"FORMER SMOKER","stresc":"FORMER SMOKER","visit":null,"dtc":"2024-04-12"}]},"section_2_medical_history":{"items":[{"seq":"1","term":"ASTHMA","decod":"ASTHMA","cat":"RESPIRATORY","scat":null,"presp":null,"occur":null,"status":null,"onset_dtc":"2019-04-14","end_dtc":null,"visit":null},{"seq":"2","term":"DIABETES MELLITUS TYPE 2","decod":"DIABETES MELLITUS TYPE 2","cat":"ENDOCRINE","scat":null,"presp":null,"occur":null,"status":null,"onset_dtc":"2019-04-14","end_dtc":"2023-04-12","visit":null},{"seq":"3","term":"HYPERLIPIDEMIA","decod":"HYPERLIPIDEMIA","cat":"METABOLIC","scat":null,"presp":null,"occur":null,"status":null,"onset_dtc":"2018-04-14","end_dtc":"2021-07-02","visit":null},{"seq":"4","term":"HYPERTENSION","decod":"HYPERTENSION","cat":"CARDIOVASCULAR","scat":null,"presp":null,"occur":null,"status":null,"onset_dtc":"2020-04-13","end_dtc":"2022-04-18","visit":null}]},"section_3_inclusion_exclusion":{"criteria":[]},"section_4_trial_participation":{"visits":[{"visitnum":"1.0","visit":"BASELINE","start_dtc":"2024-05-14","end_dtc":"2024-05-14","updes":null},{"visitnum":"2.0","visit":"DAY 3","start_dtc":"2024-05-17","end_dtc":"2024-05-17","updes":null},{"visitnum":"3.0","visit":"DAY 5","start_dtc":"2024-05-19","end_dtc":"2024-05-19","updes":null},{"visitnum":"4.0","visit":"DAY 14","start_dtc":"2024-05-27","end_dtc":"2024-05-27","updes":null},{"visitnum":"5.0","visit":"DAY 28","start_dtc":"2024-06-08","end_dtc":"2024-06-08","updes":null}],"epochs":[{"seq":"1","etcd":"SCRN","element":"Screening","start_dtc":"2024-05-13","end_dtc":"2024-05-14","updes":null},{"seq":"2","etcd":"TRT","element":"Treatment","start_dtc":"2024-05-14","end_dtc":"2024-05-19","updes":null},{"seq":"3","etcd":"FU","element":"Follow-up","start_dtc":"2024-05-19","end_dtc":"2024-06-10","updes":null}],"visit_count":5},"section_5_concomitant_medications":{"medications":[{"seq":"1","trt":"SALBUTAMOL","decod":"SALBUTAMOL","cat":"PRIOR","dose":"100","doseu":null,"dosef":"PRN","route":"RESPIRATORY (INHALATION)","indication":"ASTHMA","start_dtc":"2019-04-14","end_dtc":"2024-06-11","ongoing":null,"visit":null},{"seq":"2","trt":"METFORMIN","decod":"METFORMIN","cat":"CONCOMITANT","dose":null,"doseu":null,"dosef":"BID","route":"ORAL","indication":null,"start_dtc":"2024-06-06","end_dtc":"2024-06-11","ongoing":null,"visit":null}]},"section_6_exposure":{"exposure_as_administered":[{"seq":"1","trt":"ANTIVIRAL","dose":"200.0","doseu":null,"dosef":"BID","route":"ORAL","lot":null,"start_dtc":"2024-05-14","end_dtc":"2024-05-15","start_dy":"1","end_dy":"2","epoch":"TREATMENT","visit":null}],"exposure_as_collected":[{"seq":"1","trt":"ANTIVIRAL","dose":"200.0","doseu":null,"dosef":"BID","route":"ORAL","start_dtc":"2024-05-14","end_dtc":"2024-05-14","visit":"BASELINE"},{"seq":"2","trt":"ANTIVIRAL","dose":"200.0","doseu":null,"dosef":"BID","route":"ORAL","start_dtc":"2024-05-14","end_dtc":"2024-05-14","visit":"BASELINE"},{"seq":"3","trt":"ANTIVIRAL","dose":"200.0","doseu":null,"dosef":"BID","route":"ORAL","start_dtc":"2024-05-15","end_dtc":"2024-05-15","visit":"BASELINE"},{"seq":"4","trt":"ANTIVIRAL","dose":"200.0","doseu":null,"dosef":"BID","route":"ORAL","start_dtc":"2024-05-15","end_dtc":"2024-05-15","visit":"BASELINE"}]},"section_7_adverse_events":{"summary":{"total_aes":0,"serious_aes":0,"fatal_aes":0,"by_severity":{},"by_soc":{}},"events":[]},"section_8_laboratory_results":{"summary":{"total_records":35,"abnormal_count":15,"abnormal_pct":42.9},"shift_summary":[{"testcd":"ALT","baseline_value":16.39,"baseline_nrind":"NORMAL","worst_post_baseline_value":19.11,"worst_post_baseline_nrind":"NORMAL","worst_visit":"DAY 28"},{"testcd":"AST","baseline_value":10.1,"baseline_nrind":"NORMAL","worst_post_baseline_value":11.05,"worst_post_baseline_nrind":"NORMAL","worst_visit":"DAY 28"},{"testcd":"CREAT","baseline_value":43.15,"baseline_nrind":"LOW","worst_post_baseline_value":42.36,"worst_post_baseline_nrind":"LOW","worst_visit":"DAY 5"},{"testcd":"GLUC","baseline_value":6.65,"baseline_nrind":"HIGH","worst_post_baseline_value":6.96,"worst_post_baseline_nrind":"HIGH","worst_visit":"DAY 14"},{"testcd":"HGB","baseline_value":117.1,"baseline_nrind":"LOW","worst_post_baseline_value":116.32,"worst_post_baseline_nrind":"LOW","worst_visit":"DAY 28"},{"testcd":"PLAT","baseline_value":241.53,"baseline_nrind":"NORMAL","worst_post_baseline_value":261.48,"worst_post_baseline_nrind":"NORMAL","worst_visit":"DAY 3"},{"testcd":"WBC","baseline_value":4.64,"baseline_nrind":"NORMAL","worst_post_baseline_value":4.98,"worst_post_baseline_nrind":"NORMAL","worst_visit":"DAY 28"}],"results":[{"seq":"1","testcd":"ALT","test":"Alanine Aminotransferase","cat":"CHEMISTRY","orres":"16.39","orresu":"U/L","stresc":"16.39","stresn":"16.39","stresu":"U/L","stnrlo":"7","stnrhi":"56","nrind":"NORMAL","fast":null,"dtc":"2024-05-14","dy":"1","visit":"BASELINE","visitnum":"1.0","epoch":"TREATMENT","spec":null,"method":null},{"seq":"2","testcd":"AST","test":"Aspartate Aminotransferase","cat":"CHEMISTRY","orres":"10.1","orresu":"U/L","stresc":"10.1","stresn":"10.1","stresu":"U/L","stnrlo":"10","stnrhi":"40","nrind":"NORMAL","fast":null,"dtc":"2024-05-14","dy":"1","visit":"BASELINE","visitnum":"1.0","epoch":"TREATMENT","spec":null,"method":null},{"seq":"3","testcd":"CREAT","test":"Creatinine","cat":"CHEMISTRY","orres":"43.15","orresu":"umol/L","stresc":"43.15","stresn":"43.15","stresu":"umol/L","stnrlo":"44","stnrhi":"80","nrind":"LOW","fast":null,"dtc":"2024-05-14","dy":"1","visit":"BASELINE","visitnum":"1.0","epoch":"TREATMENT","spec":null,"method":null},{"seq":"4","testcd":"GLUC","test":"Glucose","cat":"CHEMISTRY","orres":"6.65","orresu":"mmol/L","stresc":"6.65","stresn":"6.65","stresu":"mmol/L","stnrlo":"3.9","stnrhi":"5.6","nrind":"HIGH","fast":null,"dtc":"2024-05-14","dy":"1","visit":"BASELINE","visitnum":"1.0","epoch":"TREATMENT","spec":null,"method":null},{"seq":"5","testcd":"HGB","test":"Hemoglobin","cat":"HEMATOLOGY","orres":"117.1","orresu":"g/L","stresc":"117.1","stresn":"117.1","stresu":"g/L","stnrlo":"120","stnrhi":"155","nrind":"LOW","fast":null,"dtc":"2024-05-14","dy":"1","visit":"BASELINE","visitnum":"1.0","epoch":"TREATMENT","spec":null,"method":null},{"seq":"6","testcd":"PLAT","test":"Platelets","cat":"HEMATOLOGY","orres":"241.53","orresu":"10^9/L","stresc":"241.53","stresn":"241.53","stresu":"10^9/L","stnrlo":"150","stnrhi":"400","nrind":"NORMAL","fast":null,"dtc":"2024-05-14","dy":"1","visit":"BASELINE","visitnum":"1.0","epoch":"TREATMENT","spec":null,"method":null},{"seq":"7","testcd":"WBC","test":"Leukocytes","cat":"HEMATOLOGY","orres":"4.64","orresu":"10^9/L","stresc":"4.64","stresn":"4.64","stresu":"10^9/L","stnrlo":"4.0","stnrhi":"11.0","nrind":"NORMAL","fast":null,"dtc":"2024-05-14","dy":"1","visit":"BASELINE","visitnum":"1.0","epoch":"TREATMENT","spec":null,"method":null},{"seq":"8","testcd":"ALT","test":"Alanine Aminotransferase","cat":"CHEMISTRY","orres":"16.7","orresu":"U/L","stresc":"16.7","stresn":"16.7","stresu":"U/L","stnrlo":"7","stnrhi":"56","nrind":"NORMAL","fast":null,"dtc":"2024-05-17","dy":"4","visit":"DAY 3","visitnum":"2.0","epoch":"TREATMENT","spec":null,"method":null},{"seq":"9","testcd":"AST","test":"Aspartate Aminotransferase","cat":"CHEMISTRY","orres":"10.53","orresu":"U/L","stresc":"10.53","stresn":"10.53","stresu":"U/L","stnrlo":"10","stnrhi":"40","nrind":"NORMAL","fast":null,"dtc":"2024-05-17","dy":"4","visit":"DAY 3","visitnum":"2.0","epoch":"TREATMENT","spec":null,"method":null},{"seq":"10","testcd":"CREAT","test":"Creatinine","cat":"CHEMISTRY","orres":"42.1","orresu":"umol/L","stresc":"42.1","stresn":"42.1","stresu":"umol/L","stnrlo":"44","stnrhi":"80","nrind":"LOW","fast":null,"dtc":"2024-05-17","dy":"4","visit":"DAY 3","visitnum":"2.0","epoch":"TREATMENT","spec":null,"method":null},{"seq":"11","testcd":"GLUC","test":"Glucose","cat":"CHEMISTRY","orres":"6.56","orresu":"mmol/L","stresc":"6.56","stresn":"6.56","stresu":"mmol/L","stnrlo":"3.9","stnrhi":"5.6","nrind":"HIGH","fast":null,"dtc":"2024-05-17","dy":"4","visit":"DAY 3","visitnum":"2.0","epoch":"TREATMENT","spec":null,"method":null},{"seq":"12","testcd":"HGB","test":"Hemoglobin","cat":"HEMATOLOGY","orres":"118.19","orresu":"g/L","stresc":"118.19","stresn":"118.19","stresu":"g/L","stnrlo":"120","stnrhi":"155","nrind":"LOW","fast":null,"dtc":"2024-05-17","dy":"4","visit":"DAY 3","visitnum":"2.0","epoch":"TREATMENT","spec":null,"method":null},{"seq":"13","testcd":"PLAT","test":"Platelets","cat":"HEMATOLOGY","orres":"261.48","orresu":"10^9/L","stresc":"261.48","stresn":"261.48","stresu":"10^9/L","stnrlo":"150","stnrhi":"400","nrind":"NORMAL","fast":null,"dtc":"2024-05-17","dy":"4","visit":"DAY 3","visitnum":"2.0","epoch":"TREATMENT","spec":null,"method":null},{"seq":"14","testcd":"WBC","test":"Leukocytes","cat":"HEMATOLOGY","orres":"4.68","orresu":"10^9/L","stresc":"4.68","stresn":"4.68","stresu":"10^9/L","stnrlo":"4.0","stnrhi":"11.0","nrind":"NORMAL","fast":null,"dtc":"2024-05-17","dy":"4","visit":"DAY 3","visitnum":"2.0","epoch":"TREATMENT","spec":null,"method":null},{"seq":"15","testcd":"ALT","test":"Alanine Aminotransferase","cat":"CHEMISTRY","orres":"17.52","orresu":"U/L","stresc":"17.52","stresn":"17.52","stresu":"U/L","stnrlo":"7","stnrhi":"56","nrind":"NORMAL","fast":null,"dtc":"2024-05-19","dy":"6","visit":"DAY 5","visitnum":"3.0","epoch":"TREATMENT","spec":null,"method":null},{"seq":"16","testcd":"AST","test":"Aspartate Aminotransferase","cat":"CHEMISTRY","orres":"10.2","orresu":"U/L","stresc":"10.2","stresn":"10.2","stresu":"U/L","stnrlo":"10","stnrhi":"40","nrind":"NORMAL","fast":null,"dtc":"2024-05-19","dy":"6","visit":"DAY 5","visitnum":"3.0","epoch":"TREATMENT","spec":null,"method":null},{"seq":"17","testcd":"CREAT","test":"Creatinine","cat":"CHEMISTRY","orres":"42.36","orresu":"umol/L","stresc":"42.36","stresn":"42.36","stresu":"umol/L","stnrlo":"44","stnrhi":"80","nrind":"LOW","fast":null,"dtc":"2024-05-19","dy":"6","visit":"DAY 5","visitnum":"3.0","epoch":"TREATMENT","spec":null,"method":null},{"seq":"18","testcd":"GLUC","test":"Glucose","cat":"CHEMISTRY","orres":"6.72","orresu":"mmol/L","stresc":"6.72","stresn":"6.72","stresu":"mmol/L","stnrlo":"3.9","stnrhi":"5.6","nrind":"HIGH","fast":null,"dtc":"2024-05-19","dy":"6","visit":"DAY 5","visitnum":"3.0","epoch":"TREATMENT","spec":null,"method":null},{"seq":"19","testcd":"HGB","test":"Hemoglobin","cat":"HEMATOLOGY","orres":"117.88","orresu":"g/L","stresc":"117.88","stresn":"117.88","stresu":"g/L","stnrlo":"120","stnrhi":"155","nrind":"LOW","fast":null,"dtc":"2024-05-19","dy":"6","visit":"DAY 5","visitnum":"3.0","epoch":"TREATMENT","spec":null,"method":null},{"seq":"20","testcd":"PLAT","test":"Platelets","cat":"HEMATOLOGY","orres":"254.17","orresu":"10^9/L","stresc":"254.17","stresn":"254.17","stresu":"10^9/L","stnrlo":"150","stnrhi":"400","nrind":"NORMAL","fast":null,"dtc":"2024-05-19","dy":"6","visit":"DAY 5","visitnum":"3.0","epoch":"TREATMENT","spec":null,"method":null},{"seq":"21","testcd":"WBC","test":"Leukocytes","cat":"HEMATOLOGY","orres":"4.75","orresu":"10^9/L","stresc":"4.75","stresn":"4.75","stresu":"10^9/L","stnrlo":"4.0","stnrhi":"11.0","nrind":"NORMAL","fast":null,"dtc":"2024-05-19","dy":"6","visit":"DAY 5","visitnum":"3.0","epoch":"TREATMENT","spec":null,"method":null},{"seq":"22","testcd":"ALT","test":"Alanine Aminotransferase","cat":"CHEMISTRY","orres":"18.11","orresu":"U/L","stresc":"18.11","stresn":"18.11","stresu":"U/L","stnrlo":"7","stnrhi":"56","nrind":"NORMAL","fast":null,"dtc":"2024-05-27","dy":"14","visit":"DAY 14","visitnum":"4.0","epoch":"FOLLOW-UP","spec":null,"method":null},{"seq":"23","testcd":"AST","test":"Aspartate Aminotransferase","cat":"CHEMISTRY","orres":"10.12","orresu":"U/L","stresc":"10.12","stresn":"10.12","stresu":"U/L","stnrlo":"10","stnrhi":"40","nrind":"NORMAL","fast":null,"dtc":"2024-05-27","dy":"14","visit":"DAY 14","visitnum":"4.0","epoch":"FOLLOW-UP","spec":null,"method":null},{"seq":"24","testcd":"CREAT","test":"Creatinine","cat":"CHEMISTRY","orres":"42.31","orresu":"umol/L","stresc":"42.31","stresn":"42.31","stresu":"umol/L","stnrlo":"44","stnrhi":"80","nrind":"LOW","fast":null,"dtc":"2024-05-27","dy":"14","visit":"DAY 14","visitnum":"4.0","epoch":"FOLLOW-UP","spec":null,"method":null},{"seq":"25","testcd":"GLUC","test":"Glucose","cat":"CHEMISTRY","orres":"6.96","orresu":"mmol/L","stresc":"6.96","stresn":"6.96","stresu":"mmol/L","stnrlo":"3.9","stnrhi":"5.6","nrind":"HIGH","fast":null,"dtc":"2024-05-27","dy":"14","visit":"DAY 14","visitnum":"4.0","epoch":"FOLLOW-UP","spec":null,"method":null},{"seq":"26","testcd":"HGB","test":"Hemoglobin","cat":"HEMATOLOGY","orres":"117.78","orresu":"g/L","stresc":"117.78","stresn":"117.78","stresu":"g/L","stnrlo":"120","stnrhi":"155","nrind":"LOW","fast":null,"dtc":"2024-05-27","dy":"14","visit":"DAY 14","visitnum":"4.0","epoch":"FOLLOW-UP","spec":null,"method":null},{"seq":"27","testcd":"PLAT","test":"Platelets","cat":"HEMATOLOGY","orres":"238.67","orresu":"10^9/L","stresc":"238.67","stresn":"238.67","stresu":"10^9/L","stnrlo":"150","stnrhi":"400","nrind":"NORMAL","fast":null,"dtc":"2024-05-27","dy":"14","visit":"DAY 14","visitnum":"4.0","epoch":"FOLLOW-UP","spec":null,"method":null},{"seq":"28","testcd":"WBC","test":"Leukocytes","cat":"HEMATOLOGY","orres":"4.37","orresu":"10^9/L","stresc":"4.37","stresn":"4.37","stresu":"10^9/L","stnrlo":"4.0","stnrhi":"11.0","nrind":"NORMAL","fast":null,"dtc":"2024-05-27","dy":"14","visit":"DAY 14","visitnum":"4.0","epoch":"FOLLOW-UP","spec":null,"method":null},{"seq":"29","testcd":"ALT","test":"Alanine Aminotransferase","cat":"CHEMISTRY","orres":"19.11","orresu":"U/L","stresc":"19.11","stresn":"19.11","stresu":"U/L","stnrlo":"7","stnrhi":"56","nrind":"NORMAL","fast":null,"dtc":"2024-06-08","dy":"26","visit":"DAY 28","visitnum":"5.0","epoch":"FOLLOW-UP","spec":null,"method":null},{"seq":"30","testcd":"AST","test":"Aspartate Aminotransferase","cat":"CHEMISTRY","orres":"11.05","orresu":"U/L","stresc":"11.05","stresn":"11.05","stresu":"U/L","stnrlo":"10","stnrhi":"40","nrind":"NORMAL","fast":null,"dtc":"2024-06-08","dy":"26","visit":"DAY 28","visitnum":"5.0","epoch":"FOLLOW-UP","spec":null,"method":null},{"seq":"31","testcd":"CREAT","test":"Creatinine","cat":"CHEMISTRY","orres":"39.72","orresu":"umol/L","stresc":"39.72","stresn":"39.72","stresu":"umol/L","stnrlo":"44","stnrhi":"80","nrind":"LOW","fast":null,"dtc":"2024-06-08","dy":"26","visit":"DAY 28","visitnum":"5.0","epoch":"FOLLOW-UP","spec":null,"method":null},{"seq":"32","testcd":"GLUC","test":"Glucose","cat":"CHEMISTRY","orres":"6.96","orresu":"mmol/L","stresc":"6.96","stresn":"6.96","stresu":"mmol/L","stnrlo":"3.9","stnrhi":"5.6","nrind":"HIGH","fast":null,"dtc":"2024-06-08","dy":"26","visit":"DAY 28","visitnum":"5.0","epoch":"FOLLOW-UP","spec":null,"method":null},{"seq":"33","testcd":"HGB","test":"Hemoglobin","cat":"HEMATOLOGY","orres":"116.32","orresu":"g/L","stresc":"116.32","stresn":"116.32","stresu":"g/L","stnrlo":"120","stnrhi":"155","nrind":"LOW","fast":null,"dtc":"2024-06-08","dy":"26","visit":"DAY 28","visitnum":"5.0","epoch":"FOLLOW-UP","spec":null,"method":null},{"seq":"34","testcd":"PLAT","test":"Platelets","cat":"HEMATOLOGY","orres":"243.66","orresu":"10^9/L","stresc":"243.66","stresn":"243.66","stresu":"10^9/L","stnrlo":"150","stnrhi":"400","nrind":"NORMAL","fast":null,"dtc":"2024-06-08","dy":"26","visit":"DAY 28","visitnum":"5.0","epoch":"FOLLOW-UP","spec":null,"method":null},{"seq":"35","testcd":"WBC","test":"Leukocytes","cat":"HEMATOLOGY","orres":"4.98","orresu":"10^9/L","stresc":"4.98","stresn":"4.98","stresu":"10^9/L","stnrlo":"4.0","stnrhi":"11.0","nrind":"NORMAL","fast":null,"dtc":"2024-06-08","dy":"26","visit":"DAY 28","visitnum":"5.0","epoch":"FOLLOW-UP","spec":null,"method":null}]},"section_9_vital_signs":{"summary":{"total_records":32},"trends":{"BMI":[{"visit":"BASELINE","visitnum":"1.0","dtc":"2024-05-14","value":"23.7","unit":"kg/m2"},{"visit":"DAY 3","visitnum":"2.0","dtc":"2024-05-17","value":"24.8","unit":"kg/m2"},{"visit":"DAY 5","visitnum":"3.0","dtc":"2024-05-19","value":"24.9","unit":"kg/m2"},{"visit":"DAY 14","visitnum":"4.0","dtc":"2024-05-27","value":"26.7","unit":"kg/m2"}],"DIABP":[{"visit":"BASELINE","visitnum":"1.0","dtc":"2024-05-14","value":"88.7","unit":"mmHg"},{"visit":"DAY 3","visitnum":"2.0","dtc":"2024-05-17","value":"88.8","unit":"mmHg"},{"visit":"DAY 5","visitnum":"3.0","dtc":"2024-05-19","value":"91.1","unit":"mmHg"},{"visit":"DAY 14","visitnum":"4.0","dtc":"2024-05-27","value":"92.8","unit":"mmHg"}],"HEIGHT":[{"visit":"BASELINE","visitnum":"1.0","dtc":"2024-05-14","value":"146.7","unit":"cm"},{"visit":"DAY 3","visitnum":"2.0","dtc":"2024-05-17","value":"147.0","unit":"cm"},{"visit":"DAY 5","visitnum":"3.0","dtc":"2024-05-19","value":"146.4","unit":"cm"},{"visit":"DAY 14","visitnum":"4.0","dtc":"2024-05-27","value":"146.1","unit":"cm"}],"PULSE":[{"visit":"BASELINE","visitnum":"1.0","dtc":"2024-05-14","value":"46.9","unit":"beats/min"},{"visit":"DAY 3","visitnum":"2.0","dtc":"2024-05-17","value":"48.2","unit":"beats/min"},{"visit":"DAY 5","visitnum":"3.0","dtc":"2024-05-19","value":"54.4","unit":"beats/min"},{"visit":"DAY 14","visitnum":"4.0","dtc":"2024-05-27","value":"57.5","unit":"beats/min"}],"RESP":[{"visit":"BASELINE","visitnum":"1.0","dtc":"2024-05-14","value":"19.9","unit":"breaths/min"},{"visit":"DAY 3","visitnum":"2.0","dtc":"2024-05-17","value":"19.5","unit":"breaths/min"},{"visit":"DAY 5","visitnum":"3.0","dtc":"2024-05-19","value":"19.8","unit":"breaths/min"},{"visit":"DAY 14","visitnum":"4.0","dtc":"2024-05-27","value":"19.8","unit":"breaths/min"}],"SYSBP":[{"visit":"BASELINE","visitnum":"1.0","dtc":"2024-05-14","value":"127.1","unit":"mmHg"},{"visit":"DAY 3","visitnum":"2.0","dtc":"2024-05-17","value":"127.1","unit":"mmHg"},{"visit":"DAY 5","visitnum":"3.0","dtc":"2024-05-19","value":"131.7","unit":"mmHg"},{"visit":"DAY 14","visitnum":"4.0","dtc":"2024-05-27","value":"133.8","unit":"mmHg"}],"TEMP":[{"visit":"BASELINE","visitnum":"1.0","dtc":"2024-05-14","value":"36.8","unit":"C"},{"visit":"DAY 3","visitnum":"2.0","dtc":"2024-05-17","value":"36.7","unit":"C"},{"visit":"DAY 5","visitnum":"3.0","dtc":"2024-05-19","value":"36.9","unit":"C"},{"visit":"DAY 14","visitnum":"4.0","dtc":"2024-05-27","value":"36.8","unit":"C"}],"WEIGHT":[{"visit":"BASELINE","visitnum":"1.0","dtc":"2024-05-14","value":"51.1","unit":"kg"},{"visit":"DAY 3","visitnum":"2.0","dtc":"2024-05-17","value":"53.6","unit":"kg"},{"visit":"DAY 5","visitnum":"3.0","dtc":"2024-05-19","value":"53.4","unit":"kg"},{"visit":"DAY 14","visitnum":"4.0","dtc":"2024-05-27","value":"57.0","unit":"kg"}]},"results":[{"seq":"1","testcd":"BMI","test":"BMI","cat":null,"orres":"23.7","orresu":"kg/m2","stresc":"23.7","stresn":"23.7","stresu":"kg/m2","stnrlo":null,"stnrhi":null,"nrind":null,"pos":null,"loc":null,"dtc":"2024-05-14","dy":"1","visit":"BASELINE","visitnum":"1.0","epoch":"TREATMENT"},{"seq":"2","testcd":"DIABP","test":"Diastolic Blood Pressure","cat":null,"orres":"88.7","orresu":"mmHg","stresc":"88.7","stresn":"88.7","stresu":"mmHg","stnrlo":null,"stnrhi":null,"nrind":null,"pos":null,"loc":null,"dtc":"2024-05-14","dy":"1","visit":"BASELINE","visitnum":"1.0","epoch":"TREATMENT"},{"seq":"3","testcd":"HEIGHT","test":"Height","cat":null,"orres":"146.7","orresu":"cm","stresc":"146.7","stresn":"146.7","stresu":"cm","stnrlo":null,"stnrhi":null,"nrind":null,"pos":null,"loc":null,"dtc":"2024-05-14","dy":"1","visit":"BASELINE","visitnum":"1.0","epoch":"TREATMENT"},{"seq":"4","testcd":"PULSE","test":"Pulse Rate","cat":null,"orres":"46.9","orresu":"beats/min","stresc":"46.9","stresn":"46.9","stresu":"beats/min","stnrlo":null,"stnrhi":null,"nrind":null,"pos":null,"loc":null,"dtc":"2024-05-14","dy":"1","visit":"BASELINE","visitnum":"1.0","epoch":"TREATMENT"},{"seq":"5","testcd":"RESP","test":"Respiratory Rate","cat":null,"orres":"19.9","orresu":"breaths/min","stresc":"19.9","stresn":"19.9","stresu":"breaths/min","stnrlo":null,"stnrhi":null,"nrind":null,"pos":null,"loc":null,"dtc":"2024-05-14","dy":"1","visit":"BASELINE","visitnum":"1.0","epoch":"TREATMENT"},{"seq":"6","testcd":"SYSBP","test":"Systolic Blood Pressure","cat":null,"orres":"127.1","orresu":"mmHg","stresc":"127.1","stresn":"127.1","stresu":"mmHg","stnrlo":null,"stnrhi":null,"nrind":null,"pos":null,"loc":null,"dtc":"2024-05-14","dy":"1","visit":"BASELINE","visitnum":"1.0","epoch":"TREATMENT"},{"seq":"7","testcd":"TEMP","test":"Temperature","cat":null,"orres":"36.8","orresu":"C","stresc":"36.8","stresn":"36.8","stresu":"C","stnrlo":null,"stnrhi":null,"nrind":null,"pos":null,"loc":null,"dtc":"2024-05-14","dy":"1","visit":"BASELINE","visitnum":"1.0","epoch":"TREATMENT"},{"seq":"8","testcd":"WEIGHT","test":"Weight","cat":null,"orres":"51.1","orresu":"kg","stresc":"51.1","stresn":"51.1","stresu":"kg","stnrlo":null,"stnrhi":null,"nrind":null,"pos":null,"loc":null,"dtc":"2024-05-14","dy":"1","visit":"BASELINE","visitnum":"1.0","epoch":"TREATMENT"},{"seq":"9","testcd":"BMI","test":"BMI","cat":null,"orres":"24.8","orresu":"kg/m2","stresc":"24.8","stresn":"24.8","stresu":"kg/m2","stnrlo":null,"stnrhi":null,"nrind":null,"pos":null,"loc":null,"dtc":"2024-05-17","dy":"4","visit":"DAY 3","visitnum":"2.0","epoch":"TREATMENT"},{"seq":"10","testcd":"DIABP","test":"Diastolic Blood Pressure","cat":null,"orres":"88.8","orresu":"mmHg","stresc":"88.8","stresn":"88.8","stresu":"mmHg","stnrlo":null,"stnrhi":null,"nrind":null,"pos":null,"loc":null,"dtc":"2024-05-17","dy":"4","visit":"DAY 3","visitnum":"2.0","epoch":"TREATMENT"},{"seq":"11","testcd":"HEIGHT","test":"Height","cat":null,"orres":"147.0","orresu":"cm","stresc":"147.0","stresn":"147.0","stresu":"cm","stnrlo":null,"stnrhi":null,"nrind":null,"pos":null,"loc":null,"dtc":"2024-05-17","dy":"4","visit":"DAY 3","visitnum":"2.0","epoch":"TREATMENT"},{"seq":"12","testcd":"PULSE","test":"Pulse Rate","cat":null,"orres":"48.2","orresu":"beats/min","stresc":"48.2","stresn":"48.2","stresu":"beats/min","stnrlo":null,"stnrhi":null,"nrind":null,"pos":null,"loc":null,"dtc":"2024-05-17","dy":"4","visit":"DAY 3","visitnum":"2.0","epoch":"TREATMENT"},{"seq":"13","testcd":"RESP","test":"Respiratory Rate","cat":null,"orres":"19.5","orresu":"breaths/min","stresc":"19.5","stresn":"19.5","stresu":"breaths/min","stnrlo":null,"stnrhi":null,"nrind":null,"pos":null,"loc":null,"dtc":"2024-05-17","dy":"4","visit":"DAY 3","visitnum":"2.0","epoch":"TREATMENT"},{"seq":"14","testcd":"SYSBP","test":"Systolic Blood Pressure","cat":null,"orres":"127.1","orresu":"mmHg","stresc":"127.1","stresn":"127.1","stresu":"mmHg","stnrlo":null,"stnrhi":null,"nrind":null,"pos":null,"loc":null,"dtc":"2024-05-17","dy":"4","visit":"DAY 3","visitnum":"2.0","epoch":"TREATMENT"},{"seq":"15","testcd":"TEMP","test":"Temperature","cat":null,"orres":"36.7","orresu":"C","stresc":"36.7","stresn":"36.7","stresu":"C","stnrlo":null,"stnrhi":null,"nrind":null,"pos":null,"loc":null,"dtc":"2024-05-17","dy":"4","visit":"DAY 3","visitnum":"2.0","epoch":"TREATMENT"},{"seq":"16","testcd":"WEIGHT","test":"Weight","cat":null,"orres":"53.6","orresu":"kg","stresc":"53.6","stresn":"53.6","stresu":"kg","stnrlo":null,"stnrhi":null,"nrind":null,"pos":null,"loc":null,"dtc":"2024-05-17","dy":"4","visit":"DAY 3","visitnum":"2.0","epoch":"TREATMENT"},{"seq":"17","testcd":"BMI","test":"BMI","cat":null,"orres":"24.9","orresu":"kg/m2","stresc":"24.9","stresn":"24.9","stresu":"kg/m2","stnrlo":null,"stnrhi":null,"nrind":null,"pos":null,"loc":null,"dtc":"2024-05-19","dy":"6","visit":"DAY 5","visitnum":"3.0","epoch":"TREATMENT"},{"seq":"18","testcd":"DIABP","test":"Diastolic Blood Pressure","cat":null,"orres":"91.1","orresu":"mmHg","stresc":"91.1","stresn":"91.1","stresu":"mmHg","stnrlo":null,"stnrhi":null,"nrind":null,"pos":null,"loc":null,"dtc":"2024-05-19","dy":"6","visit":"DAY 5","visitnum":"3.0","epoch":"TREATMENT"},{"seq":"19","testcd":"HEIGHT","test":"Height","cat":null,"orres":"146.4","orresu":"cm","stresc":"146.4","stresn":"146.4","stresu":"cm","stnrlo":null,"stnrhi":null,"nrind":null,"pos":null,"loc":null,"dtc":"2024-05-19","dy":"6","visit":"DAY 5","visitnum":"3.0","epoch":"TREATMENT"},{"seq":"20","testcd":"PULSE","test":"Pulse Rate","cat":null,"orres":"54.4","orresu":"beats/min","stresc":"54.4","stresn":"54.4","stresu":"beats/min","stnrlo":null,"stnrhi":null,"nrind":null,"pos":null,"loc":null,"dtc":"2024-05-19","dy":"6","visit":"DAY 5","visitnum":"3.0","epoch":"TREATMENT"},{"seq":"21","testcd":"RESP","test":"Respiratory Rate","cat":null,"orres":"19.8","orresu":"breaths/min","stresc":"19.8","stresn":"19.8","stresu":"breaths/min","stnrlo":null,"stnrhi":null,"nrind":null,"pos":null,"loc":null,"dtc":"2024-05-19","dy":"6","visit":"DAY 5","visitnum":"3.0","epoch":"TREATMENT"},{"seq":"22","testcd":"SYSBP","test":"Systolic Blood Pressure","cat":null,"orres":"131.7","orresu":"mmHg","stresc":"131.7","stresn":"131.7","stresu":"mmHg","stnrlo":null,"stnrhi":null,"nrind":null,"pos":null,"loc":null,"dtc":"2024-05-19","dy":"6","visit":"DAY 5","visitnum":"3.0","epoch":"TREATMENT"},{"seq":"23","testcd":"TEMP","test":"Temperature","cat":null,"orres":"36.9","orresu":"C","stresc":"36.9","stresn":"36.9","stresu":"C","stnrlo":null,"stnrhi":null,"nrind":null,"pos":null,"loc":null,"dtc":"2024-05-19","dy":"6","visit":"DAY 5","visitnum":"3.0","epoch":"TREATMENT"},{"seq":"24","testcd":"WEIGHT","test":"Weight","cat":null,"orres":"53.4","orresu":"kg","stresc":"53.4","stresn":"53.4","stresu":"kg","stnrlo":null,"stnrhi":null,"nrind":null,"pos":null,"loc":null,"dtc":"2024-05-19","dy":"6","visit":"DAY 5","visitnum":"3.0","epoch":"TREATMENT"},{"seq":"25","testcd":"BMI","test":"BMI","cat":null,"orres":"26.7","orresu":"kg/m2","stresc":"26.7","stresn":"26.7","stresu":"kg/m2","stnrlo":null,"stnrhi":null,"nrind":null,"pos":null,"loc":null,"dtc":"2024-05-27","dy":"14","visit":"DAY 14","visitnum":"4.0","epoch":"FOLLOW-UP"},{"seq":"26","testcd":"DIABP","test":"Diastolic Blood Pressure","cat":null,"orres":"92.8","orresu":"mmHg","stresc":"92.8","stresn":"92.8","stresu":"mmHg","stnrlo":null,"stnrhi":null,"nrind":null,"pos":null,"loc":null,"dtc":"2024-05-27","dy":"14","visit":"DAY 14","visitnum":"4.0","epoch":"FOLLOW-UP"},{"seq":"27","testcd":"HEIGHT","test":"Height","cat":null,"orres":"146.1","orresu":"cm","stresc":"146.1","stresn":"146.1","stresu":"cm","stnrlo":null,"stnrhi":null,"nrind":null,"pos":null,"loc":null,"dtc":"2024-05-27","dy":"14","visit":"DAY 14","visitnum":"4.0","epoch":"FOLLOW-UP"},{"seq":"28","testcd":"PULSE","test":"Pulse Rate","cat":null,"orres":"57.5","orresu":"beats/min","stresc":"57.5","stresn":"57.5","stresu":"beats/min","stnrlo":null,"stnrhi":null,"nrind":null,"pos":null,"loc":null,"dtc":"2024-05-27","dy":"14","visit":"DAY 14","visitnum":"4.0","epoch":"FOLLOW-UP"},{"seq":"29","testcd":"RESP","test":"Respiratory Rate","cat":null,"orres":"19.8","orresu":"breaths/min","stresc":"19.8","stresn":"19.8","stresu":"breaths/min","stnrlo":null,"stnrhi":null,"nrind":null,"pos":null,"loc":null,"dtc":"2024-05-27","dy":"14","visit":"DAY 14","visitnum":"4.0","epoch":"FOLLOW-UP"},{"seq":"30","testcd":"SYSBP","test":"Systolic Blood Pressure","cat":null,"orres":"133.8","orresu":"mmHg","stresc":"133.8","stresn":"133.8","stresu":"mmHg","stnrlo":null,"stnrhi":null,"nrind":null,"pos":null,"loc":null,"dtc":"2024-05-27","dy":"14","visit":"DAY 14","visitnum":"4.0","epoch":"FOLLOW-UP"},{"seq":"31","testcd":"TEMP","test":"Temperature","cat":null,"orres":"36.8","orresu":"C","stresc":"36.8","stresn":"36.8","stresu":"C","stnrlo":null,"stnrhi":null,"nrind":null,"pos":null,"loc":null,"dtc":"2024-05-27","dy":"14","visit":"DAY 14","visitnum":"4.0","epoch":"FOLLOW-UP"},{"seq":"32","testcd":"WEIGHT","test":"Weight","cat":null,"orres":"57.0","orresu":"kg","stresc":"57.0","stresn":"57.0","stresu":"kg","stnrlo":null,"stnrhi":null,"nrind":null,"pos":null,"loc":null,"dtc":"2024-05-27","dy":"14","visit":"DAY 14","visitnum":"4.0","epoch":"FOLLOW-UP"}]},"section_10_questionnaires_and_scores":{"questionnaires":[],"findings_about":[]},"section_11_protocol_deviations":{"deviations":[],"total":0},"section_12_disposition":{"completion_status":"COMPLETED","disposition_records":[{"seq":"1","term":"INFORMED CONSENT OBTAINED","decod":"INFORMED CONSENT OBTAINED","cat":"PROTOCOL MILESTONE","scat":null,"dtc":"2024-04-12","dy":null,"visit":null,"epoch":"SCREENING"},{"seq":"2","term":"RANDOMIZED","decod":"RANDOMIZED","cat":"PROTOCOL MILESTONE","scat":null,"dtc":"2024-05-14","dy":null,"visit":null,"epoch":"TREATMENT"},{"seq":"3","term":"COMPLETED","decod":"COMPLETED","cat":"DISPOSITION EVENT","scat":null,"dtc":"2024-06-11","dy":null,"visit":null,"epoch":"FOLLOW-UP"}],"death":null},"section_13_hospitalizations":{"items":[],"total":0},"section_14_substance_use":{"items":[{"seq":"1","substance":"ALCOHOL","decod":"ALCOHOL","cat":"ALCOHOL","scat":null,"usage":"Y","dose":"10.0","dosu":"DRINKS/WEEK","freq":"QW","start_dtc":"2023-04-13","end_dtc":null},{"seq":"2","substance":"COFFEE","decod":"COFFEE","cat":"CAFFEINE","scat":null,"usage":"Y","dose":"4.0","dosu":"CUPS/DAY","freq":"QD","start_dtc":"1999-04-19","end_dtc":null},{"seq":"3","substance":"CIGARETTES","decod":"CIGARETTES","cat":"TOBACCO","scat":"CIGARETTES","usage":"Y","dose":null,"dosu":null,"freq":null,"start_dtc":"1991-04-21","end_dtc":"1994-04-20"}],"total":3},"section_15_subject_status":{"items":[{"seq":"1","testcd":"SURVSTAT","test":"Survival Status","orres":"ALIVE","stresc":"ALIVE","dtc":"2024-05-27","visit":"DAY 14","epoch":"FOLLOW-UP"},{"seq":"2","testcd":"SURVSTAT","test":"Survival Status","orres":"ALIVE","stresc":"ALIVE","dtc":"2024-06-10","visit":"DAY 28","epoch":"FOLLOW-UP"}],"total":2}}