{"subject_id":"COVID-THER-301-SITE003-0321","study_id":"COVID-THER-301","generated_at":"2026-06-12T05:16:01.173191+00:00","sdtmig_version":"3.4","flags":{"has_serious_ae":false,"has_fatal_ae":false,"has_protocol_deviation":false,"n_protocol_deviations":0,"n_adverse_events":0,"n_concomitant_meds":2,"max_ae_severity":null,"screen_failure":false,"discontinued_early":false,"discontinuation_reason":null,"death":false,"exposure_days":4},"timeline":[{"dtc":"2023-04-09","dy":"-395","event":"CM START: LISINOPRIL","domain":"CM","category":"concomitant_med"},{"dtc":"2024-04-08","dy":"-30","event":"INFORMED CONSENT OBTAINED","domain":"DS","category":"milestone"},{"dtc":"2024-05-08","dy":"1","event":"RANDOMIZED","domain":"DS","category":"milestone"},{"dtc":"2024-05-08","dy":"1","event":"FIRST DOSE: ANTIVIRAL","domain":"EX","category":"exposure"},{"dtc":"2024-05-08","dy":"1","event":"VISIT: BASELINE","domain":"SV","category":"visit"},{"dtc":"2024-05-10","dy":"3","event":"VISIT: DAY 3","domain":"SV","category":"visit"},{"dtc":"2024-05-10","dy":"3","event":"CM START: METFORMIN","domain":"CM","category":"concomitant_med"},{"dtc":"2024-05-13","dy":"6","event":"VISIT: DAY 5","domain":"SV","category":"visit"},{"dtc":"2024-05-22","dy":"15","event":"VISIT: DAY 14","domain":"SV","category":"visit"},{"dtc":"2024-06-05","dy":"29","event":"COMPLETED","domain":"DS","category":"milestone"},{"dtc":"2024-06-05","dy":"29","event":"VISIT: DAY 28","domain":"SV","category":"visit"}],"section_1_demographics":{"usubjid":"COVID-THER-301-SITE003-0321","subjid":"0321","siteid":"SITE003","age":"36","ageu":"YEARS","sex":"F","race":"WHITE","ethnicity":"NOT HISPANIC OR LATINO","country":"USA","arm":"Antiviral 200mg BID","armcd":"AV200","actarm":"Antiviral 200mg BID","actarmcd":"AV200","randomization_date":null,"informed_consent_date":"2024-04-08","reference_start_date":"2024-05-08","reference_end_date":"2024-06-05","screen_failure":false,"death_flag":null,"death_date":null,"subject_characteristics":[{"testcd":"ALCUSE","test":"Alcohol Use","orres":"NON-DRINKER","stresc":"NON-DRINKER","visit":null,"dtc":"2024-04-08"},{"testcd":"BMI","test":"Body Mass Index","orres":"26.9","stresc":"26.9","visit":null,"dtc":"2024-04-08"},{"testcd":"DURDIS","test":"Duration of Disease","orres":"73 months","stresc":"73","visit":null,"dtc":"2024-04-08"},{"testcd":"TOBPKYR","test":"Tobacco Pack-Years","orres":"10","stresc":"10","visit":null,"dtc":"2024-04-08"},{"testcd":"TOBUSE","test":"Tobacco Use","orres":"FORMER SMOKER","stresc":"FORMER SMOKER","visit":null,"dtc":"2024-04-08"}]},"section_2_medical_history":{"items":[{"seq":"1","term":"DEPRESSION","decod":"DEPRESSION","cat":"PSYCHIATRIC","scat":null,"presp":null,"occur":null,"status":null,"onset_dtc":"2019-04-10","end_dtc":"2022-04-10","visit":null},{"seq":"2","term":"DIABETES MELLITUS TYPE 2","decod":"DIABETES MELLITUS TYPE 2","cat":"ENDOCRINE","scat":null,"presp":null,"occur":null,"status":null,"onset_dtc":"2018-04-10","end_dtc":"2022-08-23","visit":null},{"seq":"3","term":"GASTROESOPHAGEAL REFLUX DISEASE","decod":"GASTROESOPHAGEAL REFLUX DISEASE","cat":"GASTROINTESTINAL","scat":null,"presp":null,"occur":null,"status":null,"onset_dtc":"2023-04-09","end_dtc":"2023-08-23","visit":null},{"seq":"4","term":"HYPERTENSION","decod":"HYPERTENSION","cat":"CARDIOVASCULAR","scat":null,"presp":null,"occur":null,"status":null,"onset_dtc":"2023-04-09","end_dtc":null,"visit":null}]},"section_3_inclusion_exclusion":{"criteria":[]},"section_4_trial_participation":{"visits":[{"visitnum":"1.0","visit":"BASELINE","start_dtc":"2024-05-08","end_dtc":"2024-05-08","updes":null},{"visitnum":"2.0","visit":"DAY 3","start_dtc":"2024-05-10","end_dtc":"2024-05-10","updes":null},{"visitnum":"3.0","visit":"DAY 5","start_dtc":"2024-05-13","end_dtc":"2024-05-13","updes":null},{"visitnum":"4.0","visit":"DAY 14","start_dtc":"2024-05-22","end_dtc":"2024-05-22","updes":null},{"visitnum":"5.0","visit":"DAY 28","start_dtc":"2024-06-05","end_dtc":"2024-06-05","updes":null}],"epochs":[{"seq":"1","etcd":"SCRN","element":"Screening","start_dtc":"2024-05-07","end_dtc":"2024-05-08","updes":null},{"seq":"2","etcd":"TRT","element":"Treatment","start_dtc":"2024-05-08","end_dtc":"2024-05-13","updes":null},{"seq":"3","etcd":"FU","element":"Follow-up","start_dtc":"2024-05-13","end_dtc":"2024-06-04","updes":null}],"visit_count":5},"section_5_concomitant_medications":{"medications":[{"seq":"1","trt":"LISINOPRIL","decod":"LISINOPRIL","cat":"PRIOR","dose":"10","doseu":null,"dosef":"QD","route":"ORAL","indication":"HYPERTENSION","start_dtc":"2023-04-09","end_dtc":"2024-06-05","ongoing":null,"visit":null},{"seq":"2","trt":"METFORMIN","decod":"METFORMIN","cat":"CONCOMITANT","dose":null,"doseu":null,"dosef":"BID","route":"ORAL","indication":null,"start_dtc":"2024-05-10","end_dtc":"2024-05-26","ongoing":null,"visit":null}]},"section_6_exposure":{"exposure_as_administered":[{"seq":"1","trt":"ANTIVIRAL","dose":"200.0","doseu":null,"dosef":"BID","route":"ORAL","lot":null,"start_dtc":"2024-05-08","end_dtc":"2024-05-12","start_dy":"1","end_dy":"5","epoch":"TREATMENT","visit":null}],"exposure_as_collected":[{"seq":"1","trt":"ANTIVIRAL","dose":"200.0","doseu":null,"dosef":"BID","route":"ORAL","start_dtc":"2024-05-08","end_dtc":"2024-05-08","visit":"BASELINE"},{"seq":"2","trt":"ANTIVIRAL","dose":"200.0","doseu":null,"dosef":"BID","route":"ORAL","start_dtc":"2024-05-08","end_dtc":"2024-05-08","visit":"BASELINE"},{"seq":"3","trt":"ANTIVIRAL","dose":"200.0","doseu":null,"dosef":"BID","route":"ORAL","start_dtc":"2024-05-09","end_dtc":"2024-05-09","visit":"BASELINE"},{"seq":"4","trt":"ANTIVIRAL","dose":"200.0","doseu":null,"dosef":"BID","route":"ORAL","start_dtc":"2024-05-09","end_dtc":"2024-05-09","visit":"BASELINE"},{"seq":"5","trt":"ANTIVIRAL","dose":"200.0","doseu":null,"dosef":"BID","route":"ORAL","start_dtc":"2024-05-10","end_dtc":"2024-05-10","visit":"BASELINE"},{"seq":"6","trt":"ANTIVIRAL","dose":"200.0","doseu":null,"dosef":"BID","route":"ORAL","start_dtc":"2024-05-10","end_dtc":"2024-05-10","visit":"BASELINE"},{"seq":"7","trt":"ANTIVIRAL","dose":"200.0","doseu":null,"dosef":"BID","route":"ORAL","start_dtc":"2024-05-11","end_dtc":"2024-05-11","visit":"BASELINE"},{"seq":"8","trt":"ANTIVIRAL","dose":"200.0","doseu":null,"dosef":"BID","route":"ORAL","start_dtc":"2024-05-11","end_dtc":"2024-05-11","visit":"BASELINE"},{"seq":"9","trt":"ANTIVIRAL","dose":"200.0","doseu":null,"dosef":"BID","route":"ORAL","start_dtc":"2024-05-12","end_dtc":"2024-05-12","visit":"DAY 3"},{"seq":"10","trt":"ANTIVIRAL","dose":"200.0","doseu":null,"dosef":"BID","route":"ORAL","start_dtc":"2024-05-12","end_dtc":"2024-05-12","visit":"DAY 3"}]},"section_7_adverse_events":{"summary":{"total_aes":0,"serious_aes":0,"fatal_aes":0,"by_severity":{},"by_soc":{}},"events":[]},"section_8_laboratory_results":{"summary":{"total_records":35,"abnormal_count":5,"abnormal_pct":14.3},"shift_summary":[{"testcd":"ALT","baseline_value":32.02,"baseline_nrind":"NORMAL","worst_post_baseline_value":31.57,"worst_post_baseline_nrind":"NORMAL","worst_visit":"DAY 14"},{"testcd":"AST","baseline_value":17.75,"baseline_nrind":"NORMAL","worst_post_baseline_value":18.91,"worst_post_baseline_nrind":"NORMAL","worst_visit":"DAY 3"},{"testcd":"CREAT","baseline_value":60.9,"baseline_nrind":"NORMAL","worst_post_baseline_value":62.07,"worst_post_baseline_nrind":"NORMAL","worst_visit":"DAY 3"},{"testcd":"GLUC","baseline_value":7.26,"baseline_nrind":"HIGH","worst_post_baseline_value":7.41,"worst_post_baseline_nrind":"HIGH","worst_visit":"DAY 3"},{"testcd":"HGB","baseline_value":132.71,"baseline_nrind":"NORMAL","worst_post_baseline_value":129.7,"worst_post_baseline_nrind":"NORMAL","worst_visit":"DAY 28"},{"testcd":"PLAT","baseline_value":338.75,"baseline_nrind":"NORMAL","worst_post_baseline_value":355.97,"worst_post_baseline_nrind":"NORMAL","worst_visit":"DAY 28"},{"testcd":"WBC","baseline_value":7.42,"baseline_nrind":"NORMAL","worst_post_baseline_value":7.04,"worst_post_baseline_nrind":"NORMAL","worst_visit":"DAY 3"}],"results":[{"seq":"1","testcd":"ALT","test":"Alanine Aminotransferase","cat":"CHEMISTRY","orres":"32.02","orresu":"U/L","stresc":"32.02","stresn":"32.02","stresu":"U/L","stnrlo":"7","stnrhi":"56","nrind":"NORMAL","fast":null,"dtc":"2024-05-08","dy":"1","visit":"BASELINE","visitnum":"1.0","epoch":"TREATMENT","spec":null,"method":null},{"seq":"2","testcd":"AST","test":"Aspartate Aminotransferase","cat":"CHEMISTRY","orres":"17.75","orresu":"U/L","stresc":"17.75","stresn":"17.75","stresu":"U/L","stnrlo":"10","stnrhi":"40","nrind":"NORMAL","fast":null,"dtc":"2024-05-08","dy":"1","visit":"BASELINE","visitnum":"1.0","epoch":"TREATMENT","spec":null,"method":null},{"seq":"3","testcd":"CREAT","test":"Creatinine","cat":"CHEMISTRY","orres":"60.9","orresu":"umol/L","stresc":"60.9","stresn":"60.9","stresu":"umol/L","stnrlo":"44","stnrhi":"80","nrind":"NORMAL","fast":null,"dtc":"2024-05-08","dy":"1","visit":"BASELINE","visitnum":"1.0","epoch":"TREATMENT","spec":null,"method":null},{"seq":"4","testcd":"GLUC","test":"Glucose","cat":"CHEMISTRY","orres":"7.26","orresu":"mmol/L","stresc":"7.26","stresn":"7.26","stresu":"mmol/L","stnrlo":"3.9","stnrhi":"5.6","nrind":"HIGH","fast":null,"dtc":"2024-05-08","dy":"1","visit":"BASELINE","visitnum":"1.0","epoch":"TREATMENT","spec":null,"method":null},{"seq":"5","testcd":"HGB","test":"Hemoglobin","cat":"HEMATOLOGY","orres":"132.71","orresu":"g/L","stresc":"132.71","stresn":"132.71","stresu":"g/L","stnrlo":"120","stnrhi":"155","nrind":"NORMAL","fast":null,"dtc":"2024-05-08","dy":"1","visit":"BASELINE","visitnum":"1.0","epoch":"TREATMENT","spec":null,"method":null},{"seq":"6","testcd":"PLAT","test":"Platelets","cat":"HEMATOLOGY","orres":"338.75","orresu":"10^9/L","stresc":"338.75","stresn":"338.75","stresu":"10^9/L","stnrlo":"150","stnrhi":"400","nrind":"NORMAL","fast":null,"dtc":"2024-05-08","dy":"1","visit":"BASELINE","visitnum":"1.0","epoch":"TREATMENT","spec":null,"method":null},{"seq":"7","testcd":"WBC","test":"Leukocytes","cat":"HEMATOLOGY","orres":"7.42","orresu":"10^9/L","stresc":"7.42","stresn":"7.42","stresu":"10^9/L","stnrlo":"4.0","stnrhi":"11.0","nrind":"NORMAL","fast":null,"dtc":"2024-05-08","dy":"1","visit":"BASELINE","visitnum":"1.0","epoch":"TREATMENT","spec":null,"method":null},{"seq":"8","testcd":"ALT","test":"Alanine Aminotransferase","cat":"CHEMISTRY","orres":"29.72","orresu":"U/L","stresc":"29.72","stresn":"29.72","stresu":"U/L","stnrlo":"7","stnrhi":"56","nrind":"NORMAL","fast":null,"dtc":"2024-05-10","dy":"3","visit":"DAY 3","visitnum":"2.0","epoch":"TREATMENT","spec":null,"method":null},{"seq":"9","testcd":"AST","test":"Aspartate Aminotransferase","cat":"CHEMISTRY","orres":"18.91","orresu":"U/L","stresc":"18.91","stresn":"18.91","stresu":"U/L","stnrlo":"10","stnrhi":"40","nrind":"NORMAL","fast":null,"dtc":"2024-05-10","dy":"3","visit":"DAY 3","visitnum":"2.0","epoch":"TREATMENT","spec":null,"method":null},{"seq":"10","testcd":"CREAT","test":"Creatinine","cat":"CHEMISTRY","orres":"62.07","orresu":"umol/L","stresc":"62.07","stresn":"62.07","stresu":"umol/L","stnrlo":"44","stnrhi":"80","nrind":"NORMAL","fast":null,"dtc":"2024-05-10","dy":"3","visit":"DAY 3","visitnum":"2.0","epoch":"TREATMENT","spec":null,"method":null},{"seq":"11","testcd":"GLUC","test":"Glucose","cat":"CHEMISTRY","orres":"7.41","orresu":"mmol/L","stresc":"7.41","stresn":"7.41","stresu":"mmol/L","stnrlo":"3.9","stnrhi":"5.6","nrind":"HIGH","fast":null,"dtc":"2024-05-10","dy":"3","visit":"DAY 3","visitnum":"2.0","epoch":"TREATMENT","spec":null,"method":null},{"seq":"12","testcd":"HGB","test":"Hemoglobin","cat":"HEMATOLOGY","orres":"132.76","orresu":"g/L","stresc":"132.76","stresn":"132.76","stresu":"g/L","stnrlo":"120","stnrhi":"155","nrind":"NORMAL","fast":null,"dtc":"2024-05-10","dy":"3","visit":"DAY 3","visitnum":"2.0","epoch":"TREATMENT","spec":null,"method":null},{"seq":"13","testcd":"PLAT","test":"Platelets","cat":"HEMATOLOGY","orres":"328.38","orresu":"10^9/L","stresc":"328.38","stresn":"328.38","stresu":"10^9/L","stnrlo":"150","stnrhi":"400","nrind":"NORMAL","fast":null,"dtc":"2024-05-10","dy":"3","visit":"DAY 3","visitnum":"2.0","epoch":"TREATMENT","spec":null,"method":null},{"seq":"14","testcd":"WBC","test":"Leukocytes","cat":"HEMATOLOGY","orres":"7.04","orresu":"10^9/L","stresc":"7.04","stresn":"7.04","stresu":"10^9/L","stnrlo":"4.0","stnrhi":"11.0","nrind":"NORMAL","fast":null,"dtc":"2024-05-10","dy":"3","visit":"DAY 3","visitnum":"2.0","epoch":"TREATMENT","spec":null,"method":null},{"seq":"15","testcd":"ALT","test":"Alanine Aminotransferase","cat":"CHEMISTRY","orres":"29.27","orresu":"U/L","stresc":"29.27","stresn":"29.27","stresu":"U/L","stnrlo":"7","stnrhi":"56","nrind":"NORMAL","fast":null,"dtc":"2024-05-13","dy":"6","visit":"DAY 5","visitnum":"3.0","epoch":"TREATMENT","spec":null,"method":null},{"seq":"16","testcd":"AST","test":"Aspartate Aminotransferase","cat":"CHEMISTRY","orres":null,"orresu":null,"stresc":null,"stresn":null,"stresu":null,"stnrlo":null,"stnrhi":null,"nrind":null,"fast":null,"dtc":"2024-05-13","dy":"6","visit":"DAY 5","visitnum":"3.0","epoch":"TREATMENT","spec":null,"method":null},{"seq":"17","testcd":"CREAT","test":"Creatinine","cat":"CHEMISTRY","orres":"61.11","orresu":"umol/L","stresc":"61.11","stresn":"61.11","stresu":"umol/L","stnrlo":"44","stnrhi":"80","nrind":"NORMAL","fast":null,"dtc":"2024-05-13","dy":"6","visit":"DAY 5","visitnum":"3.0","epoch":"TREATMENT","spec":null,"method":null},{"seq":"18","testcd":"GLUC","test":"Glucose","cat":"CHEMISTRY","orres":"7.28","orresu":"mmol/L","stresc":"7.28","stresn":"7.28","stresu":"mmol/L","stnrlo":"3.9","stnrhi":"5.6","nrind":"HIGH","fast":null,"dtc":"2024-05-13","dy":"6","visit":"DAY 5","visitnum":"3.0","epoch":"TREATMENT","spec":null,"method":null},{"seq":"19","testcd":"HGB","test":"Hemoglobin","cat":"HEMATOLOGY","orres":"132.06","orresu":"g/L","stresc":"132.06","stresn":"132.06","stresu":"g/L","stnrlo":"120","stnrhi":"155","nrind":"NORMAL","fast":null,"dtc":"2024-05-13","dy":"6","visit":"DAY 5","visitnum":"3.0","epoch":"TREATMENT","spec":null,"method":null},{"seq":"20","testcd":"PLAT","test":"Platelets","cat":"HEMATOLOGY","orres":"343.35","orresu":"10^9/L","stresc":"343.35","stresn":"343.35","stresu":"10^9/L","stnrlo":"150","stnrhi":"400","nrind":"NORMAL","fast":null,"dtc":"2024-05-13","dy":"6","visit":"DAY 5","visitnum":"3.0","epoch":"TREATMENT","spec":null,"method":null},{"seq":"21","testcd":"WBC","test":"Leukocytes","cat":"HEMATOLOGY","orres":"6.97","orresu":"10^9/L","stresc":"6.97","stresn":"6.97","stresu":"10^9/L","stnrlo":"4.0","stnrhi":"11.0","nrind":"NORMAL","fast":null,"dtc":"2024-05-13","dy":"6","visit":"DAY 5","visitnum":"3.0","epoch":"TREATMENT","spec":null,"method":null},{"seq":"22","testcd":"ALT","test":"Alanine Aminotransferase","cat":"CHEMISTRY","orres":"31.57","orresu":"U/L","stresc":"31.57","stresn":"31.57","stresu":"U/L","stnrlo":"7","stnrhi":"56","nrind":"NORMAL","fast":null,"dtc":"2024-05-22","dy":"15","visit":"DAY 14","visitnum":"4.0","epoch":"FOLLOW-UP","spec":null,"method":null},{"seq":"23","testcd":"AST","test":"Aspartate Aminotransferase","cat":"CHEMISTRY","orres":"17.64","orresu":"U/L","stresc":"17.64","stresn":"17.64","stresu":"U/L","stnrlo":"10","stnrhi":"40","nrind":"NORMAL","fast":null,"dtc":"2024-05-22","dy":"15","visit":"DAY 14","visitnum":"4.0","epoch":"FOLLOW-UP","spec":null,"method":null},{"seq":"24","testcd":"CREAT","test":"Creatinine","cat":"CHEMISTRY","orres":"60.04","orresu":"umol/L","stresc":"60.04","stresn":"60.04","stresu":"umol/L","stnrlo":"44","stnrhi":"80","nrind":"NORMAL","fast":null,"dtc":"2024-05-22","dy":"15","visit":"DAY 14","visitnum":"4.0","epoch":"FOLLOW-UP","spec":null,"method":null},{"seq":"25","testcd":"GLUC","test":"Glucose","cat":"CHEMISTRY","orres":"7.25","orresu":"mmol/L","stresc":"7.25","stresn":"7.25","stresu":"mmol/L","stnrlo":"3.9","stnrhi":"5.6","nrind":"HIGH","fast":null,"dtc":"2024-05-22","dy":"15","visit":"DAY 14","visitnum":"4.0","epoch":"FOLLOW-UP","spec":null,"method":null},{"seq":"26","testcd":"HGB","test":"Hemoglobin","cat":"HEMATOLOGY","orres":"130.91","orresu":"g/L","stresc":"130.91","stresn":"130.91","stresu":"g/L","stnrlo":"120","stnrhi":"155","nrind":"NORMAL","fast":null,"dtc":"2024-05-22","dy":"15","visit":"DAY 14","visitnum":"4.0","epoch":"FOLLOW-UP","spec":null,"method":null},{"seq":"27","testcd":"PLAT","test":"Platelets","cat":"HEMATOLOGY","orres":"351.58","orresu":"10^9/L","stresc":"351.58","stresn":"351.58","stresu":"10^9/L","stnrlo":"150","stnrhi":"400","nrind":"NORMAL","fast":null,"dtc":"2024-05-22","dy":"15","visit":"DAY 14","visitnum":"4.0","epoch":"FOLLOW-UP","spec":null,"method":null},{"seq":"28","testcd":"WBC","test":"Leukocytes","cat":"HEMATOLOGY","orres":"6.66","orresu":"10^9/L","stresc":"6.66","stresn":"6.66","stresu":"10^9/L","stnrlo":"4.0","stnrhi":"11.0","nrind":"NORMAL","fast":null,"dtc":"2024-05-22","dy":"15","visit":"DAY 14","visitnum":"4.0","epoch":"FOLLOW-UP","spec":null,"method":null},{"seq":"29","testcd":"ALT","test":"Alanine Aminotransferase","cat":"CHEMISTRY","orres":"31.16","orresu":"U/L","stresc":"31.16","stresn":"31.16","stresu":"U/L","stnrlo":"7","stnrhi":"56","nrind":"NORMAL","fast":null,"dtc":"2024-06-05","dy":"29","visit":"DAY 28","visitnum":"5.0","epoch":"FOLLOW-UP","spec":null,"method":null},{"seq":"30","testcd":"AST","test":"Aspartate Aminotransferase","cat":"CHEMISTRY","orres":"17.47","orresu":"U/L","stresc":"17.47","stresn":"17.47","stresu":"U/L","stnrlo":"10","stnrhi":"40","nrind":"NORMAL","fast":null,"dtc":"2024-06-05","dy":"29","visit":"DAY 28","visitnum":"5.0","epoch":"FOLLOW-UP","spec":null,"method":null},{"seq":"31","testcd":"CREAT","test":"Creatinine","cat":"CHEMISTRY","orres":"58.96","orresu":"umol/L","stresc":"58.96","stresn":"58.96","stresu":"umol/L","stnrlo":"44","stnrhi":"80","nrind":"NORMAL","fast":null,"dtc":"2024-06-05","dy":"29","visit":"DAY 28","visitnum":"5.0","epoch":"FOLLOW-UP","spec":null,"method":null},{"seq":"32","testcd":"GLUC","test":"Glucose","cat":"CHEMISTRY","orres":"7.22","orresu":"mmol/L","stresc":"7.22","stresn":"7.22","stresu":"mmol/L","stnrlo":"3.9","stnrhi":"5.6","nrind":"HIGH","fast":null,"dtc":"2024-06-05","dy":"29","visit":"DAY 28","visitnum":"5.0","epoch":"FOLLOW-UP","spec":null,"method":null},{"seq":"33","testcd":"HGB","test":"Hemoglobin","cat":"HEMATOLOGY","orres":"129.7","orresu":"g/L","stresc":"129.7","stresn":"129.7","stresu":"g/L","stnrlo":"120","stnrhi":"155","nrind":"NORMAL","fast":null,"dtc":"2024-06-05","dy":"29","visit":"DAY 28","visitnum":"5.0","epoch":"FOLLOW-UP","spec":null,"method":null},{"seq":"34","testcd":"PLAT","test":"Platelets","cat":"HEMATOLOGY","orres":"355.97","orresu":"10^9/L","stresc":"355.97","stresn":"355.97","stresu":"10^9/L","stnrlo":"150","stnrhi":"400","nrind":"NORMAL","fast":null,"dtc":"2024-06-05","dy":"29","visit":"DAY 28","visitnum":"5.0","epoch":"FOLLOW-UP","spec":null,"method":null},{"seq":"35","testcd":"WBC","test":"Leukocytes","cat":"HEMATOLOGY","orres":"6.54","orresu":"10^9/L","stresc":"6.54","stresn":"6.54","stresu":"10^9/L","stnrlo":"4.0","stnrhi":"11.0","nrind":"NORMAL","fast":null,"dtc":"2024-06-05","dy":"29","visit":"DAY 28","visitnum":"5.0","epoch":"FOLLOW-UP","spec":null,"method":null}]},"section_9_vital_signs":{"summary":{"total_records":32},"trends":{"BMI":[{"visit":"BASELINE","visitnum":"1.0","dtc":"2024-05-08","value":"26.9","unit":"kg/m2"},{"visit":"DAY 3","visitnum":"2.0","dtc":"2024-05-10","value":"27.2","unit":"kg/m2"},{"visit":"DAY 5","visitnum":"3.0","dtc":"2024-05-13","value":"27.9","unit":"kg/m2"},{"visit":"DAY 14","visitnum":"4.0","dtc":"2024-05-22","value":"27.7","unit":"kg/m2"}],"DIABP":[{"visit":"BASELINE","visitnum":"1.0","dtc":"2024-05-08","value":"79.3","unit":"mmHg"},{"visit":"DAY 3","visitnum":"2.0","dtc":"2024-05-10","value":"80.2","unit":"mmHg"},{"visit":"DAY 5","visitnum":"3.0","dtc":"2024-05-13","value":"81.2","unit":"mmHg"},{"visit":"DAY 14","visitnum":"4.0","dtc":"2024-05-22","value":"81.4","unit":"mmHg"}],"HEIGHT":[{"visit":"BASELINE","visitnum":"1.0","dtc":"2024-05-08","value":"160.3","unit":"cm"},{"visit":"DAY 3","visitnum":"2.0","dtc":"2024-05-10","value":"159.5","unit":"cm"},{"visit":"DAY 5","visitnum":"3.0","dtc":"2024-05-13","value":"159.6","unit":"cm"},{"visit":"DAY 14","visitnum":"4.0","dtc":"2024-05-22","value":"160.4","unit":"cm"}],"PULSE":[{"visit":"BASELINE","visitnum":"1.0","dtc":"2024-05-08","value":"92.3","unit":"beats/min"},{"visit":"DAY 3","visitnum":"2.0","dtc":"2024-05-10","value":"91.5","unit":"beats/min"},{"visit":"DAY 5","visitnum":"3.0","dtc":"2024-05-13","value":"90.7","unit":"beats/min"},{"visit":"DAY 14","visitnum":"4.0","dtc":"2024-05-22","value":"86.4","unit":"beats/min"}],"RESP":[{"visit":"BASELINE","visitnum":"1.0","dtc":"2024-05-08","value":"17.9","unit":"breaths/min"},{"visit":"DAY 3","visitnum":"2.0","dtc":"2024-05-10","value":"20.1","unit":"breaths/min"},{"visit":"DAY 5","visitnum":"3.0","dtc":"2024-05-13","value":"17.2","unit":"breaths/min"},{"visit":"DAY 14","visitnum":"4.0","dtc":"2024-05-22","value":"16.6","unit":"breaths/min"}],"SYSBP":[{"visit":"BASELINE","visitnum":"1.0","dtc":"2024-05-08","value":"124.2","unit":"mmHg"},{"visit":"DAY 3","visitnum":"2.0","dtc":"2024-05-10","value":"124.4","unit":"mmHg"},{"visit":"DAY 5","visitnum":"3.0","dtc":"2024-05-13","value":"122.5","unit":"mmHg"},{"visit":"DAY 14","visitnum":"4.0","dtc":"2024-05-22","value":"121.9","unit":"mmHg"}],"TEMP":[{"visit":"BASELINE","visitnum":"1.0","dtc":"2024-05-08","value":"36.4","unit":"C"},{"visit":"DAY 3","visitnum":"2.0","dtc":"2024-05-10","value":"36.4","unit":"C"},{"visit":"DAY 5","visitnum":"3.0","dtc":"2024-05-13","value":"36.4","unit":"C"},{"visit":"DAY 14","visitnum":"4.0","dtc":"2024-05-22","value":"36.4","unit":"C"}],"WEIGHT":[{"visit":"BASELINE","visitnum":"1.0","dtc":"2024-05-08","value":"69.0","unit":"kg"},{"visit":"DAY 3","visitnum":"2.0","dtc":"2024-05-10","value":"69.1","unit":"kg"},{"visit":"DAY 5","visitnum":"3.0","dtc":"2024-05-13","value":"71.1","unit":"kg"},{"visit":"DAY 14","visitnum":"4.0","dtc":"2024-05-22","value":"71.3","unit":"kg"}]},"results":[{"seq":"1","testcd":"BMI","test":"BMI","cat":null,"orres":"26.9","orresu":"kg/m2","stresc":"26.9","stresn":"26.9","stresu":"kg/m2","stnrlo":null,"stnrhi":null,"nrind":null,"pos":null,"loc":null,"dtc":"2024-05-08","dy":"1","visit":"BASELINE","visitnum":"1.0","epoch":"TREATMENT"},{"seq":"2","testcd":"DIABP","test":"Diastolic Blood Pressure","cat":null,"orres":"79.3","orresu":"mmHg","stresc":"79.3","stresn":"79.3","stresu":"mmHg","stnrlo":null,"stnrhi":null,"nrind":null,"pos":null,"loc":null,"dtc":"2024-05-08","dy":"1","visit":"BASELINE","visitnum":"1.0","epoch":"TREATMENT"},{"seq":"3","testcd":"HEIGHT","test":"Height","cat":null,"orres":"160.3","orresu":"cm","stresc":"160.3","stresn":"160.3","stresu":"cm","stnrlo":null,"stnrhi":null,"nrind":null,"pos":null,"loc":null,"dtc":"2024-05-08","dy":"1","visit":"BASELINE","visitnum":"1.0","epoch":"TREATMENT"},{"seq":"4","testcd":"PULSE","test":"Pulse Rate","cat":null,"orres":"92.3","orresu":"beats/min","stresc":"92.3","stresn":"92.3","stresu":"beats/min","stnrlo":null,"stnrhi":null,"nrind":null,"pos":null,"loc":null,"dtc":"2024-05-08","dy":"1","visit":"BASELINE","visitnum":"1.0","epoch":"TREATMENT"},{"seq":"5","testcd":"RESP","test":"Respiratory Rate","cat":null,"orres":"17.9","orresu":"breaths/min","stresc":"17.9","stresn":"17.9","stresu":"breaths/min","stnrlo":null,"stnrhi":null,"nrind":null,"pos":null,"loc":null,"dtc":"2024-05-08","dy":"1","visit":"BASELINE","visitnum":"1.0","epoch":"TREATMENT"},{"seq":"6","testcd":"SYSBP","test":"Systolic Blood Pressure","cat":null,"orres":"124.2","orresu":"mmHg","stresc":"124.2","stresn":"124.2","stresu":"mmHg","stnrlo":null,"stnrhi":null,"nrind":null,"pos":null,"loc":null,"dtc":"2024-05-08","dy":"1","visit":"BASELINE","visitnum":"1.0","epoch":"TREATMENT"},{"seq":"7","testcd":"TEMP","test":"Temperature","cat":null,"orres":"36.4","orresu":"C","stresc":"36.4","stresn":"36.4","stresu":"C","stnrlo":null,"stnrhi":null,"nrind":null,"pos":null,"loc":null,"dtc":"2024-05-08","dy":"1","visit":"BASELINE","visitnum":"1.0","epoch":"TREATMENT"},{"seq":"8","testcd":"WEIGHT","test":"Weight","cat":null,"orres":"69.0","orresu":"kg","stresc":"69.0","stresn":"69.0","stresu":"kg","stnrlo":null,"stnrhi":null,"nrind":null,"pos":null,"loc":null,"dtc":"2024-05-08","dy":"1","visit":"BASELINE","visitnum":"1.0","epoch":"TREATMENT"},{"seq":"9","testcd":"BMI","test":"BMI","cat":null,"orres":"27.2","orresu":"kg/m2","stresc":"27.2","stresn":"27.2","stresu":"kg/m2","stnrlo":null,"stnrhi":null,"nrind":null,"pos":null,"loc":null,"dtc":"2024-05-10","dy":"3","visit":"DAY 3","visitnum":"2.0","epoch":"TREATMENT"},{"seq":"10","testcd":"DIABP","test":"Diastolic Blood Pressure","cat":null,"orres":"80.2","orresu":"mmHg","stresc":"80.2","stresn":"80.2","stresu":"mmHg","stnrlo":null,"stnrhi":null,"nrind":null,"pos":null,"loc":null,"dtc":"2024-05-10","dy":"3","visit":"DAY 3","visitnum":"2.0","epoch":"TREATMENT"},{"seq":"11","testcd":"HEIGHT","test":"Height","cat":null,"orres":"159.5","orresu":"cm","stresc":"159.5","stresn":"159.5","stresu":"cm","stnrlo":null,"stnrhi":null,"nrind":null,"pos":null,"loc":null,"dtc":"2024-05-10","dy":"3","visit":"DAY 3","visitnum":"2.0","epoch":"TREATMENT"},{"seq":"12","testcd":"PULSE","test":"Pulse Rate","cat":null,"orres":"91.5","orresu":"beats/min","stresc":"91.5","stresn":"91.5","stresu":"beats/min","stnrlo":null,"stnrhi":null,"nrind":null,"pos":null,"loc":null,"dtc":"2024-05-10","dy":"3","visit":"DAY 3","visitnum":"2.0","epoch":"TREATMENT"},{"seq":"13","testcd":"RESP","test":"Respiratory Rate","cat":null,"orres":"20.1","orresu":"breaths/min","stresc":"20.1","stresn":"20.1","stresu":"breaths/min","stnrlo":null,"stnrhi":null,"nrind":null,"pos":null,"loc":null,"dtc":"2024-05-10","dy":"3","visit":"DAY 3","visitnum":"2.0","epoch":"TREATMENT"},{"seq":"14","testcd":"SYSBP","test":"Systolic Blood Pressure","cat":null,"orres":"124.4","orresu":"mmHg","stresc":"124.4","stresn":"124.4","stresu":"mmHg","stnrlo":null,"stnrhi":null,"nrind":null,"pos":null,"loc":null,"dtc":"2024-05-10","dy":"3","visit":"DAY 3","visitnum":"2.0","epoch":"TREATMENT"},{"seq":"15","testcd":"TEMP","test":"Temperature","cat":null,"orres":"36.4","orresu":"C","stresc":"36.4","stresn":"36.4","stresu":"C","stnrlo":null,"stnrhi":null,"nrind":null,"pos":null,"loc":null,"dtc":"2024-05-10","dy":"3","visit":"DAY 3","visitnum":"2.0","epoch":"TREATMENT"},{"seq":"16","testcd":"WEIGHT","test":"Weight","cat":null,"orres":"69.1","orresu":"kg","stresc":"69.1","stresn":"69.1","stresu":"kg","stnrlo":null,"stnrhi":null,"nrind":null,"pos":null,"loc":null,"dtc":"2024-05-10","dy":"3","visit":"DAY 3","visitnum":"2.0","epoch":"TREATMENT"},{"seq":"17","testcd":"BMI","test":"BMI","cat":null,"orres":"27.9","orresu":"kg/m2","stresc":"27.9","stresn":"27.9","stresu":"kg/m2","stnrlo":null,"stnrhi":null,"nrind":null,"pos":null,"loc":null,"dtc":"2024-05-13","dy":"6","visit":"DAY 5","visitnum":"3.0","epoch":"TREATMENT"},{"seq":"18","testcd":"DIABP","test":"Diastolic Blood Pressure","cat":null,"orres":"81.2","orresu":"mmHg","stresc":"81.2","stresn":"81.2","stresu":"mmHg","stnrlo":null,"stnrhi":null,"nrind":null,"pos":null,"loc":null,"dtc":"2024-05-13","dy":"6","visit":"DAY 5","visitnum":"3.0","epoch":"TREATMENT"},{"seq":"19","testcd":"HEIGHT","test":"Height","cat":null,"orres":"159.6","orresu":"cm","stresc":"159.6","stresn":"159.6","stresu":"cm","stnrlo":null,"stnrhi":null,"nrind":null,"pos":null,"loc":null,"dtc":"2024-05-13","dy":"6","visit":"DAY 5","visitnum":"3.0","epoch":"TREATMENT"},{"seq":"20","testcd":"PULSE","test":"Pulse Rate","cat":null,"orres":"90.7","orresu":"beats/min","stresc":"90.7","stresn":"90.7","stresu":"beats/min","stnrlo":null,"stnrhi":null,"nrind":null,"pos":null,"loc":null,"dtc":"2024-05-13","dy":"6","visit":"DAY 5","visitnum":"3.0","epoch":"TREATMENT"},{"seq":"21","testcd":"RESP","test":"Respiratory Rate","cat":null,"orres":"17.2","orresu":"breaths/min","stresc":"17.2","stresn":"17.2","stresu":"breaths/min","stnrlo":null,"stnrhi":null,"nrind":null,"pos":null,"loc":null,"dtc":"2024-05-13","dy":"6","visit":"DAY 5","visitnum":"3.0","epoch":"TREATMENT"},{"seq":"22","testcd":"SYSBP","test":"Systolic Blood Pressure","cat":null,"orres":"122.5","orresu":"mmHg","stresc":"122.5","stresn":"122.5","stresu":"mmHg","stnrlo":null,"stnrhi":null,"nrind":null,"pos":null,"loc":null,"dtc":"2024-05-13","dy":"6","visit":"DAY 5","visitnum":"3.0","epoch":"TREATMENT"},{"seq":"23","testcd":"TEMP","test":"Temperature","cat":null,"orres":"36.4","orresu":"C","stresc":"36.4","stresn":"36.4","stresu":"C","stnrlo":null,"stnrhi":null,"nrind":null,"pos":null,"loc":null,"dtc":"2024-05-13","dy":"6","visit":"DAY 5","visitnum":"3.0","epoch":"TREATMENT"},{"seq":"24","testcd":"WEIGHT","test":"Weight","cat":null,"orres":"71.1","orresu":"kg","stresc":"71.1","stresn":"71.1","stresu":"kg","stnrlo":null,"stnrhi":null,"nrind":null,"pos":null,"loc":null,"dtc":"2024-05-13","dy":"6","visit":"DAY 5","visitnum":"3.0","epoch":"TREATMENT"},{"seq":"25","testcd":"BMI","test":"BMI","cat":null,"orres":"27.7","orresu":"kg/m2","stresc":"27.7","stresn":"27.7","stresu":"kg/m2","stnrlo":null,"stnrhi":null,"nrind":null,"pos":null,"loc":null,"dtc":"2024-05-22","dy":"15","visit":"DAY 14","visitnum":"4.0","epoch":"FOLLOW-UP"},{"seq":"26","testcd":"DIABP","test":"Diastolic Blood Pressure","cat":null,"orres":"81.4","orresu":"mmHg","stresc":"81.4","stresn":"81.4","stresu":"mmHg","stnrlo":null,"stnrhi":null,"nrind":null,"pos":null,"loc":null,"dtc":"2024-05-22","dy":"15","visit":"DAY 14","visitnum":"4.0","epoch":"FOLLOW-UP"},{"seq":"27","testcd":"HEIGHT","test":"Height","cat":null,"orres":"160.4","orresu":"cm","stresc":"160.4","stresn":"160.4","stresu":"cm","stnrlo":null,"stnrhi":null,"nrind":null,"pos":null,"loc":null,"dtc":"2024-05-22","dy":"15","visit":"DAY 14","visitnum":"4.0","epoch":"FOLLOW-UP"},{"seq":"28","testcd":"PULSE","test":"Pulse Rate","cat":null,"orres":"86.4","orresu":"beats/min","stresc":"86.4","stresn":"86.4","stresu":"beats/min","stnrlo":null,"stnrhi":null,"nrind":null,"pos":null,"loc":null,"dtc":"2024-05-22","dy":"15","visit":"DAY 14","visitnum":"4.0","epoch":"FOLLOW-UP"},{"seq":"29","testcd":"RESP","test":"Respiratory Rate","cat":null,"orres":"16.6","orresu":"breaths/min","stresc":"16.6","stresn":"16.6","stresu":"breaths/min","stnrlo":null,"stnrhi":null,"nrind":null,"pos":null,"loc":null,"dtc":"2024-05-22","dy":"15","visit":"DAY 14","visitnum":"4.0","epoch":"FOLLOW-UP"},{"seq":"30","testcd":"SYSBP","test":"Systolic Blood Pressure","cat":null,"orres":"121.9","orresu":"mmHg","stresc":"121.9","stresn":"121.9","stresu":"mmHg","stnrlo":null,"stnrhi":null,"nrind":null,"pos":null,"loc":null,"dtc":"2024-05-22","dy":"15","visit":"DAY 14","visitnum":"4.0","epoch":"FOLLOW-UP"},{"seq":"31","testcd":"TEMP","test":"Temperature","cat":null,"orres":"36.4","orresu":"C","stresc":"36.4","stresn":"36.4","stresu":"C","stnrlo":null,"stnrhi":null,"nrind":null,"pos":null,"loc":null,"dtc":"2024-05-22","dy":"15","visit":"DAY 14","visitnum":"4.0","epoch":"FOLLOW-UP"},{"seq":"32","testcd":"WEIGHT","test":"Weight","cat":null,"orres":"71.3","orresu":"kg","stresc":"71.3","stresn":"71.3","stresu":"kg","stnrlo":null,"stnrhi":null,"nrind":null,"pos":null,"loc":null,"dtc":"2024-05-22","dy":"15","visit":"DAY 14","visitnum":"4.0","epoch":"FOLLOW-UP"}]},"section_10_questionnaires_and_scores":{"questionnaires":[],"findings_about":[]},"section_11_protocol_deviations":{"deviations":[],"total":0},"section_12_disposition":{"completion_status":"COMPLETED","disposition_records":[{"seq":"1","term":"INFORMED CONSENT OBTAINED","decod":"INFORMED CONSENT OBTAINED","cat":"PROTOCOL MILESTONE","scat":null,"dtc":"2024-04-08","dy":null,"visit":null,"epoch":"SCREENING"},{"seq":"2","term":"RANDOMIZED","decod":"RANDOMIZED","cat":"PROTOCOL MILESTONE","scat":null,"dtc":"2024-05-08","dy":null,"visit":null,"epoch":"TREATMENT"},{"seq":"3","term":"COMPLETED","decod":"COMPLETED","cat":"DISPOSITION EVENT","scat":null,"dtc":"2024-06-05","dy":null,"visit":null,"epoch":"FOLLOW-UP"}],"death":null},"section_13_hospitalizations":{"items":[],"total":0},"section_14_substance_use":{"items":[{"seq":"1","substance":"ALCOHOL","decod":"ALCOHOL","cat":"ALCOHOL","scat":null,"usage":"Y","dose":"7.0","dosu":"DRINKS/WEEK","freq":"QW","start_dtc":"2012-04-11","end_dtc":null},{"seq":"2","substance":"COFFEE","decod":"COFFEE","cat":"CAFFEINE","scat":null,"usage":"N","dose":null,"dosu":null,"freq":null,"start_dtc":null,"end_dtc":null},{"seq":"3","substance":"CIGARETTES","decod":"CIGARETTES","cat":"TOBACCO","scat":"CIGARETTES","usage":"Y","dose":null,"dosu":null,"freq":null,"start_dtc":"2001-04-14","end_dtc":"2022-04-09"}],"total":3},"section_15_subject_status":{"items":[{"seq":"1","testcd":"SURVSTAT","test":"Survival Status","orres":"ALIVE","stresc":"ALIVE","dtc":"2024-05-21","visit":"DAY 14","epoch":"FOLLOW-UP"},{"seq":"2","testcd":"SURVSTAT","test":"Survival Status","orres":"ALIVE","stresc":"ALIVE","dtc":"2024-06-04","visit":"DAY 28","epoch":"FOLLOW-UP"}],"total":2}}