{"subject_id":"COVID-THER-301-SITE002-0155","study_id":"COVID-THER-301","generated_at":"2026-06-12T05:15:41.620289+00:00","sdtmig_version":"3.4","flags":{"has_serious_ae":false,"has_fatal_ae":false,"has_protocol_deviation":true,"n_protocol_deviations":1,"n_adverse_events":0,"n_concomitant_meds":3,"max_ae_severity":null,"screen_failure":false,"discontinued_early":false,"discontinuation_reason":null,"death":false,"exposure_days":3},"timeline":[{"dtc":"2024-02-11","dy":"-17","event":"INFORMED CONSENT OBTAINED","domain":"DS","category":"milestone"},{"dtc":"2024-02-28","dy":"1","event":"RANDOMIZED","domain":"DS","category":"milestone"},{"dtc":"2024-02-28","dy":"1","event":"FIRST DOSE: PLACEBO","domain":"EX","category":"exposure"},{"dtc":"2024-02-28","dy":"1","event":"VISIT: BASELINE","domain":"SV","category":"visit"},{"dtc":"2024-03-01","dy":"3","event":"VISIT: DAY 3","domain":"SV","category":"visit"},{"dtc":"2024-03-01","dy":"3","event":"CM START: OMEPRAZOLE","domain":"CM","category":"concomitant_med"},{"dtc":"2024-03-03","dy":"5","event":"CM START: METFORMIN","domain":"CM","category":"concomitant_med"},{"dtc":"2024-03-03","dy":"5","event":"CM START: ASPIRIN","domain":"CM","category":"concomitant_med"},{"dtc":"2024-03-04","dy":"6","event":"VISIT: DAY 5","domain":"SV","category":"visit"},{"dtc":"2024-03-12","dy":"14","event":"DEVIATION: VISIT OCCURRED OUTSIDE VISIT WINDOW","domain":"DV","category":"deviation"},{"dtc":"2024-03-12","dy":"14","event":"VISIT: DAY 14","domain":"SV","category":"visit"},{"dtc":"2024-03-27","dy":"29","event":"COMPLETED","domain":"DS","category":"milestone"}],"section_1_demographics":{"usubjid":"COVID-THER-301-SITE002-0155","subjid":"0155","siteid":"SITE002","age":"58","ageu":"YEARS","sex":"M","race":"BLACK OR AFRICAN AMERICAN","ethnicity":"NOT HISPANIC OR LATINO","country":"USA","arm":"Placebo","armcd":"PBO","actarm":"Placebo","actarmcd":"PBO","randomization_date":null,"informed_consent_date":"2024-02-11","reference_start_date":"2024-02-28","reference_end_date":"2024-03-27","screen_failure":false,"death_flag":null,"death_date":null,"subject_characteristics":[{"testcd":"ALCUSE","test":"Alcohol Use","orres":"NON-DRINKER","stresc":"NON-DRINKER","visit":null,"dtc":"2024-02-11"},{"testcd":"BMI","test":"Body Mass Index","orres":"24.5","stresc":"24.5","visit":null,"dtc":"2024-02-11"},{"testcd":"TOBPKYR","test":"Tobacco Pack-Years","orres":"39","stresc":"39","visit":null,"dtc":"2024-02-11"},{"testcd":"TOBUSE","test":"Tobacco Use","orres":"FORMER SMOKER","stresc":"FORMER SMOKER","visit":null,"dtc":"2024-02-11"}]},"section_2_medical_history":{"items":[]},"section_3_inclusion_exclusion":{"criteria":[]},"section_4_trial_participation":{"visits":[{"visitnum":"1.0","visit":"BASELINE","start_dtc":"2024-02-28","end_dtc":"2024-02-28","updes":null},{"visitnum":"2.0","visit":"DAY 3","start_dtc":"2024-03-01","end_dtc":"2024-03-01","updes":null},{"visitnum":"3.0","visit":"DAY 5","start_dtc":"2024-03-04","end_dtc":"2024-03-04","updes":null},{"visitnum":"4.0","visit":"DAY 14","start_dtc":"2024-03-12","end_dtc":"2024-03-12","updes":null}],"epochs":[{"seq":"1","etcd":"SCRN","element":"Screening","start_dtc":"2024-02-27","end_dtc":"2024-02-28","updes":null},{"seq":"2","etcd":"TRT","element":"Treatment","start_dtc":"2024-02-28","end_dtc":"2024-03-04","updes":null},{"seq":"3","etcd":"FU","element":"Follow-up","start_dtc":"2024-03-04","end_dtc":"2024-03-26","updes":null}],"visit_count":4},"section_5_concomitant_medications":{"medications":[{"seq":"1","trt":"OMEPRAZOLE","decod":"OMEPRAZOLE","cat":"CONCOMITANT","dose":null,"doseu":null,"dosef":"QD","route":"ORAL","indication":null,"start_dtc":"2024-03-01","end_dtc":"2024-03-15","ongoing":null,"visit":null},{"seq":"2","trt":"METFORMIN","decod":"METFORMIN","cat":"CONCOMITANT","dose":null,"doseu":null,"dosef":"BID","route":"ORAL","indication":null,"start_dtc":"2024-03-03","end_dtc":"2024-03-25","ongoing":null,"visit":null},{"seq":"3","trt":"ASPIRIN","decod":"ASPIRIN","cat":"CONCOMITANT","dose":null,"doseu":null,"dosef":"QD","route":"ORAL","indication":null,"start_dtc":"2024-03-03","end_dtc":"2024-03-21","ongoing":null,"visit":null}]},"section_6_exposure":{"exposure_as_administered":[{"seq":"1","trt":"PLACEBO","dose":"0.0","doseu":null,"dosef":"BID","route":"ORAL","lot":null,"start_dtc":"2024-02-28","end_dtc":"2024-03-02","start_dy":"1","end_dy":"4","epoch":"TREATMENT","visit":null}],"exposure_as_collected":[{"seq":"1","trt":"PLACEBO","dose":null,"doseu":null,"dosef":"BID","route":"ORAL","start_dtc":"2024-02-28","end_dtc":"2024-02-28","visit":"BASELINE"},{"seq":"2","trt":"PLACEBO","dose":null,"doseu":null,"dosef":"BID","route":"ORAL","start_dtc":"2024-02-28","end_dtc":"2024-02-28","visit":"BASELINE"},{"seq":"3","trt":"PLACEBO","dose":null,"doseu":null,"dosef":"BID","route":"ORAL","start_dtc":"2024-02-29","end_dtc":"2024-02-29","visit":"BASELINE"},{"seq":"4","trt":"PLACEBO","dose":null,"doseu":null,"dosef":"BID","route":"ORAL","start_dtc":"2024-02-29","end_dtc":"2024-02-29","visit":"BASELINE"},{"seq":"5","trt":"PLACEBO","dose":null,"doseu":null,"dosef":"BID","route":"ORAL","start_dtc":"2024-03-01","end_dtc":"2024-03-01","visit":"BASELINE"},{"seq":"6","trt":"PLACEBO","dose":null,"doseu":null,"dosef":"BID","route":"ORAL","start_dtc":"2024-03-01","end_dtc":"2024-03-01","visit":"BASELINE"},{"seq":"7","trt":"PLACEBO","dose":null,"doseu":null,"dosef":"BID","route":"ORAL","start_dtc":"2024-03-02","end_dtc":"2024-03-02","visit":"BASELINE"},{"seq":"8","trt":"PLACEBO","dose":null,"doseu":null,"dosef":"BID","route":"ORAL","start_dtc":"2024-03-02","end_dtc":"2024-03-02","visit":"BASELINE"}]},"section_7_adverse_events":{"summary":{"total_aes":0,"serious_aes":0,"fatal_aes":0,"by_severity":{},"by_soc":{}},"events":[]},"section_8_laboratory_results":{"summary":{"total_records":28,"abnormal_count":0,"abnormal_pct":0.0},"shift_summary":[{"testcd":"ALT","baseline_value":26.31,"baseline_nrind":"NORMAL","worst_post_baseline_value":28.41,"worst_post_baseline_nrind":"NORMAL","worst_visit":"DAY 3"},{"testcd":"AST","baseline_value":33.5,"baseline_nrind":"NORMAL","worst_post_baseline_value":31.39,"worst_post_baseline_nrind":"NORMAL","worst_visit":"DAY 3"},{"testcd":"CREAT","baseline_value":75.72,"baseline_nrind":"NORMAL","worst_post_baseline_value":82.68,"worst_post_baseline_nrind":"NORMAL","worst_visit":"DAY 14"},{"testcd":"GLUC","baseline_value":4.97,"baseline_nrind":"NORMAL","worst_post_baseline_value":5.18,"worst_post_baseline_nrind":"NORMAL","worst_visit":"DAY 5"},{"testcd":"HGB","baseline_value":149.66,"baseline_nrind":"NORMAL","worst_post_baseline_value":149.91,"worst_post_baseline_nrind":"NORMAL","worst_visit":"DAY 14"},{"testcd":"PLAT","baseline_value":245.7,"baseline_nrind":"NORMAL","worst_post_baseline_value":253.59,"worst_post_baseline_nrind":"NORMAL","worst_visit":"DAY 5"},{"testcd":"WBC","baseline_value":7.6,"baseline_nrind":"NORMAL","worst_post_baseline_value":7.4,"worst_post_baseline_nrind":"NORMAL","worst_visit":"DAY 3"}],"results":[{"seq":"1","testcd":"ALT","test":"Alanine Aminotransferase","cat":"CHEMISTRY","orres":"26.31","orresu":"U/L","stresc":"26.31","stresn":"26.31","stresu":"U/L","stnrlo":"7","stnrhi":"56","nrind":"NORMAL","fast":null,"dtc":"2024-02-28","dy":"1","visit":"BASELINE","visitnum":"1.0","epoch":"TREATMENT","spec":null,"method":null},{"seq":"2","testcd":"AST","test":"Aspartate Aminotransferase","cat":"CHEMISTRY","orres":"33.5","orresu":"U/L","stresc":"33.5","stresn":"33.5","stresu":"U/L","stnrlo":"10","stnrhi":"40","nrind":"NORMAL","fast":null,"dtc":"2024-02-28","dy":"1","visit":"BASELINE","visitnum":"1.0","epoch":"TREATMENT","spec":null,"method":null},{"seq":"3","testcd":"CREAT","test":"Creatinine","cat":"CHEMISTRY","orres":"75.72","orresu":"umol/L","stresc":"75.72","stresn":"75.72","stresu":"umol/L","stnrlo":"62","stnrhi":"106","nrind":"NORMAL","fast":null,"dtc":"2024-02-28","dy":"1","visit":"BASELINE","visitnum":"1.0","epoch":"TREATMENT","spec":null,"method":null},{"seq":"4","testcd":"GLUC","test":"Glucose","cat":"CHEMISTRY","orres":"4.97","orresu":"mmol/L","stresc":"4.97","stresn":"4.97","stresu":"mmol/L","stnrlo":"3.9","stnrhi":"5.6","nrind":"NORMAL","fast":null,"dtc":"2024-02-28","dy":"1","visit":"BASELINE","visitnum":"1.0","epoch":"TREATMENT","spec":null,"method":null},{"seq":"5","testcd":"HGB","test":"Hemoglobin","cat":"HEMATOLOGY","orres":"149.66","orresu":"g/L","stresc":"149.66","stresn":"149.66","stresu":"g/L","stnrlo":"130","stnrhi":"175","nrind":"NORMAL","fast":null,"dtc":"2024-02-28","dy":"1","visit":"BASELINE","visitnum":"1.0","epoch":"TREATMENT","spec":null,"method":null},{"seq":"6","testcd":"PLAT","test":"Platelets","cat":"HEMATOLOGY","orres":"245.7","orresu":"10^9/L","stresc":"245.7","stresn":"245.7","stresu":"10^9/L","stnrlo":"150","stnrhi":"400","nrind":"NORMAL","fast":null,"dtc":"2024-02-28","dy":"1","visit":"BASELINE","visitnum":"1.0","epoch":"TREATMENT","spec":null,"method":null},{"seq":"7","testcd":"WBC","test":"Leukocytes","cat":"HEMATOLOGY","orres":"7.6","orresu":"10^9/L","stresc":"7.6","stresn":"7.6","stresu":"10^9/L","stnrlo":"4.0","stnrhi":"11.0","nrind":"NORMAL","fast":null,"dtc":"2024-02-28","dy":"1","visit":"BASELINE","visitnum":"1.0","epoch":"TREATMENT","spec":null,"method":null},{"seq":"8","testcd":"ALT","test":"Alanine Aminotransferase","cat":"CHEMISTRY","orres":"28.41","orresu":"U/L","stresc":"28.41","stresn":"28.41","stresu":"U/L","stnrlo":"7","stnrhi":"56","nrind":"NORMAL","fast":null,"dtc":"2024-03-01","dy":"3","visit":"DAY 3","visitnum":"2.0","epoch":"TREATMENT","spec":null,"method":null},{"seq":"9","testcd":"AST","test":"Aspartate Aminotransferase","cat":"CHEMISTRY","orres":"31.39","orresu":"U/L","stresc":"31.39","stresn":"31.39","stresu":"U/L","stnrlo":"10","stnrhi":"40","nrind":"NORMAL","fast":null,"dtc":"2024-03-01","dy":"3","visit":"DAY 3","visitnum":"2.0","epoch":"TREATMENT","spec":null,"method":null},{"seq":"10","testcd":"CREAT","test":"Creatinine","cat":"CHEMISTRY","orres":"76.39","orresu":"umol/L","stresc":"76.39","stresn":"76.39","stresu":"umol/L","stnrlo":"62","stnrhi":"106","nrind":"NORMAL","fast":null,"dtc":"2024-03-01","dy":"3","visit":"DAY 3","visitnum":"2.0","epoch":"TREATMENT","spec":null,"method":null},{"seq":"11","testcd":"GLUC","test":"Glucose","cat":"CHEMISTRY","orres":"5.0","orresu":"mmol/L","stresc":"5.0","stresn":"5.0","stresu":"mmol/L","stnrlo":"3.9","stnrhi":"5.6","nrind":"NORMAL","fast":null,"dtc":"2024-03-01","dy":"3","visit":"DAY 3","visitnum":"2.0","epoch":"TREATMENT","spec":null,"method":null},{"seq":"12","testcd":"HGB","test":"Hemoglobin","cat":"HEMATOLOGY","orres":"150.68","orresu":"g/L","stresc":"150.68","stresn":"150.68","stresu":"g/L","stnrlo":"130","stnrhi":"175","nrind":"NORMAL","fast":null,"dtc":"2024-03-01","dy":"3","visit":"DAY 3","visitnum":"2.0","epoch":"TREATMENT","spec":null,"method":null},{"seq":"13","testcd":"PLAT","test":"Platelets","cat":"HEMATOLOGY","orres":"242.81","orresu":"10^9/L","stresc":"242.81","stresn":"242.81","stresu":"10^9/L","stnrlo":"150","stnrhi":"400","nrind":"NORMAL","fast":null,"dtc":"2024-03-01","dy":"3","visit":"DAY 3","visitnum":"2.0","epoch":"TREATMENT","spec":null,"method":null},{"seq":"14","testcd":"WBC","test":"Leukocytes","cat":"HEMATOLOGY","orres":"7.4","orresu":"10^9/L","stresc":"7.4","stresn":"7.4","stresu":"10^9/L","stnrlo":"4.0","stnrhi":"11.0","nrind":"NORMAL","fast":null,"dtc":"2024-03-01","dy":"3","visit":"DAY 3","visitnum":"2.0","epoch":"TREATMENT","spec":null,"method":null},{"seq":"15","testcd":"ALT","test":"Alanine Aminotransferase","cat":"CHEMISTRY","orres":"27.23","orresu":"U/L","stresc":"27.23","stresn":"27.23","stresu":"U/L","stnrlo":"7","stnrhi":"56","nrind":"NORMAL","fast":null,"dtc":"2024-03-04","dy":"6","visit":"DAY 5","visitnum":"3.0","epoch":"TREATMENT","spec":null,"method":null},{"seq":"16","testcd":"AST","test":"Aspartate Aminotransferase","cat":"CHEMISTRY","orres":"30.04","orresu":"U/L","stresc":"30.04","stresn":"30.04","stresu":"U/L","stnrlo":"10","stnrhi":"40","nrind":"NORMAL","fast":null,"dtc":"2024-03-04","dy":"6","visit":"DAY 5","visitnum":"3.0","epoch":"TREATMENT","spec":null,"method":null},{"seq":"17","testcd":"CREAT","test":"Creatinine","cat":"CHEMISTRY","orres":"79.26","orresu":"umol/L","stresc":"79.26","stresn":"79.26","stresu":"umol/L","stnrlo":"62","stnrhi":"106","nrind":"NORMAL","fast":null,"dtc":"2024-03-04","dy":"6","visit":"DAY 5","visitnum":"3.0","epoch":"TREATMENT","spec":null,"method":null},{"seq":"18","testcd":"GLUC","test":"Glucose","cat":"CHEMISTRY","orres":"5.18","orresu":"mmol/L","stresc":"5.18","stresn":"5.18","stresu":"mmol/L","stnrlo":"3.9","stnrhi":"5.6","nrind":"NORMAL","fast":null,"dtc":"2024-03-04","dy":"6","visit":"DAY 5","visitnum":"3.0","epoch":"TREATMENT","spec":null,"method":null},{"seq":"19","testcd":"HGB","test":"Hemoglobin","cat":"HEMATOLOGY","orres":"150.32","orresu":"g/L","stresc":"150.32","stresn":"150.32","stresu":"g/L","stnrlo":"130","stnrhi":"175","nrind":"NORMAL","fast":null,"dtc":"2024-03-04","dy":"6","visit":"DAY 5","visitnum":"3.0","epoch":"TREATMENT","spec":null,"method":null},{"seq":"20","testcd":"PLAT","test":"Platelets","cat":"HEMATOLOGY","orres":"253.59","orresu":"10^9/L","stresc":"253.59","stresn":"253.59","stresu":"10^9/L","stnrlo":"150","stnrhi":"400","nrind":"NORMAL","fast":null,"dtc":"2024-03-04","dy":"6","visit":"DAY 5","visitnum":"3.0","epoch":"TREATMENT","spec":null,"method":null},{"seq":"21","testcd":"WBC","test":"Leukocytes","cat":"HEMATOLOGY","orres":"6.92","orresu":"10^9/L","stresc":"6.92","stresn":"6.92","stresu":"10^9/L","stnrlo":"4.0","stnrhi":"11.0","nrind":"NORMAL","fast":null,"dtc":"2024-03-04","dy":"6","visit":"DAY 5","visitnum":"3.0","epoch":"TREATMENT","spec":null,"method":null},{"seq":"22","testcd":"ALT","test":"Alanine Aminotransferase","cat":"CHEMISTRY","orres":"25.05","orresu":"U/L","stresc":"25.05","stresn":"25.05","stresu":"U/L","stnrlo":"7","stnrhi":"56","nrind":"NORMAL","fast":null,"dtc":"2024-03-12","dy":"14","visit":"DAY 14","visitnum":"4.0","epoch":"FOLLOW-UP","spec":null,"method":null},{"seq":"23","testcd":"AST","test":"Aspartate Aminotransferase","cat":"CHEMISTRY","orres":"30.56","orresu":"U/L","stresc":"30.56","stresn":"30.56","stresu":"U/L","stnrlo":"10","stnrhi":"40","nrind":"NORMAL","fast":null,"dtc":"2024-03-12","dy":"14","visit":"DAY 14","visitnum":"4.0","epoch":"FOLLOW-UP","spec":null,"method":null},{"seq":"24","testcd":"CREAT","test":"Creatinine","cat":"CHEMISTRY","orres":"82.68","orresu":"umol/L","stresc":"82.68","stresn":"82.68","stresu":"umol/L","stnrlo":"62","stnrhi":"106","nrind":"NORMAL","fast":null,"dtc":"2024-03-12","dy":"14","visit":"DAY 14","visitnum":"4.0","epoch":"FOLLOW-UP","spec":null,"method":null},{"seq":"25","testcd":"GLUC","test":"Glucose","cat":"CHEMISTRY","orres":"5.05","orresu":"mmol/L","stresc":"5.05","stresn":"5.05","stresu":"mmol/L","stnrlo":"3.9","stnrhi":"5.6","nrind":"NORMAL","fast":null,"dtc":"2024-03-12","dy":"14","visit":"DAY 14","visitnum":"4.0","epoch":"FOLLOW-UP","spec":null,"method":null},{"seq":"26","testcd":"HGB","test":"Hemoglobin","cat":"HEMATOLOGY","orres":"149.91","orresu":"g/L","stresc":"149.91","stresn":"149.91","stresu":"g/L","stnrlo":"130","stnrhi":"175","nrind":"NORMAL","fast":null,"dtc":"2024-03-12","dy":"14","visit":"DAY 14","visitnum":"4.0","epoch":"FOLLOW-UP","spec":null,"method":null},{"seq":"27","testcd":"PLAT","test":"Platelets","cat":"HEMATOLOGY","orres":"245.68","orresu":"10^9/L","stresc":"245.68","stresn":"245.68","stresu":"10^9/L","stnrlo":"150","stnrhi":"400","nrind":"NORMAL","fast":null,"dtc":"2024-03-12","dy":"14","visit":"DAY 14","visitnum":"4.0","epoch":"FOLLOW-UP","spec":null,"method":null},{"seq":"28","testcd":"WBC","test":"Leukocytes","cat":"HEMATOLOGY","orres":"6.31","orresu":"10^9/L","stresc":"6.31","stresn":"6.31","stresu":"10^9/L","stnrlo":"4.0","stnrhi":"11.0","nrind":"NORMAL","fast":null,"dtc":"2024-03-12","dy":"14","visit":"DAY 14","visitnum":"4.0","epoch":"FOLLOW-UP","spec":null,"method":null}]},"section_9_vital_signs":{"summary":{"total_records":32},"trends":{"BMI":[{"visit":"BASELINE","visitnum":"1.0","dtc":"2024-02-28","value":"24.5","unit":"kg/m2"},{"visit":"DAY 3","visitnum":"2.0","dtc":"2024-03-01","value":"24.3","unit":"kg/m2"},{"visit":"DAY 5","visitnum":"3.0","dtc":"2024-03-04","value":"23.7","unit":"kg/m2"},{"visit":"DAY 14","visitnum":"4.0","dtc":"2024-03-12","value":"23.4","unit":"kg/m2"}],"DIABP":[{"visit":"BASELINE","visitnum":"1.0","dtc":"2024-02-28","value":"79.2","unit":"mmHg"},{"visit":"DAY 3","visitnum":"2.0","dtc":"2024-03-01","value":"78.5","unit":"mmHg"},{"visit":"DAY 5","visitnum":"3.0","dtc":"2024-03-04","value":"78.5","unit":"mmHg"},{"visit":"DAY 14","visitnum":"4.0","dtc":"2024-03-12","value":"80.8","unit":"mmHg"}],"HEIGHT":[{"visit":"BASELINE","visitnum":"1.0","dtc":"2024-02-28","value":"164.7","unit":"cm"},{"visit":"DAY 3","visitnum":"2.0","dtc":"2024-03-01","value":"164.3","unit":"cm"},{"visit":"DAY 5","visitnum":"3.0","dtc":"2024-03-04","value":"164.5","unit":"cm"},{"visit":"DAY 14","visitnum":"4.0","dtc":"2024-03-12","value":"165.1","unit":"cm"}],"PULSE":[{"visit":"BASELINE","visitnum":"1.0","dtc":"2024-02-28","value":"59.8","unit":"beats/min"},{"visit":"DAY 3","visitnum":"2.0","dtc":"2024-03-01","value":"59.3","unit":"beats/min"},{"visit":"DAY 5","visitnum":"3.0","dtc":"2024-03-04","value":"63.4","unit":"beats/min"},{"visit":"DAY 14","visitnum":"4.0","dtc":"2024-03-12","value":"58.6","unit":"beats/min"}],"RESP":[{"visit":"BASELINE","visitnum":"1.0","dtc":"2024-02-28","value":"12.4","unit":"breaths/min"},{"visit":"DAY 3","visitnum":"2.0","dtc":"2024-03-01","value":"12.0","unit":"breaths/min"},{"visit":"DAY 5","visitnum":"3.0","dtc":"2024-03-04","value":"14.3","unit":"breaths/min"},{"visit":"DAY 14","visitnum":"4.0","dtc":"2024-03-12","value":"15.9","unit":"breaths/min"}],"SYSBP":[{"visit":"BASELINE","visitnum":"1.0","dtc":"2024-02-28","value":"130.6","unit":"mmHg"},{"visit":"DAY 3","visitnum":"2.0","dtc":"2024-03-01","value":"130.8","unit":"mmHg"},{"visit":"DAY 5","visitnum":"3.0","dtc":"2024-03-04","value":"132.4","unit":"mmHg"},{"visit":"DAY 14","visitnum":"4.0","dtc":"2024-03-12","value":"136.5","unit":"mmHg"}],"TEMP":[{"visit":"BASELINE","visitnum":"1.0","dtc":"2024-02-28","value":"36.5","unit":"C"},{"visit":"DAY 3","visitnum":"2.0","dtc":"2024-03-01","value":"36.9","unit":"C"},{"visit":"DAY 5","visitnum":"3.0","dtc":"2024-03-04","value":"36.9","unit":"C"},{"visit":"DAY 14","visitnum":"4.0","dtc":"2024-03-12","value":"36.8","unit":"C"}],"WEIGHT":[{"visit":"BASELINE","visitnum":"1.0","dtc":"2024-02-28","value":"66.4","unit":"kg"},{"visit":"DAY 3","visitnum":"2.0","dtc":"2024-03-01","value":"65.5","unit":"kg"},{"visit":"DAY 5","visitnum":"3.0","dtc":"2024-03-04","value":"64.1","unit":"kg"},{"visit":"DAY 14","visitnum":"4.0","dtc":"2024-03-12","value":"63.7","unit":"kg"}]},"results":[{"seq":"1","testcd":"BMI","test":"BMI","cat":null,"orres":"24.5","orresu":"kg/m2","stresc":"24.5","stresn":"24.5","stresu":"kg/m2","stnrlo":null,"stnrhi":null,"nrind":null,"pos":null,"loc":null,"dtc":"2024-02-28","dy":"1","visit":"BASELINE","visitnum":"1.0","epoch":"TREATMENT"},{"seq":"2","testcd":"DIABP","test":"Diastolic Blood Pressure","cat":null,"orres":"79.2","orresu":"mmHg","stresc":"79.2","stresn":"79.2","stresu":"mmHg","stnrlo":null,"stnrhi":null,"nrind":null,"pos":null,"loc":null,"dtc":"2024-02-28","dy":"1","visit":"BASELINE","visitnum":"1.0","epoch":"TREATMENT"},{"seq":"3","testcd":"HEIGHT","test":"Height","cat":null,"orres":"164.7","orresu":"cm","stresc":"164.7","stresn":"164.7","stresu":"cm","stnrlo":null,"stnrhi":null,"nrind":null,"pos":null,"loc":null,"dtc":"2024-02-28","dy":"1","visit":"BASELINE","visitnum":"1.0","epoch":"TREATMENT"},{"seq":"4","testcd":"PULSE","test":"Pulse Rate","cat":null,"orres":"59.8","orresu":"beats/min","stresc":"59.8","stresn":"59.8","stresu":"beats/min","stnrlo":null,"stnrhi":null,"nrind":null,"pos":null,"loc":null,"dtc":"2024-02-28","dy":"1","visit":"BASELINE","visitnum":"1.0","epoch":"TREATMENT"},{"seq":"5","testcd":"RESP","test":"Respiratory Rate","cat":null,"orres":"12.4","orresu":"breaths/min","stresc":"12.4","stresn":"12.4","stresu":"breaths/min","stnrlo":null,"stnrhi":null,"nrind":null,"pos":null,"loc":null,"dtc":"2024-02-28","dy":"1","visit":"BASELINE","visitnum":"1.0","epoch":"TREATMENT"},{"seq":"6","testcd":"SYSBP","test":"Systolic Blood Pressure","cat":null,"orres":"130.6","orresu":"mmHg","stresc":"130.6","stresn":"130.6","stresu":"mmHg","stnrlo":null,"stnrhi":null,"nrind":null,"pos":null,"loc":null,"dtc":"2024-02-28","dy":"1","visit":"BASELINE","visitnum":"1.0","epoch":"TREATMENT"},{"seq":"7","testcd":"TEMP","test":"Temperature","cat":null,"orres":"36.5","orresu":"C","stresc":"36.5","stresn":"36.5","stresu":"C","stnrlo":null,"stnrhi":null,"nrind":null,"pos":null,"loc":null,"dtc":"2024-02-28","dy":"1","visit":"BASELINE","visitnum":"1.0","epoch":"TREATMENT"},{"seq":"8","testcd":"WEIGHT","test":"Weight","cat":null,"orres":"66.4","orresu":"kg","stresc":"66.4","stresn":"66.4","stresu":"kg","stnrlo":null,"stnrhi":null,"nrind":null,"pos":null,"loc":null,"dtc":"2024-02-28","dy":"1","visit":"BASELINE","visitnum":"1.0","epoch":"TREATMENT"},{"seq":"9","testcd":"BMI","test":"BMI","cat":null,"orres":"24.3","orresu":"kg/m2","stresc":"24.3","stresn":"24.3","stresu":"kg/m2","stnrlo":null,"stnrhi":null,"nrind":null,"pos":null,"loc":null,"dtc":"2024-03-01","dy":"3","visit":"DAY 3","visitnum":"2.0","epoch":"TREATMENT"},{"seq":"10","testcd":"DIABP","test":"Diastolic Blood Pressure","cat":null,"orres":"78.5","orresu":"mmHg","stresc":"78.5","stresn":"78.5","stresu":"mmHg","stnrlo":null,"stnrhi":null,"nrind":null,"pos":null,"loc":null,"dtc":"2024-03-01","dy":"3","visit":"DAY 3","visitnum":"2.0","epoch":"TREATMENT"},{"seq":"11","testcd":"HEIGHT","test":"Height","cat":null,"orres":"164.3","orresu":"cm","stresc":"164.3","stresn":"164.3","stresu":"cm","stnrlo":null,"stnrhi":null,"nrind":null,"pos":null,"loc":null,"dtc":"2024-03-01","dy":"3","visit":"DAY 3","visitnum":"2.0","epoch":"TREATMENT"},{"seq":"12","testcd":"PULSE","test":"Pulse Rate","cat":null,"orres":"59.3","orresu":"beats/min","stresc":"59.3","stresn":"59.3","stresu":"beats/min","stnrlo":null,"stnrhi":null,"nrind":null,"pos":null,"loc":null,"dtc":"2024-03-01","dy":"3","visit":"DAY 3","visitnum":"2.0","epoch":"TREATMENT"},{"seq":"13","testcd":"RESP","test":"Respiratory Rate","cat":null,"orres":"12.0","orresu":"breaths/min","stresc":"12.0","stresn":"12.0","stresu":"breaths/min","stnrlo":null,"stnrhi":null,"nrind":null,"pos":null,"loc":null,"dtc":"2024-03-01","dy":"3","visit":"DAY 3","visitnum":"2.0","epoch":"TREATMENT"},{"seq":"14","testcd":"SYSBP","test":"Systolic Blood Pressure","cat":null,"orres":"130.8","orresu":"mmHg","stresc":"130.8","stresn":"130.8","stresu":"mmHg","stnrlo":null,"stnrhi":null,"nrind":null,"pos":null,"loc":null,"dtc":"2024-03-01","dy":"3","visit":"DAY 3","visitnum":"2.0","epoch":"TREATMENT"},{"seq":"15","testcd":"TEMP","test":"Temperature","cat":null,"orres":"36.9","orresu":"C","stresc":"36.9","stresn":"36.9","stresu":"C","stnrlo":null,"stnrhi":null,"nrind":null,"pos":null,"loc":null,"dtc":"2024-03-01","dy":"3","visit":"DAY 3","visitnum":"2.0","epoch":"TREATMENT"},{"seq":"16","testcd":"WEIGHT","test":"Weight","cat":null,"orres":"65.5","orresu":"kg","stresc":"65.5","stresn":"65.5","stresu":"kg","stnrlo":null,"stnrhi":null,"nrind":null,"pos":null,"loc":null,"dtc":"2024-03-01","dy":"3","visit":"DAY 3","visitnum":"2.0","epoch":"TREATMENT"},{"seq":"17","testcd":"BMI","test":"BMI","cat":null,"orres":"23.7","orresu":"kg/m2","stresc":"23.7","stresn":"23.7","stresu":"kg/m2","stnrlo":null,"stnrhi":null,"nrind":null,"pos":null,"loc":null,"dtc":"2024-03-04","dy":"6","visit":"DAY 5","visitnum":"3.0","epoch":"TREATMENT"},{"seq":"18","testcd":"DIABP","test":"Diastolic Blood Pressure","cat":null,"orres":"78.5","orresu":"mmHg","stresc":"78.5","stresn":"78.5","stresu":"mmHg","stnrlo":null,"stnrhi":null,"nrind":null,"pos":null,"loc":null,"dtc":"2024-03-04","dy":"6","visit":"DAY 5","visitnum":"3.0","epoch":"TREATMENT"},{"seq":"19","testcd":"HEIGHT","test":"Height","cat":null,"orres":"164.5","orresu":"cm","stresc":"164.5","stresn":"164.5","stresu":"cm","stnrlo":null,"stnrhi":null,"nrind":null,"pos":null,"loc":null,"dtc":"2024-03-04","dy":"6","visit":"DAY 5","visitnum":"3.0","epoch":"TREATMENT"},{"seq":"20","testcd":"PULSE","test":"Pulse Rate","cat":null,"orres":"63.4","orresu":"beats/min","stresc":"63.4","stresn":"63.4","stresu":"beats/min","stnrlo":null,"stnrhi":null,"nrind":null,"pos":null,"loc":null,"dtc":"2024-03-04","dy":"6","visit":"DAY 5","visitnum":"3.0","epoch":"TREATMENT"},{"seq":"21","testcd":"RESP","test":"Respiratory Rate","cat":null,"orres":"14.3","orresu":"breaths/min","stresc":"14.3","stresn":"14.3","stresu":"breaths/min","stnrlo":null,"stnrhi":null,"nrind":null,"pos":null,"loc":null,"dtc":"2024-03-04","dy":"6","visit":"DAY 5","visitnum":"3.0","epoch":"TREATMENT"},{"seq":"22","testcd":"SYSBP","test":"Systolic Blood Pressure","cat":null,"orres":"132.4","orresu":"mmHg","stresc":"132.4","stresn":"132.4","stresu":"mmHg","stnrlo":null,"stnrhi":null,"nrind":null,"pos":null,"loc":null,"dtc":"2024-03-04","dy":"6","visit":"DAY 5","visitnum":"3.0","epoch":"TREATMENT"},{"seq":"23","testcd":"TEMP","test":"Temperature","cat":null,"orres":"36.9","orresu":"C","stresc":"36.9","stresn":"36.9","stresu":"C","stnrlo":null,"stnrhi":null,"nrind":null,"pos":null,"loc":null,"dtc":"2024-03-04","dy":"6","visit":"DAY 5","visitnum":"3.0","epoch":"TREATMENT"},{"seq":"24","testcd":"WEIGHT","test":"Weight","cat":null,"orres":"64.1","orresu":"kg","stresc":"64.1","stresn":"64.1","stresu":"kg","stnrlo":null,"stnrhi":null,"nrind":null,"pos":null,"loc":null,"dtc":"2024-03-04","dy":"6","visit":"DAY 5","visitnum":"3.0","epoch":"TREATMENT"},{"seq":"25","testcd":"BMI","test":"BMI","cat":null,"orres":"23.4","orresu":"kg/m2","stresc":"23.4","stresn":"23.4","stresu":"kg/m2","stnrlo":null,"stnrhi":null,"nrind":null,"pos":null,"loc":null,"dtc":"2024-03-12","dy":"14","visit":"DAY 14","visitnum":"4.0","epoch":"FOLLOW-UP"},{"seq":"26","testcd":"DIABP","test":"Diastolic Blood Pressure","cat":null,"orres":"80.8","orresu":"mmHg","stresc":"80.8","stresn":"80.8","stresu":"mmHg","stnrlo":null,"stnrhi":null,"nrind":null,"pos":null,"loc":null,"dtc":"2024-03-12","dy":"14","visit":"DAY 14","visitnum":"4.0","epoch":"FOLLOW-UP"},{"seq":"27","testcd":"HEIGHT","test":"Height","cat":null,"orres":"165.1","orresu":"cm","stresc":"165.1","stresn":"165.1","stresu":"cm","stnrlo":null,"stnrhi":null,"nrind":null,"pos":null,"loc":null,"dtc":"2024-03-12","dy":"14","visit":"DAY 14","visitnum":"4.0","epoch":"FOLLOW-UP"},{"seq":"28","testcd":"PULSE","test":"Pulse Rate","cat":null,"orres":"58.6","orresu":"beats/min","stresc":"58.6","stresn":"58.6","stresu":"beats/min","stnrlo":null,"stnrhi":null,"nrind":null,"pos":null,"loc":null,"dtc":"2024-03-12","dy":"14","visit":"DAY 14","visitnum":"4.0","epoch":"FOLLOW-UP"},{"seq":"29","testcd":"RESP","test":"Respiratory Rate","cat":null,"orres":"15.9","orresu":"breaths/min","stresc":"15.9","stresn":"15.9","stresu":"breaths/min","stnrlo":null,"stnrhi":null,"nrind":null,"pos":null,"loc":null,"dtc":"2024-03-12","dy":"14","visit":"DAY 14","visitnum":"4.0","epoch":"FOLLOW-UP"},{"seq":"30","testcd":"SYSBP","test":"Systolic Blood Pressure","cat":null,"orres":"136.5","orresu":"mmHg","stresc":"136.5","stresn":"136.5","stresu":"mmHg","stnrlo":null,"stnrhi":null,"nrind":null,"pos":null,"loc":null,"dtc":"2024-03-12","dy":"14","visit":"DAY 14","visitnum":"4.0","epoch":"FOLLOW-UP"},{"seq":"31","testcd":"TEMP","test":"Temperature","cat":null,"orres":"36.8","orresu":"C","stresc":"36.8","stresn":"36.8","stresu":"C","stnrlo":null,"stnrhi":null,"nrind":null,"pos":null,"loc":null,"dtc":"2024-03-12","dy":"14","visit":"DAY 14","visitnum":"4.0","epoch":"FOLLOW-UP"},{"seq":"32","testcd":"WEIGHT","test":"Weight","cat":null,"orres":"63.7","orresu":"kg","stresc":"63.7","stresn":"63.7","stresu":"kg","stnrlo":null,"stnrhi":null,"nrind":null,"pos":null,"loc":null,"dtc":"2024-03-12","dy":"14","visit":"DAY 14","visitnum":"4.0","epoch":"FOLLOW-UP"}]},"section_10_questionnaires_and_scores":{"questionnaires":[],"findings_about":[]},"section_11_protocol_deviations":{"deviations":[{"seq":"1","term":"Visit DAY 14 occurred 0 days late (Day 14 vs planned Day 14)","decod":"VISIT OCCURRED OUTSIDE VISIT WINDOW","cat":"MINOR","scat":"VISIT WINDOW","start_dtc":"2024-03-12","end_dtc":null,"visit":null}],"total":1},"section_12_disposition":{"completion_status":"COMPLETED","disposition_records":[{"seq":"1","term":"INFORMED CONSENT OBTAINED","decod":"INFORMED CONSENT OBTAINED","cat":"PROTOCOL MILESTONE","scat":null,"dtc":"2024-02-11","dy":null,"visit":null,"epoch":"SCREENING"},{"seq":"2","term":"RANDOMIZED","decod":"RANDOMIZED","cat":"PROTOCOL MILESTONE","scat":null,"dtc":"2024-02-28","dy":null,"visit":null,"epoch":"TREATMENT"},{"seq":"3","term":"COMPLETED","decod":"COMPLETED","cat":"DISPOSITION EVENT","scat":null,"dtc":"2024-03-27","dy":null,"visit":null,"epoch":"FOLLOW-UP"}],"death":null},"section_13_hospitalizations":{"items":[],"total":0},"section_14_substance_use":{"items":[{"seq":"1","substance":"ALCOHOL","decod":"ALCOHOL","cat":"ALCOHOL","scat":null,"usage":"N","dose":null,"dosu":null,"freq":null,"start_dtc":null,"end_dtc":null},{"seq":"2","substance":"COFFEE","decod":"COFFEE","cat":"CAFFEINE","scat":null,"usage":"N","dose":null,"dosu":null,"freq":null,"start_dtc":null,"end_dtc":null},{"seq":"3","substance":"CIGARETTES","decod":"CIGARETTES","cat":"TOBACCO","scat":"CIGARETTES","usage":"Y","dose":null,"dosu":null,"freq":null,"start_dtc":"2004-02-16","end_dtc":"2021-02-11"}],"total":3},"section_15_subject_status":{"items":[{"seq":"1","testcd":"SURVSTAT","test":"Survival Status","orres":"ALIVE","stresc":"ALIVE","dtc":"2024-03-12","visit":"DAY 14","epoch":"FOLLOW-UP"},{"seq":"2","testcd":"SURVSTAT","test":"Survival Status","orres":"ALIVE","stresc":"ALIVE","dtc":"2024-03-26","visit":"DAY 28","epoch":"FOLLOW-UP"}],"total":2}}