{"subject_id":"COVID-THER-301-SITE002-0056","study_id":"COVID-THER-301","generated_at":"2026-06-12T05:15:38.979077+00:00","sdtmig_version":"3.4","flags":{"has_serious_ae":false,"has_fatal_ae":false,"has_protocol_deviation":false,"n_protocol_deviations":0,"n_adverse_events":0,"n_concomitant_meds":1,"max_ae_severity":null,"screen_failure":false,"discontinued_early":false,"discontinuation_reason":null,"death":false,"exposure_days":4},"timeline":[{"dtc":"2017-03-24","dy":"-2576","event":"CM START: ATORVASTATIN","domain":"CM","category":"concomitant_med"},{"dtc":"2024-03-22","dy":"-21","event":"INFORMED CONSENT OBTAINED","domain":"DS","category":"milestone"},{"dtc":"2024-04-12","dy":"1","event":"RANDOMIZED","domain":"DS","category":"milestone"},{"dtc":"2024-04-12","dy":"1","event":"FIRST DOSE: PLACEBO","domain":"EX","category":"exposure"},{"dtc":"2024-04-12","dy":"1","event":"VISIT: BASELINE","domain":"SV","category":"visit"},{"dtc":"2024-04-15","dy":"4","event":"VISIT: DAY 3","domain":"SV","category":"visit"},{"dtc":"2024-04-16","dy":"5","event":"VISIT: DAY 5","domain":"SV","category":"visit"},{"dtc":"2024-04-26","dy":"15","event":"VISIT: DAY 14","domain":"SV","category":"visit"},{"dtc":"2024-05-09","dy":"28","event":"VISIT: DAY 28","domain":"SV","category":"visit"},{"dtc":"2024-05-10","dy":"29","event":"COMPLETED","domain":"DS","category":"milestone"}],"section_1_demographics":{"usubjid":"COVID-THER-301-SITE002-0056","subjid":"0056","siteid":"SITE002","age":"29","ageu":"YEARS","sex":"M","race":"ASIAN","ethnicity":"NOT HISPANIC OR LATINO","country":"USA","arm":"Placebo","armcd":"PBO","actarm":"Placebo","actarmcd":"PBO","randomization_date":null,"informed_consent_date":"2024-03-22","reference_start_date":"2024-04-12","reference_end_date":"2024-05-10","screen_failure":false,"death_flag":null,"death_date":null,"subject_characteristics":[{"testcd":"ALCUSE","test":"Alcohol Use","orres":"NON-DRINKER","stresc":"NON-DRINKER","visit":null,"dtc":"2024-03-22"},{"testcd":"BMI","test":"Body Mass Index","orres":"36.4","stresc":"36.4","visit":null,"dtc":"2024-03-22"},{"testcd":"DURDIS","test":"Duration of Disease","orres":"85 months","stresc":"85","visit":null,"dtc":"2024-03-22"},{"testcd":"TOBPKYR","test":"Tobacco Pack-Years","orres":"27","stresc":"27","visit":null,"dtc":"2024-03-22"},{"testcd":"TOBUSE","test":"Tobacco Use","orres":"CURRENT SMOKER","stresc":"CURRENT SMOKER","visit":null,"dtc":"2024-03-22"}]},"section_2_medical_history":{"items":[{"seq":"1","term":"ASTHMA","decod":"ASTHMA","cat":"RESPIRATORY","scat":null,"presp":null,"occur":null,"status":null,"onset_dtc":"2022-03-23","end_dtc":"2023-12-20","visit":null},{"seq":"2","term":"DEPRESSION","decod":"DEPRESSION","cat":"PSYCHIATRIC","scat":null,"presp":null,"occur":null,"status":null,"onset_dtc":"2018-03-24","end_dtc":"2023-07-25","visit":null},{"seq":"3","term":"HYPERLIPIDEMIA","decod":"HYPERLIPIDEMIA","cat":"METABOLIC","scat":null,"presp":null,"occur":null,"status":null,"onset_dtc":"2017-03-24","end_dtc":null,"visit":null}]},"section_3_inclusion_exclusion":{"criteria":[]},"section_4_trial_participation":{"visits":[{"visitnum":"1.0","visit":"BASELINE","start_dtc":"2024-04-12","end_dtc":"2024-04-12","updes":null},{"visitnum":"2.0","visit":"DAY 3","start_dtc":"2024-04-15","end_dtc":"2024-04-15","updes":null},{"visitnum":"3.0","visit":"DAY 5","start_dtc":"2024-04-16","end_dtc":"2024-04-16","updes":null},{"visitnum":"4.0","visit":"DAY 14","start_dtc":"2024-04-26","end_dtc":"2024-04-26","updes":null},{"visitnum":"5.0","visit":"DAY 28","start_dtc":"2024-05-09","end_dtc":"2024-05-09","updes":null}],"epochs":[{"seq":"1","etcd":"SCRN","element":"Screening","start_dtc":"2024-04-11","end_dtc":"2024-04-12","updes":null},{"seq":"2","etcd":"TRT","element":"Treatment","start_dtc":"2024-04-12","end_dtc":"2024-04-17","updes":null},{"seq":"3","etcd":"FU","element":"Follow-up","start_dtc":"2024-04-17","end_dtc":"2024-05-09","updes":null}],"visit_count":5},"section_5_concomitant_medications":{"medications":[{"seq":"1","trt":"ATORVASTATIN","decod":"ATORVASTATIN","cat":"PRIOR","dose":"20","doseu":null,"dosef":"QD","route":"ORAL","indication":"HYPERLIPIDEMIA","start_dtc":"2017-03-24","end_dtc":"2024-05-10","ongoing":null,"visit":null}]},"section_6_exposure":{"exposure_as_administered":[{"seq":"1","trt":"PLACEBO","dose":"0.0","doseu":null,"dosef":"BID","route":"ORAL","lot":null,"start_dtc":"2024-04-12","end_dtc":"2024-04-16","start_dy":"1","end_dy":"5","epoch":"TREATMENT","visit":null}],"exposure_as_collected":[{"seq":"1","trt":"PLACEBO","dose":null,"doseu":null,"dosef":"BID","route":"ORAL","start_dtc":"2024-04-12","end_dtc":"2024-04-12","visit":"BASELINE"},{"seq":"2","trt":"PLACEBO","dose":null,"doseu":null,"dosef":"BID","route":"ORAL","start_dtc":"2024-04-12","end_dtc":"2024-04-12","visit":"BASELINE"},{"seq":"3","trt":"PLACEBO","dose":null,"doseu":null,"dosef":"BID","route":"ORAL","start_dtc":"2024-04-13","end_dtc":"2024-04-13","visit":"BASELINE"},{"seq":"4","trt":"PLACEBO","dose":null,"doseu":null,"dosef":"BID","route":"ORAL","start_dtc":"2024-04-13","end_dtc":"2024-04-13","visit":"BASELINE"},{"seq":"5","trt":"PLACEBO","dose":null,"doseu":null,"dosef":"BID","route":"ORAL","start_dtc":"2024-04-14","end_dtc":"2024-04-14","visit":"BASELINE"},{"seq":"6","trt":"PLACEBO","dose":null,"doseu":null,"dosef":"BID","route":"ORAL","start_dtc":"2024-04-14","end_dtc":"2024-04-14","visit":"BASELINE"},{"seq":"7","trt":"PLACEBO","dose":null,"doseu":null,"dosef":"BID","route":"ORAL","start_dtc":"2024-04-15","end_dtc":"2024-04-15","visit":"BASELINE"},{"seq":"8","trt":"PLACEBO","dose":null,"doseu":null,"dosef":"BID","route":"ORAL","start_dtc":"2024-04-15","end_dtc":"2024-04-15","visit":"BASELINE"},{"seq":"9","trt":"PLACEBO","dose":null,"doseu":null,"dosef":"BID","route":"ORAL","start_dtc":"2024-04-16","end_dtc":"2024-04-16","visit":"DAY 3"},{"seq":"10","trt":"PLACEBO","dose":null,"doseu":null,"dosef":"BID","route":"ORAL","start_dtc":"2024-04-16","end_dtc":"2024-04-16","visit":"DAY 3"}]},"section_7_adverse_events":{"summary":{"total_aes":0,"serious_aes":0,"fatal_aes":0,"by_severity":{},"by_soc":{}},"events":[]},"section_8_laboratory_results":{"summary":{"total_records":35,"abnormal_count":0,"abnormal_pct":0.0},"shift_summary":[{"testcd":"ALT","baseline_value":15.8,"baseline_nrind":"NORMAL","worst_post_baseline_value":13.94,"worst_post_baseline_nrind":"NORMAL","worst_visit":"DAY 28"},{"testcd":"AST","baseline_value":19.26,"baseline_nrind":"NORMAL","worst_post_baseline_value":21.07,"worst_post_baseline_nrind":"NORMAL","worst_visit":"DAY 28"},{"testcd":"CREAT","baseline_value":101.82,"baseline_nrind":"NORMAL","worst_post_baseline_value":101.66,"worst_post_baseline_nrind":"NORMAL","worst_visit":"DAY 3"},{"testcd":"GLUC","baseline_value":4.89,"baseline_nrind":"NORMAL","worst_post_baseline_value":4.89,"worst_post_baseline_nrind":"NORMAL","worst_visit":"DAY 3"},{"testcd":"HGB","baseline_value":139.5,"baseline_nrind":"NORMAL","worst_post_baseline_value":137.51,"worst_post_baseline_nrind":"NORMAL","worst_visit":"DAY 3"},{"testcd":"PLAT","baseline_value":298.78,"baseline_nrind":"NORMAL","worst_post_baseline_value":305.71,"worst_post_baseline_nrind":"NORMAL","worst_visit":"DAY 5"},{"testcd":"WBC","baseline_value":7.25,"baseline_nrind":"NORMAL","worst_post_baseline_value":6.96,"worst_post_baseline_nrind":"NORMAL","worst_visit":"DAY 28"}],"results":[{"seq":"1","testcd":"ALT","test":"Alanine Aminotransferase","cat":"CHEMISTRY","orres":"15.8","orresu":"U/L","stresc":"15.8","stresn":"15.8","stresu":"U/L","stnrlo":"7","stnrhi":"56","nrind":"NORMAL","fast":null,"dtc":"2024-04-12","dy":"1","visit":"BASELINE","visitnum":"1.0","epoch":"TREATMENT","spec":null,"method":null},{"seq":"2","testcd":"AST","test":"Aspartate Aminotransferase","cat":"CHEMISTRY","orres":"19.26","orresu":"U/L","stresc":"19.26","stresn":"19.26","stresu":"U/L","stnrlo":"10","stnrhi":"40","nrind":"NORMAL","fast":null,"dtc":"2024-04-12","dy":"1","visit":"BASELINE","visitnum":"1.0","epoch":"TREATMENT","spec":null,"method":null},{"seq":"3","testcd":"CREAT","test":"Creatinine","cat":"CHEMISTRY","orres":"101.82","orresu":"umol/L","stresc":"101.82","stresn":"101.82","stresu":"umol/L","stnrlo":"62","stnrhi":"106","nrind":"NORMAL","fast":null,"dtc":"2024-04-12","dy":"1","visit":"BASELINE","visitnum":"1.0","epoch":"TREATMENT","spec":null,"method":null},{"seq":"4","testcd":"GLUC","test":"Glucose","cat":"CHEMISTRY","orres":"4.89","orresu":"mmol/L","stresc":"4.89","stresn":"4.89","stresu":"mmol/L","stnrlo":"3.9","stnrhi":"5.6","nrind":"NORMAL","fast":null,"dtc":"2024-04-12","dy":"1","visit":"BASELINE","visitnum":"1.0","epoch":"TREATMENT","spec":null,"method":null},{"seq":"5","testcd":"HGB","test":"Hemoglobin","cat":"HEMATOLOGY","orres":"139.5","orresu":"g/L","stresc":"139.5","stresn":"139.5","stresu":"g/L","stnrlo":"130","stnrhi":"175","nrind":"NORMAL","fast":null,"dtc":"2024-04-12","dy":"1","visit":"BASELINE","visitnum":"1.0","epoch":"TREATMENT","spec":null,"method":null},{"seq":"6","testcd":"PLAT","test":"Platelets","cat":"HEMATOLOGY","orres":"298.78","orresu":"10^9/L","stresc":"298.78","stresn":"298.78","stresu":"10^9/L","stnrlo":"150","stnrhi":"400","nrind":"NORMAL","fast":null,"dtc":"2024-04-12","dy":"1","visit":"BASELINE","visitnum":"1.0","epoch":"TREATMENT","spec":null,"method":null},{"seq":"7","testcd":"WBC","test":"Leukocytes","cat":"HEMATOLOGY","orres":"7.25","orresu":"10^9/L","stresc":"7.25","stresn":"7.25","stresu":"10^9/L","stnrlo":"4.0","stnrhi":"11.0","nrind":"NORMAL","fast":null,"dtc":"2024-04-12","dy":"1","visit":"BASELINE","visitnum":"1.0","epoch":"TREATMENT","spec":null,"method":null},{"seq":"8","testcd":"ALT","test":"Alanine Aminotransferase","cat":"CHEMISTRY","orres":"13.65","orresu":"U/L","stresc":"13.65","stresn":"13.65","stresu":"U/L","stnrlo":"7","stnrhi":"56","nrind":"NORMAL","fast":null,"dtc":"2024-04-15","dy":"4","visit":"DAY 3","visitnum":"2.0","epoch":"TREATMENT","spec":null,"method":null},{"seq":"9","testcd":"AST","test":"Aspartate Aminotransferase","cat":"CHEMISTRY","orres":"19.64","orresu":"U/L","stresc":"19.64","stresn":"19.64","stresu":"U/L","stnrlo":"10","stnrhi":"40","nrind":"NORMAL","fast":null,"dtc":"2024-04-15","dy":"4","visit":"DAY 3","visitnum":"2.0","epoch":"TREATMENT","spec":null,"method":null},{"seq":"10","testcd":"CREAT","test":"Creatinine","cat":"CHEMISTRY","orres":"101.66","orresu":"umol/L","stresc":"101.66","stresn":"101.66","stresu":"umol/L","stnrlo":"62","stnrhi":"106","nrind":"NORMAL","fast":null,"dtc":"2024-04-15","dy":"4","visit":"DAY 3","visitnum":"2.0","epoch":"TREATMENT","spec":null,"method":null},{"seq":"11","testcd":"GLUC","test":"Glucose","cat":"CHEMISTRY","orres":"4.89","orresu":"mmol/L","stresc":"4.89","stresn":"4.89","stresu":"mmol/L","stnrlo":"3.9","stnrhi":"5.6","nrind":"NORMAL","fast":null,"dtc":"2024-04-15","dy":"4","visit":"DAY 3","visitnum":"2.0","epoch":"TREATMENT","spec":null,"method":null},{"seq":"12","testcd":"HGB","test":"Hemoglobin","cat":"HEMATOLOGY","orres":"137.51","orresu":"g/L","stresc":"137.51","stresn":"137.51","stresu":"g/L","stnrlo":"130","stnrhi":"175","nrind":"NORMAL","fast":null,"dtc":"2024-04-15","dy":"4","visit":"DAY 3","visitnum":"2.0","epoch":"TREATMENT","spec":null,"method":null},{"seq":"13","testcd":"PLAT","test":"Platelets","cat":"HEMATOLOGY","orres":"304.82","orresu":"10^9/L","stresc":"304.82","stresn":"304.82","stresu":"10^9/L","stnrlo":"150","stnrhi":"400","nrind":"NORMAL","fast":null,"dtc":"2024-04-15","dy":"4","visit":"DAY 3","visitnum":"2.0","epoch":"TREATMENT","spec":null,"method":null},{"seq":"14","testcd":"WBC","test":"Leukocytes","cat":"HEMATOLOGY","orres":"6.94","orresu":"10^9/L","stresc":"6.94","stresn":"6.94","stresu":"10^9/L","stnrlo":"4.0","stnrhi":"11.0","nrind":"NORMAL","fast":null,"dtc":"2024-04-15","dy":"4","visit":"DAY 3","visitnum":"2.0","epoch":"TREATMENT","spec":null,"method":null},{"seq":"15","testcd":"ALT","test":"Alanine Aminotransferase","cat":"CHEMISTRY","orres":"13.83","orresu":"U/L","stresc":"13.83","stresn":"13.83","stresu":"U/L","stnrlo":"7","stnrhi":"56","nrind":"NORMAL","fast":null,"dtc":"2024-04-16","dy":"5","visit":"DAY 5","visitnum":"3.0","epoch":"TREATMENT","spec":null,"method":null},{"seq":"16","testcd":"AST","test":"Aspartate Aminotransferase","cat":"CHEMISTRY","orres":"19.53","orresu":"U/L","stresc":"19.53","stresn":"19.53","stresu":"U/L","stnrlo":"10","stnrhi":"40","nrind":"NORMAL","fast":null,"dtc":"2024-04-16","dy":"5","visit":"DAY 5","visitnum":"3.0","epoch":"TREATMENT","spec":null,"method":null},{"seq":"17","testcd":"CREAT","test":"Creatinine","cat":"CHEMISTRY","orres":"99.64","orresu":"umol/L","stresc":"99.64","stresn":"99.64","stresu":"umol/L","stnrlo":"62","stnrhi":"106","nrind":"NORMAL","fast":null,"dtc":"2024-04-16","dy":"5","visit":"DAY 5","visitnum":"3.0","epoch":"TREATMENT","spec":null,"method":null},{"seq":"18","testcd":"GLUC","test":"Glucose","cat":"CHEMISTRY","orres":"4.84","orresu":"mmol/L","stresc":"4.84","stresn":"4.84","stresu":"mmol/L","stnrlo":"3.9","stnrhi":"5.6","nrind":"NORMAL","fast":null,"dtc":"2024-04-16","dy":"5","visit":"DAY 5","visitnum":"3.0","epoch":"TREATMENT","spec":null,"method":null},{"seq":"19","testcd":"HGB","test":"Hemoglobin","cat":"HEMATOLOGY","orres":"138.77","orresu":"g/L","stresc":"138.77","stresn":"138.77","stresu":"g/L","stnrlo":"130","stnrhi":"175","nrind":"NORMAL","fast":null,"dtc":"2024-04-16","dy":"5","visit":"DAY 5","visitnum":"3.0","epoch":"TREATMENT","spec":null,"method":null},{"seq":"20","testcd":"PLAT","test":"Platelets","cat":"HEMATOLOGY","orres":"305.71","orresu":"10^9/L","stresc":"305.71","stresn":"305.71","stresu":"10^9/L","stnrlo":"150","stnrhi":"400","nrind":"NORMAL","fast":null,"dtc":"2024-04-16","dy":"5","visit":"DAY 5","visitnum":"3.0","epoch":"TREATMENT","spec":null,"method":null},{"seq":"21","testcd":"WBC","test":"Leukocytes","cat":"HEMATOLOGY","orres":"6.74","orresu":"10^9/L","stresc":"6.74","stresn":"6.74","stresu":"10^9/L","stnrlo":"4.0","stnrhi":"11.0","nrind":"NORMAL","fast":null,"dtc":"2024-04-16","dy":"5","visit":"DAY 5","visitnum":"3.0","epoch":"TREATMENT","spec":null,"method":null},{"seq":"22","testcd":"ALT","test":"Alanine Aminotransferase","cat":"CHEMISTRY","orres":"13.56","orresu":"U/L","stresc":"13.56","stresn":"13.56","stresu":"U/L","stnrlo":"7","stnrhi":"56","nrind":"NORMAL","fast":null,"dtc":"2024-04-26","dy":"15","visit":"DAY 14","visitnum":"4.0","epoch":"FOLLOW-UP","spec":null,"method":null},{"seq":"23","testcd":"AST","test":"Aspartate Aminotransferase","cat":"CHEMISTRY","orres":"20.96","orresu":"U/L","stresc":"20.96","stresn":"20.96","stresu":"U/L","stnrlo":"10","stnrhi":"40","nrind":"NORMAL","fast":null,"dtc":"2024-04-26","dy":"15","visit":"DAY 14","visitnum":"4.0","epoch":"FOLLOW-UP","spec":null,"method":null},{"seq":"24","testcd":"CREAT","test":"Creatinine","cat":"CHEMISTRY","orres":null,"orresu":null,"stresc":null,"stresn":null,"stresu":null,"stnrlo":null,"stnrhi":null,"nrind":null,"fast":null,"dtc":"2024-04-26","dy":"15","visit":"DAY 14","visitnum":"4.0","epoch":"FOLLOW-UP","spec":null,"method":null},{"seq":"25","testcd":"GLUC","test":"Glucose","cat":"CHEMISTRY","orres":"4.85","orresu":"mmol/L","stresc":"4.85","stresn":"4.85","stresu":"mmol/L","stnrlo":"3.9","stnrhi":"5.6","nrind":"NORMAL","fast":null,"dtc":"2024-04-26","dy":"15","visit":"DAY 14","visitnum":"4.0","epoch":"FOLLOW-UP","spec":null,"method":null},{"seq":"26","testcd":"HGB","test":"Hemoglobin","cat":"HEMATOLOGY","orres":"139.77","orresu":"g/L","stresc":"139.77","stresn":"139.77","stresu":"g/L","stnrlo":"130","stnrhi":"175","nrind":"NORMAL","fast":null,"dtc":"2024-04-26","dy":"15","visit":"DAY 14","visitnum":"4.0","epoch":"FOLLOW-UP","spec":null,"method":null},{"seq":"27","testcd":"PLAT","test":"Platelets","cat":"HEMATOLOGY","orres":"287.93","orresu":"10^9/L","stresc":"287.93","stresn":"287.93","stresu":"10^9/L","stnrlo":"150","stnrhi":"400","nrind":"NORMAL","fast":null,"dtc":"2024-04-26","dy":"15","visit":"DAY 14","visitnum":"4.0","epoch":"FOLLOW-UP","spec":null,"method":null},{"seq":"28","testcd":"WBC","test":"Leukocytes","cat":"HEMATOLOGY","orres":null,"orresu":null,"stresc":null,"stresn":null,"stresu":null,"stnrlo":null,"stnrhi":null,"nrind":null,"fast":null,"dtc":"2024-04-26","dy":"15","visit":"DAY 14","visitnum":"4.0","epoch":"FOLLOW-UP","spec":null,"method":null},{"seq":"29","testcd":"ALT","test":"Alanine Aminotransferase","cat":"CHEMISTRY","orres":"13.94","orresu":"U/L","stresc":"13.94","stresn":"13.94","stresu":"U/L","stnrlo":"7","stnrhi":"56","nrind":"NORMAL","fast":null,"dtc":"2024-05-09","dy":"28","visit":"DAY 28","visitnum":"5.0","epoch":"FOLLOW-UP","spec":null,"method":null},{"seq":"30","testcd":"AST","test":"Aspartate Aminotransferase","cat":"CHEMISTRY","orres":"21.07","orresu":"U/L","stresc":"21.07","stresn":"21.07","stresu":"U/L","stnrlo":"10","stnrhi":"40","nrind":"NORMAL","fast":null,"dtc":"2024-05-09","dy":"28","visit":"DAY 28","visitnum":"5.0","epoch":"FOLLOW-UP","spec":null,"method":null},{"seq":"31","testcd":"CREAT","test":"Creatinine","cat":"CHEMISTRY","orres":"100.84","orresu":"umol/L","stresc":"100.84","stresn":"100.84","stresu":"umol/L","stnrlo":"62","stnrhi":"106","nrind":"NORMAL","fast":null,"dtc":"2024-05-09","dy":"28","visit":"DAY 28","visitnum":"5.0","epoch":"FOLLOW-UP","spec":null,"method":null},{"seq":"32","testcd":"GLUC","test":"Glucose","cat":"CHEMISTRY","orres":"4.83","orresu":"mmol/L","stresc":"4.83","stresn":"4.83","stresu":"mmol/L","stnrlo":"3.9","stnrhi":"5.6","nrind":"NORMAL","fast":null,"dtc":"2024-05-09","dy":"28","visit":"DAY 28","visitnum":"5.0","epoch":"FOLLOW-UP","spec":null,"method":null},{"seq":"33","testcd":"HGB","test":"Hemoglobin","cat":"HEMATOLOGY","orres":"139.41","orresu":"g/L","stresc":"139.41","stresn":"139.41","stresu":"g/L","stnrlo":"130","stnrhi":"175","nrind":"NORMAL","fast":null,"dtc":"2024-05-09","dy":"28","visit":"DAY 28","visitnum":"5.0","epoch":"FOLLOW-UP","spec":null,"method":null},{"seq":"34","testcd":"PLAT","test":"Platelets","cat":"HEMATOLOGY","orres":"294.57","orresu":"10^9/L","stresc":"294.57","stresn":"294.57","stresu":"10^9/L","stnrlo":"150","stnrhi":"400","nrind":"NORMAL","fast":null,"dtc":"2024-05-09","dy":"28","visit":"DAY 28","visitnum":"5.0","epoch":"FOLLOW-UP","spec":null,"method":null},{"seq":"35","testcd":"WBC","test":"Leukocytes","cat":"HEMATOLOGY","orres":"6.96","orresu":"10^9/L","stresc":"6.96","stresn":"6.96","stresu":"10^9/L","stnrlo":"4.0","stnrhi":"11.0","nrind":"NORMAL","fast":null,"dtc":"2024-05-09","dy":"28","visit":"DAY 28","visitnum":"5.0","epoch":"FOLLOW-UP","spec":null,"method":null}]},"section_9_vital_signs":{"summary":{"total_records":40},"trends":{"BMI":[{"visit":"BASELINE","visitnum":"1.0","dtc":"2024-04-12","value":"36.4","unit":"kg/m2"},{"visit":"DAY 3","visitnum":"2.0","dtc":"2024-04-15","value":"37.3","unit":"kg/m2"},{"visit":"DAY 5","visitnum":"3.0","dtc":"2024-04-16","value":"37.0","unit":"kg/m2"},{"visit":"DAY 14","visitnum":"4.0","dtc":"2024-04-26","value":"37.3","unit":"kg/m2"},{"visit":"DAY 28","visitnum":"5.0","dtc":"2024-05-09","value":"37.9","unit":"kg/m2"}],"DIABP":[{"visit":"BASELINE","visitnum":"1.0","dtc":"2024-04-12","value":"58.4","unit":"mmHg"},{"visit":"DAY 3","visitnum":"2.0","dtc":"2024-04-15","value":"58.7","unit":"mmHg"},{"visit":"DAY 5","visitnum":"3.0","dtc":"2024-04-16","value":"61.1","unit":"mmHg"},{"visit":"DAY 14","visitnum":"4.0","dtc":"2024-04-26","value":"60.9","unit":"mmHg"},{"visit":"DAY 28","visitnum":"5.0","dtc":"2024-05-09","value":"58.5","unit":"mmHg"}],"HEIGHT":[{"visit":"BASELINE","visitnum":"1.0","dtc":"2024-04-12","value":"148.9","unit":"cm"},{"visit":"DAY 3","visitnum":"2.0","dtc":"2024-04-15","value":"147.8","unit":"cm"},{"visit":"DAY 5","visitnum":"3.0","dtc":"2024-04-16","value":"147.1","unit":"cm"},{"visit":"DAY 14","visitnum":"4.0","dtc":"2024-04-26","value":"147.5","unit":"cm"},{"visit":"DAY 28","visitnum":"5.0","dtc":"2024-05-09","value":"147.2","unit":"cm"}],"PULSE":[{"visit":"BASELINE","visitnum":"1.0","dtc":"2024-04-12","value":"95.6","unit":"beats/min"},{"visit":"DAY 3","visitnum":"2.0","dtc":"2024-04-15","value":"96.9","unit":"beats/min"},{"visit":"DAY 5","visitnum":"3.0","dtc":"2024-04-16","value":"95.7","unit":"beats/min"},{"visit":"DAY 14","visitnum":"4.0","dtc":"2024-04-26","value":"97.4","unit":"beats/min"},{"visit":"DAY 28","visitnum":"5.0","dtc":"2024-05-09","value":"97.0","unit":"beats/min"}],"RESP":[{"visit":"BASELINE","visitnum":"1.0","dtc":"2024-04-12","value":"17.4","unit":"breaths/min"},{"visit":"DAY 3","visitnum":"2.0","dtc":"2024-04-15","value":"19.5","unit":"breaths/min"},{"visit":"DAY 5","visitnum":"3.0","dtc":"2024-04-16","value":"17.4","unit":"breaths/min"},{"visit":"DAY 14","visitnum":"4.0","dtc":"2024-04-26","value":"17.7","unit":"breaths/min"},{"visit":"DAY 28","visitnum":"5.0","dtc":"2024-05-09","value":"18.1","unit":"breaths/min"}],"SYSBP":[{"visit":"BASELINE","visitnum":"1.0","dtc":"2024-04-12","value":"121.9","unit":"mmHg"},{"visit":"DAY 3","visitnum":"2.0","dtc":"2024-04-15","value":"123.3","unit":"mmHg"},{"visit":"DAY 5","visitnum":"3.0","dtc":"2024-04-16","value":"125.9","unit":"mmHg"},{"visit":"DAY 14","visitnum":"4.0","dtc":"2024-04-26","value":"128.6","unit":"mmHg"},{"visit":"DAY 28","visitnum":"5.0","dtc":"2024-05-09","value":"125.7","unit":"mmHg"}],"TEMP":[{"visit":"BASELINE","visitnum":"1.0","dtc":"2024-04-12","value":"36.5","unit":"C"},{"visit":"DAY 3","visitnum":"2.0","dtc":"2024-04-15","value":"36.5","unit":"C"},{"visit":"DAY 5","visitnum":"3.0","dtc":"2024-04-16","value":"36.4","unit":"C"},{"visit":"DAY 14","visitnum":"4.0","dtc":"2024-04-26","value":"36.7","unit":"C"},{"visit":"DAY 28","visitnum":"5.0","dtc":"2024-05-09","value":"36.5","unit":"C"}],"WEIGHT":[{"visit":"BASELINE","visitnum":"1.0","dtc":"2024-04-12","value":"80.7","unit":"kg"},{"visit":"DAY 3","visitnum":"2.0","dtc":"2024-04-15","value":"81.5","unit":"kg"},{"visit":"DAY 5","visitnum":"3.0","dtc":"2024-04-16","value":"80.0","unit":"kg"},{"visit":"DAY 14","visitnum":"4.0","dtc":"2024-04-26","value":"81.2","unit":"kg"},{"visit":"DAY 28","visitnum":"5.0","dtc":"2024-05-09","value":"82.1","unit":"kg"}]},"results":[{"seq":"1","testcd":"BMI","test":"BMI","cat":null,"orres":"36.4","orresu":"kg/m2","stresc":"36.4","stresn":"36.4","stresu":"kg/m2","stnrlo":null,"stnrhi":null,"nrind":null,"pos":null,"loc":null,"dtc":"2024-04-12","dy":"1","visit":"BASELINE","visitnum":"1.0","epoch":"TREATMENT"},{"seq":"2","testcd":"DIABP","test":"Diastolic Blood Pressure","cat":null,"orres":"58.4","orresu":"mmHg","stresc":"58.4","stresn":"58.4","stresu":"mmHg","stnrlo":null,"stnrhi":null,"nrind":null,"pos":null,"loc":null,"dtc":"2024-04-12","dy":"1","visit":"BASELINE","visitnum":"1.0","epoch":"TREATMENT"},{"seq":"3","testcd":"HEIGHT","test":"Height","cat":null,"orres":"148.9","orresu":"cm","stresc":"148.9","stresn":"148.9","stresu":"cm","stnrlo":null,"stnrhi":null,"nrind":null,"pos":null,"loc":null,"dtc":"2024-04-12","dy":"1","visit":"BASELINE","visitnum":"1.0","epoch":"TREATMENT"},{"seq":"4","testcd":"PULSE","test":"Pulse Rate","cat":null,"orres":"95.6","orresu":"beats/min","stresc":"95.6","stresn":"95.6","stresu":"beats/min","stnrlo":null,"stnrhi":null,"nrind":null,"pos":null,"loc":null,"dtc":"2024-04-12","dy":"1","visit":"BASELINE","visitnum":"1.0","epoch":"TREATMENT"},{"seq":"5","testcd":"RESP","test":"Respiratory Rate","cat":null,"orres":"17.4","orresu":"breaths/min","stresc":"17.4","stresn":"17.4","stresu":"breaths/min","stnrlo":null,"stnrhi":null,"nrind":null,"pos":null,"loc":null,"dtc":"2024-04-12","dy":"1","visit":"BASELINE","visitnum":"1.0","epoch":"TREATMENT"},{"seq":"6","testcd":"SYSBP","test":"Systolic Blood Pressure","cat":null,"orres":"121.9","orresu":"mmHg","stresc":"121.9","stresn":"121.9","stresu":"mmHg","stnrlo":null,"stnrhi":null,"nrind":null,"pos":null,"loc":null,"dtc":"2024-04-12","dy":"1","visit":"BASELINE","visitnum":"1.0","epoch":"TREATMENT"},{"seq":"7","testcd":"TEMP","test":"Temperature","cat":null,"orres":"36.5","orresu":"C","stresc":"36.5","stresn":"36.5","stresu":"C","stnrlo":null,"stnrhi":null,"nrind":null,"pos":null,"loc":null,"dtc":"2024-04-12","dy":"1","visit":"BASELINE","visitnum":"1.0","epoch":"TREATMENT"},{"seq":"8","testcd":"WEIGHT","test":"Weight","cat":null,"orres":"80.7","orresu":"kg","stresc":"80.7","stresn":"80.7","stresu":"kg","stnrlo":null,"stnrhi":null,"nrind":null,"pos":null,"loc":null,"dtc":"2024-04-12","dy":"1","visit":"BASELINE","visitnum":"1.0","epoch":"TREATMENT"},{"seq":"9","testcd":"BMI","test":"BMI","cat":null,"orres":"37.3","orresu":"kg/m2","stresc":"37.3","stresn":"37.3","stresu":"kg/m2","stnrlo":null,"stnrhi":null,"nrind":null,"pos":null,"loc":null,"dtc":"2024-04-15","dy":"4","visit":"DAY 3","visitnum":"2.0","epoch":"TREATMENT"},{"seq":"10","testcd":"DIABP","test":"Diastolic Blood Pressure","cat":null,"orres":"58.7","orresu":"mmHg","stresc":"58.7","stresn":"58.7","stresu":"mmHg","stnrlo":null,"stnrhi":null,"nrind":null,"pos":null,"loc":null,"dtc":"2024-04-15","dy":"4","visit":"DAY 3","visitnum":"2.0","epoch":"TREATMENT"},{"seq":"11","testcd":"HEIGHT","test":"Height","cat":null,"orres":"147.8","orresu":"cm","stresc":"147.8","stresn":"147.8","stresu":"cm","stnrlo":null,"stnrhi":null,"nrind":null,"pos":null,"loc":null,"dtc":"2024-04-15","dy":"4","visit":"DAY 3","visitnum":"2.0","epoch":"TREATMENT"},{"seq":"12","testcd":"PULSE","test":"Pulse Rate","cat":null,"orres":"96.9","orresu":"beats/min","stresc":"96.9","stresn":"96.9","stresu":"beats/min","stnrlo":null,"stnrhi":null,"nrind":null,"pos":null,"loc":null,"dtc":"2024-04-15","dy":"4","visit":"DAY 3","visitnum":"2.0","epoch":"TREATMENT"},{"seq":"13","testcd":"RESP","test":"Respiratory Rate","cat":null,"orres":"19.5","orresu":"breaths/min","stresc":"19.5","stresn":"19.5","stresu":"breaths/min","stnrlo":null,"stnrhi":null,"nrind":null,"pos":null,"loc":null,"dtc":"2024-04-15","dy":"4","visit":"DAY 3","visitnum":"2.0","epoch":"TREATMENT"},{"seq":"14","testcd":"SYSBP","test":"Systolic Blood Pressure","cat":null,"orres":"123.3","orresu":"mmHg","stresc":"123.3","stresn":"123.3","stresu":"mmHg","stnrlo":null,"stnrhi":null,"nrind":null,"pos":null,"loc":null,"dtc":"2024-04-15","dy":"4","visit":"DAY 3","visitnum":"2.0","epoch":"TREATMENT"},{"seq":"15","testcd":"TEMP","test":"Temperature","cat":null,"orres":"36.5","orresu":"C","stresc":"36.5","stresn":"36.5","stresu":"C","stnrlo":null,"stnrhi":null,"nrind":null,"pos":null,"loc":null,"dtc":"2024-04-15","dy":"4","visit":"DAY 3","visitnum":"2.0","epoch":"TREATMENT"},{"seq":"16","testcd":"WEIGHT","test":"Weight","cat":null,"orres":"81.5","orresu":"kg","stresc":"81.5","stresn":"81.5","stresu":"kg","stnrlo":null,"stnrhi":null,"nrind":null,"pos":null,"loc":null,"dtc":"2024-04-15","dy":"4","visit":"DAY 3","visitnum":"2.0","epoch":"TREATMENT"},{"seq":"17","testcd":"BMI","test":"BMI","cat":null,"orres":"37.0","orresu":"kg/m2","stresc":"37.0","stresn":"37.0","stresu":"kg/m2","stnrlo":null,"stnrhi":null,"nrind":null,"pos":null,"loc":null,"dtc":"2024-04-16","dy":"5","visit":"DAY 5","visitnum":"3.0","epoch":"TREATMENT"},{"seq":"18","testcd":"DIABP","test":"Diastolic Blood Pressure","cat":null,"orres":"61.1","orresu":"mmHg","stresc":"61.1","stresn":"61.1","stresu":"mmHg","stnrlo":null,"stnrhi":null,"nrind":null,"pos":null,"loc":null,"dtc":"2024-04-16","dy":"5","visit":"DAY 5","visitnum":"3.0","epoch":"TREATMENT"},{"seq":"19","testcd":"HEIGHT","test":"Height","cat":null,"orres":"147.1","orresu":"cm","stresc":"147.1","stresn":"147.1","stresu":"cm","stnrlo":null,"stnrhi":null,"nrind":null,"pos":null,"loc":null,"dtc":"2024-04-16","dy":"5","visit":"DAY 5","visitnum":"3.0","epoch":"TREATMENT"},{"seq":"20","testcd":"PULSE","test":"Pulse Rate","cat":null,"orres":"95.7","orresu":"beats/min","stresc":"95.7","stresn":"95.7","stresu":"beats/min","stnrlo":null,"stnrhi":null,"nrind":null,"pos":null,"loc":null,"dtc":"2024-04-16","dy":"5","visit":"DAY 5","visitnum":"3.0","epoch":"TREATMENT"},{"seq":"21","testcd":"RESP","test":"Respiratory Rate","cat":null,"orres":"17.4","orresu":"breaths/min","stresc":"17.4","stresn":"17.4","stresu":"breaths/min","stnrlo":null,"stnrhi":null,"nrind":null,"pos":null,"loc":null,"dtc":"2024-04-16","dy":"5","visit":"DAY 5","visitnum":"3.0","epoch":"TREATMENT"},{"seq":"22","testcd":"SYSBP","test":"Systolic Blood Pressure","cat":null,"orres":"125.9","orresu":"mmHg","stresc":"125.9","stresn":"125.9","stresu":"mmHg","stnrlo":null,"stnrhi":null,"nrind":null,"pos":null,"loc":null,"dtc":"2024-04-16","dy":"5","visit":"DAY 5","visitnum":"3.0","epoch":"TREATMENT"},{"seq":"23","testcd":"TEMP","test":"Temperature","cat":null,"orres":"36.4","orresu":"C","stresc":"36.4","stresn":"36.4","stresu":"C","stnrlo":null,"stnrhi":null,"nrind":null,"pos":null,"loc":null,"dtc":"2024-04-16","dy":"5","visit":"DAY 5","visitnum":"3.0","epoch":"TREATMENT"},{"seq":"24","testcd":"WEIGHT","test":"Weight","cat":null,"orres":"80.0","orresu":"kg","stresc":"80.0","stresn":"80.0","stresu":"kg","stnrlo":null,"stnrhi":null,"nrind":null,"pos":null,"loc":null,"dtc":"2024-04-16","dy":"5","visit":"DAY 5","visitnum":"3.0","epoch":"TREATMENT"},{"seq":"25","testcd":"BMI","test":"BMI","cat":null,"orres":"37.3","orresu":"kg/m2","stresc":"37.3","stresn":"37.3","stresu":"kg/m2","stnrlo":null,"stnrhi":null,"nrind":null,"pos":null,"loc":null,"dtc":"2024-04-26","dy":"15","visit":"DAY 14","visitnum":"4.0","epoch":"FOLLOW-UP"},{"seq":"26","testcd":"DIABP","test":"Diastolic Blood Pressure","cat":null,"orres":"60.9","orresu":"mmHg","stresc":"60.9","stresn":"60.9","stresu":"mmHg","stnrlo":null,"stnrhi":null,"nrind":null,"pos":null,"loc":null,"dtc":"2024-04-26","dy":"15","visit":"DAY 14","visitnum":"4.0","epoch":"FOLLOW-UP"},{"seq":"27","testcd":"HEIGHT","test":"Height","cat":null,"orres":"147.5","orresu":"cm","stresc":"147.5","stresn":"147.5","stresu":"cm","stnrlo":null,"stnrhi":null,"nrind":null,"pos":null,"loc":null,"dtc":"2024-04-26","dy":"15","visit":"DAY 14","visitnum":"4.0","epoch":"FOLLOW-UP"},{"seq":"28","testcd":"PULSE","test":"Pulse Rate","cat":null,"orres":"97.4","orresu":"beats/min","stresc":"97.4","stresn":"97.4","stresu":"beats/min","stnrlo":null,"stnrhi":null,"nrind":null,"pos":null,"loc":null,"dtc":"2024-04-26","dy":"15","visit":"DAY 14","visitnum":"4.0","epoch":"FOLLOW-UP"},{"seq":"29","testcd":"RESP","test":"Respiratory Rate","cat":null,"orres":"17.7","orresu":"breaths/min","stresc":"17.7","stresn":"17.7","stresu":"breaths/min","stnrlo":null,"stnrhi":null,"nrind":null,"pos":null,"loc":null,"dtc":"2024-04-26","dy":"15","visit":"DAY 14","visitnum":"4.0","epoch":"FOLLOW-UP"},{"seq":"30","testcd":"SYSBP","test":"Systolic Blood Pressure","cat":null,"orres":"128.6","orresu":"mmHg","stresc":"128.6","stresn":"128.6","stresu":"mmHg","stnrlo":null,"stnrhi":null,"nrind":null,"pos":null,"loc":null,"dtc":"2024-04-26","dy":"15","visit":"DAY 14","visitnum":"4.0","epoch":"FOLLOW-UP"},{"seq":"31","testcd":"TEMP","test":"Temperature","cat":null,"orres":"36.7","orresu":"C","stresc":"36.7","stresn":"36.7","stresu":"C","stnrlo":null,"stnrhi":null,"nrind":null,"pos":null,"loc":null,"dtc":"2024-04-26","dy":"15","visit":"DAY 14","visitnum":"4.0","epoch":"FOLLOW-UP"},{"seq":"32","testcd":"WEIGHT","test":"Weight","cat":null,"orres":"81.2","orresu":"kg","stresc":"81.2","stresn":"81.2","stresu":"kg","stnrlo":null,"stnrhi":null,"nrind":null,"pos":null,"loc":null,"dtc":"2024-04-26","dy":"15","visit":"DAY 14","visitnum":"4.0","epoch":"FOLLOW-UP"},{"seq":"33","testcd":"BMI","test":"BMI","cat":null,"orres":"37.9","orresu":"kg/m2","stresc":"37.9","stresn":"37.9","stresu":"kg/m2","stnrlo":null,"stnrhi":null,"nrind":null,"pos":null,"loc":null,"dtc":"2024-05-09","dy":"28","visit":"DAY 28","visitnum":"5.0","epoch":"FOLLOW-UP"},{"seq":"34","testcd":"DIABP","test":"Diastolic Blood Pressure","cat":null,"orres":"58.5","orresu":"mmHg","stresc":"58.5","stresn":"58.5","stresu":"mmHg","stnrlo":null,"stnrhi":null,"nrind":null,"pos":null,"loc":null,"dtc":"2024-05-09","dy":"28","visit":"DAY 28","visitnum":"5.0","epoch":"FOLLOW-UP"},{"seq":"35","testcd":"HEIGHT","test":"Height","cat":null,"orres":"147.2","orresu":"cm","stresc":"147.2","stresn":"147.2","stresu":"cm","stnrlo":null,"stnrhi":null,"nrind":null,"pos":null,"loc":null,"dtc":"2024-05-09","dy":"28","visit":"DAY 28","visitnum":"5.0","epoch":"FOLLOW-UP"},{"seq":"36","testcd":"PULSE","test":"Pulse Rate","cat":null,"orres":"97.0","orresu":"beats/min","stresc":"97.0","stresn":"97.0","stresu":"beats/min","stnrlo":null,"stnrhi":null,"nrind":null,"pos":null,"loc":null,"dtc":"2024-05-09","dy":"28","visit":"DAY 28","visitnum":"5.0","epoch":"FOLLOW-UP"},{"seq":"37","testcd":"RESP","test":"Respiratory Rate","cat":null,"orres":"18.1","orresu":"breaths/min","stresc":"18.1","stresn":"18.1","stresu":"breaths/min","stnrlo":null,"stnrhi":null,"nrind":null,"pos":null,"loc":null,"dtc":"2024-05-09","dy":"28","visit":"DAY 28","visitnum":"5.0","epoch":"FOLLOW-UP"},{"seq":"38","testcd":"SYSBP","test":"Systolic Blood Pressure","cat":null,"orres":"125.7","orresu":"mmHg","stresc":"125.7","stresn":"125.7","stresu":"mmHg","stnrlo":null,"stnrhi":null,"nrind":null,"pos":null,"loc":null,"dtc":"2024-05-09","dy":"28","visit":"DAY 28","visitnum":"5.0","epoch":"FOLLOW-UP"},{"seq":"39","testcd":"TEMP","test":"Temperature","cat":null,"orres":"36.5","orresu":"C","stresc":"36.5","stresn":"36.5","stresu":"C","stnrlo":null,"stnrhi":null,"nrind":null,"pos":null,"loc":null,"dtc":"2024-05-09","dy":"28","visit":"DAY 28","visitnum":"5.0","epoch":"FOLLOW-UP"},{"seq":"40","testcd":"WEIGHT","test":"Weight","cat":null,"orres":"82.1","orresu":"kg","stresc":"82.1","stresn":"82.1","stresu":"kg","stnrlo":null,"stnrhi":null,"nrind":null,"pos":null,"loc":null,"dtc":"2024-05-09","dy":"28","visit":"DAY 28","visitnum":"5.0","epoch":"FOLLOW-UP"}]},"section_10_questionnaires_and_scores":{"questionnaires":[],"findings_about":[]},"section_11_protocol_deviations":{"deviations":[],"total":0},"section_12_disposition":{"completion_status":"COMPLETED","disposition_records":[{"seq":"1","term":"INFORMED CONSENT OBTAINED","decod":"INFORMED CONSENT OBTAINED","cat":"PROTOCOL MILESTONE","scat":null,"dtc":"2024-03-22","dy":null,"visit":null,"epoch":"SCREENING"},{"seq":"2","term":"RANDOMIZED","decod":"RANDOMIZED","cat":"PROTOCOL MILESTONE","scat":null,"dtc":"2024-04-12","dy":null,"visit":null,"epoch":"TREATMENT"},{"seq":"3","term":"COMPLETED","decod":"COMPLETED","cat":"DISPOSITION EVENT","scat":null,"dtc":"2024-05-10","dy":null,"visit":null,"epoch":"FOLLOW-UP"}],"death":null},"section_13_hospitalizations":{"items":[],"total":0},"section_14_substance_use":{"items":[{"seq":"1","substance":"ALCOHOL","decod":"ALCOHOL","cat":"ALCOHOL","scat":null,"usage":"N","dose":null,"dosu":null,"freq":null,"start_dtc":null,"end_dtc":null},{"seq":"2","substance":"COFFEE","decod":"COFFEE","cat":"CAFFEINE","scat":null,"usage":"Y","dose":"3.0","dosu":"CUPS/DAY","freq":"QD","start_dtc":"2010-03-26","end_dtc":null},{"seq":"3","substance":"CIGARETTES","decod":"CIGARETTES","cat":"TOBACCO","scat":"CIGARETTES","usage":"Y","dose":"19.0","dosu":"CIGARETTES/DAY","freq":"QD","start_dtc":"2002-03-28","end_dtc":null}],"total":3},"section_15_subject_status":{"items":[{"seq":"1","testcd":"SURVSTAT","test":"Survival Status","orres":"ALIVE","stresc":"ALIVE","dtc":"2024-04-25","visit":"DAY 14","epoch":"FOLLOW-UP"},{"seq":"2","testcd":"SURVSTAT","test":"Survival Status","orres":"ALIVE","stresc":"ALIVE","dtc":"2024-05-09","visit":"DAY 28","epoch":"FOLLOW-UP"}],"total":2}}