{"subject_id":"COVID-THER-301-SITE001-0004","study_id":"COVID-THER-301","generated_at":"2026-06-12T05:15:22.411006+00:00","sdtmig_version":"3.4","flags":{"has_serious_ae":false,"has_fatal_ae":false,"has_protocol_deviation":true,"n_protocol_deviations":1,"n_adverse_events":0,"n_concomitant_meds":2,"max_ae_severity":null,"screen_failure":false,"discontinued_early":false,"discontinuation_reason":null,"death":false,"exposure_days":2},"timeline":[{"dtc":"2015-03-20","dy":"-3298","event":"CM START: SALBUTAMOL","domain":"CM","category":"concomitant_med"},{"dtc":"2024-03-17","dy":"-13","event":"INFORMED CONSENT OBTAINED","domain":"DS","category":"milestone"},{"dtc":"2024-03-30","dy":"1","event":"RANDOMIZED","domain":"DS","category":"milestone"},{"dtc":"2024-03-30","dy":"1","event":"FIRST DOSE: PLACEBO","domain":"EX","category":"exposure"},{"dtc":"2024-03-30","dy":"1","event":"DEVIATION: MISSED DOSE","domain":"DV","category":"deviation"},{"dtc":"2024-03-30","dy":"1","event":"VISIT: BASELINE","domain":"SV","category":"visit"},{"dtc":"2024-03-30","dy":"1","event":"CM START: OMEPRAZOLE","domain":"CM","category":"concomitant_med"},{"dtc":"2024-04-01","dy":"3","event":"VISIT: DAY 3","domain":"SV","category":"visit"},{"dtc":"2024-04-04","dy":"6","event":"VISIT: DAY 5","domain":"SV","category":"visit"},{"dtc":"2024-04-11","dy":"13","event":"VISIT: DAY 14","domain":"SV","category":"visit"},{"dtc":"2024-04-23","dy":"25","event":"VISIT: DAY 28","domain":"SV","category":"visit"},{"dtc":"2024-04-27","dy":"29","event":"COMPLETED","domain":"DS","category":"milestone"}],"section_1_demographics":{"usubjid":"COVID-THER-301-SITE001-0004","subjid":"0004","siteid":"SITE001","age":"36","ageu":"YEARS","sex":"M","race":"OTHER","ethnicity":"NOT HISPANIC OR LATINO","country":"USA","arm":"Placebo","armcd":"PBO","actarm":"Placebo","actarmcd":"PBO","randomization_date":null,"informed_consent_date":"2024-03-17","reference_start_date":"2024-03-30","reference_end_date":"2024-04-27","screen_failure":false,"death_flag":null,"death_date":null,"subject_characteristics":[{"testcd":"ALCUSE","test":"Alcohol Use","orres":"CURRENT DRINKER","stresc":"CURRENT DRINKER","visit":null,"dtc":"2024-03-17"},{"testcd":"BMI","test":"Body Mass Index","orres":"25.3","stresc":"25.3","visit":null,"dtc":"2024-03-17"},{"testcd":"DURDIS","test":"Duration of Disease","orres":"109 months","stresc":"109","visit":null,"dtc":"2024-03-17"},{"testcd":"TOBUSE","test":"Tobacco Use","orres":"NEVER SMOKED","stresc":"NEVER SMOKED","visit":null,"dtc":"2024-03-17"}]},"section_2_medical_history":{"items":[{"seq":"1","term":"ASTHMA","decod":"ASTHMA","cat":"RESPIRATORY","scat":null,"presp":null,"occur":null,"status":null,"onset_dtc":"2015-03-20","end_dtc":null,"visit":null},{"seq":"2","term":"HYPERLIPIDEMIA","decod":"HYPERLIPIDEMIA","cat":"METABOLIC","scat":null,"presp":null,"occur":null,"status":null,"onset_dtc":"2018-03-19","end_dtc":"2019-01-07","visit":null}]},"section_3_inclusion_exclusion":{"criteria":[]},"section_4_trial_participation":{"visits":[{"visitnum":"1.0","visit":"BASELINE","start_dtc":"2024-03-30","end_dtc":"2024-03-30","updes":null},{"visitnum":"2.0","visit":"DAY 3","start_dtc":"2024-04-01","end_dtc":"2024-04-01","updes":null},{"visitnum":"3.0","visit":"DAY 5","start_dtc":"2024-04-04","end_dtc":"2024-04-04","updes":null},{"visitnum":"4.0","visit":"DAY 14","start_dtc":"2024-04-11","end_dtc":"2024-04-11","updes":null},{"visitnum":"5.0","visit":"DAY 28","start_dtc":"2024-04-23","end_dtc":"2024-04-23","updes":null}],"epochs":[{"seq":"1","etcd":"SCRN","element":"Screening","start_dtc":"2024-03-29","end_dtc":"2024-03-30","updes":null},{"seq":"2","etcd":"TRT","element":"Treatment","start_dtc":"2024-03-30","end_dtc":"2024-04-04","updes":null},{"seq":"3","etcd":"FU","element":"Follow-up","start_dtc":"2024-04-04","end_dtc":"2024-04-26","updes":null}],"visit_count":5},"section_5_concomitant_medications":{"medications":[{"seq":"1","trt":"SALBUTAMOL","decod":"SALBUTAMOL","cat":"PRIOR","dose":"100","doseu":null,"dosef":"PRN","route":"RESPIRATORY (INHALATION)","indication":"ASTHMA","start_dtc":"2015-03-20","end_dtc":"2024-04-27","ongoing":null,"visit":null},{"seq":"2","trt":"OMEPRAZOLE","decod":"OMEPRAZOLE","cat":"CONCOMITANT","dose":null,"doseu":null,"dosef":"QD","route":"ORAL","indication":null,"start_dtc":"2024-03-30","end_dtc":"2024-04-27","ongoing":null,"visit":null}]},"section_6_exposure":{"exposure_as_administered":[{"seq":"1","trt":"PLACEBO","dose":"0.0","doseu":null,"dosef":"BID","route":"ORAL","lot":null,"start_dtc":"2024-03-30","end_dtc":"2024-04-01","start_dy":"1","end_dy":"3","epoch":"TREATMENT","visit":null}],"exposure_as_collected":[{"seq":"1","trt":"PLACEBO","dose":null,"doseu":null,"dosef":"BID","route":"ORAL","start_dtc":"2024-03-30","end_dtc":"2024-03-30","visit":"BASELINE"},{"seq":"2","trt":"PLACEBO","dose":null,"doseu":null,"dosef":"BID","route":"ORAL","start_dtc":"2024-03-30","end_dtc":"2024-03-30","visit":"BASELINE"},{"seq":"3","trt":"PLACEBO","dose":null,"doseu":null,"dosef":"BID","route":"ORAL","start_dtc":"2024-03-31","end_dtc":"2024-03-31","visit":"BASELINE"},{"seq":"4","trt":"PLACEBO","dose":null,"doseu":null,"dosef":"BID","route":"ORAL","start_dtc":"2024-03-31","end_dtc":"2024-03-31","visit":"BASELINE"},{"seq":"5","trt":"PLACEBO","dose":null,"doseu":null,"dosef":"BID","route":"ORAL","start_dtc":"2024-04-01","end_dtc":"2024-04-01","visit":"BASELINE"},{"seq":"6","trt":"PLACEBO","dose":null,"doseu":null,"dosef":"BID","route":"ORAL","start_dtc":"2024-04-01","end_dtc":"2024-04-01","visit":"BASELINE"}]},"section_7_adverse_events":{"summary":{"total_aes":0,"serious_aes":0,"fatal_aes":0,"by_severity":{},"by_soc":{}},"events":[]},"section_8_laboratory_results":{"summary":{"total_records":35,"abnormal_count":0,"abnormal_pct":0.0},"shift_summary":[{"testcd":"ALT","baseline_value":16.93,"baseline_nrind":"NORMAL","worst_post_baseline_value":19.2,"worst_post_baseline_nrind":"NORMAL","worst_visit":"DAY 3"},{"testcd":"AST","baseline_value":26.41,"baseline_nrind":"NORMAL","worst_post_baseline_value":27.43,"worst_post_baseline_nrind":"NORMAL","worst_visit":"DAY 14"},{"testcd":"CREAT","baseline_value":65.5,"baseline_nrind":"NORMAL","worst_post_baseline_value":64.27,"worst_post_baseline_nrind":"NORMAL","worst_visit":"DAY 5"},{"testcd":"GLUC","baseline_value":4.17,"baseline_nrind":"NORMAL","worst_post_baseline_value":4.33,"worst_post_baseline_nrind":"NORMAL","worst_visit":"DAY 14"},{"testcd":"HGB","baseline_value":149.0,"baseline_nrind":"NORMAL","worst_post_baseline_value":147.81,"worst_post_baseline_nrind":"NORMAL","worst_visit":"DAY 14"},{"testcd":"PLAT","baseline_value":307.59,"baseline_nrind":"NORMAL","worst_post_baseline_value":312.29,"worst_post_baseline_nrind":"NORMAL","worst_visit":"DAY 3"},{"testcd":"WBC","baseline_value":7.41,"baseline_nrind":"NORMAL","worst_post_baseline_value":6.51,"worst_post_baseline_nrind":"NORMAL","worst_visit":"DAY 14"}],"results":[{"seq":"1","testcd":"ALT","test":"Alanine Aminotransferase","cat":"CHEMISTRY","orres":"16.93","orresu":"U/L","stresc":"16.93","stresn":"16.93","stresu":"U/L","stnrlo":"7","stnrhi":"56","nrind":"NORMAL","fast":null,"dtc":"2024-03-30","dy":"1","visit":"BASELINE","visitnum":"1.0","epoch":"TREATMENT","spec":null,"method":null},{"seq":"2","testcd":"AST","test":"Aspartate Aminotransferase","cat":"CHEMISTRY","orres":"26.41","orresu":"U/L","stresc":"26.41","stresn":"26.41","stresu":"U/L","stnrlo":"10","stnrhi":"40","nrind":"NORMAL","fast":null,"dtc":"2024-03-30","dy":"1","visit":"BASELINE","visitnum":"1.0","epoch":"TREATMENT","spec":null,"method":null},{"seq":"3","testcd":"CREAT","test":"Creatinine","cat":"CHEMISTRY","orres":"65.5","orresu":"umol/L","stresc":"65.5","stresn":"65.5","stresu":"umol/L","stnrlo":"62","stnrhi":"106","nrind":"NORMAL","fast":null,"dtc":"2024-03-30","dy":"1","visit":"BASELINE","visitnum":"1.0","epoch":"TREATMENT","spec":null,"method":null},{"seq":"4","testcd":"GLUC","test":"Glucose","cat":"CHEMISTRY","orres":"4.17","orresu":"mmol/L","stresc":"4.17","stresn":"4.17","stresu":"mmol/L","stnrlo":"3.9","stnrhi":"5.6","nrind":"NORMAL","fast":null,"dtc":"2024-03-30","dy":"1","visit":"BASELINE","visitnum":"1.0","epoch":"TREATMENT","spec":null,"method":null},{"seq":"5","testcd":"HGB","test":"Hemoglobin","cat":"HEMATOLOGY","orres":null,"orresu":null,"stresc":null,"stresn":null,"stresu":null,"stnrlo":null,"stnrhi":null,"nrind":null,"fast":null,"dtc":"2024-03-30","dy":"1","visit":"BASELINE","visitnum":"1.0","epoch":"TREATMENT","spec":null,"method":null},{"seq":"6","testcd":"PLAT","test":"Platelets","cat":"HEMATOLOGY","orres":"307.59","orresu":"10^9/L","stresc":"307.59","stresn":"307.59","stresu":"10^9/L","stnrlo":"150","stnrhi":"400","nrind":"NORMAL","fast":null,"dtc":"2024-03-30","dy":"1","visit":"BASELINE","visitnum":"1.0","epoch":"TREATMENT","spec":null,"method":null},{"seq":"7","testcd":"WBC","test":"Leukocytes","cat":"HEMATOLOGY","orres":"7.41","orresu":"10^9/L","stresc":"7.41","stresn":"7.41","stresu":"10^9/L","stnrlo":"4.0","stnrhi":"11.0","nrind":"NORMAL","fast":null,"dtc":"2024-03-30","dy":"1","visit":"BASELINE","visitnum":"1.0","epoch":"TREATMENT","spec":null,"method":null},{"seq":"8","testcd":"ALT","test":"Alanine Aminotransferase","cat":"CHEMISTRY","orres":"19.2","orresu":"U/L","stresc":"19.2","stresn":"19.2","stresu":"U/L","stnrlo":"7","stnrhi":"56","nrind":"NORMAL","fast":null,"dtc":"2024-04-01","dy":"3","visit":"DAY 3","visitnum":"2.0","epoch":"TREATMENT","spec":null,"method":null},{"seq":"9","testcd":"AST","test":"Aspartate Aminotransferase","cat":"CHEMISTRY","orres":"26.49","orresu":"U/L","stresc":"26.49","stresn":"26.49","stresu":"U/L","stnrlo":"10","stnrhi":"40","nrind":"NORMAL","fast":null,"dtc":"2024-04-01","dy":"3","visit":"DAY 3","visitnum":"2.0","epoch":"TREATMENT","spec":null,"method":null},{"seq":"10","testcd":"CREAT","test":"Creatinine","cat":"CHEMISTRY","orres":"63.12","orresu":"umol/L","stresc":"63.12","stresn":"63.12","stresu":"umol/L","stnrlo":"62","stnrhi":"106","nrind":"NORMAL","fast":null,"dtc":"2024-04-01","dy":"3","visit":"DAY 3","visitnum":"2.0","epoch":"TREATMENT","spec":null,"method":null},{"seq":"11","testcd":"GLUC","test":"Glucose","cat":"CHEMISTRY","orres":"4.29","orresu":"mmol/L","stresc":"4.29","stresn":"4.29","stresu":"mmol/L","stnrlo":"3.9","stnrhi":"5.6","nrind":"NORMAL","fast":null,"dtc":"2024-04-01","dy":"3","visit":"DAY 3","visitnum":"2.0","epoch":"TREATMENT","spec":null,"method":null},{"seq":"12","testcd":"HGB","test":"Hemoglobin","cat":"HEMATOLOGY","orres":"149.0","orresu":"g/L","stresc":"149.0","stresn":"149.0","stresu":"g/L","stnrlo":"130","stnrhi":"175","nrind":"NORMAL","fast":null,"dtc":"2024-04-01","dy":"3","visit":"DAY 3","visitnum":"2.0","epoch":"TREATMENT","spec":null,"method":null},{"seq":"13","testcd":"PLAT","test":"Platelets","cat":"HEMATOLOGY","orres":"312.29","orresu":"10^9/L","stresc":"312.29","stresn":"312.29","stresu":"10^9/L","stnrlo":"150","stnrhi":"400","nrind":"NORMAL","fast":null,"dtc":"2024-04-01","dy":"3","visit":"DAY 3","visitnum":"2.0","epoch":"TREATMENT","spec":null,"method":null},{"seq":"14","testcd":"WBC","test":"Leukocytes","cat":"HEMATOLOGY","orres":"5.98","orresu":"10^9/L","stresc":"5.98","stresn":"5.98","stresu":"10^9/L","stnrlo":"4.0","stnrhi":"11.0","nrind":"NORMAL","fast":null,"dtc":"2024-04-01","dy":"3","visit":"DAY 3","visitnum":"2.0","epoch":"TREATMENT","spec":null,"method":null},{"seq":"15","testcd":"ALT","test":"Alanine Aminotransferase","cat":"CHEMISTRY","orres":"17.31","orresu":"U/L","stresc":"17.31","stresn":"17.31","stresu":"U/L","stnrlo":"7","stnrhi":"56","nrind":"NORMAL","fast":null,"dtc":"2024-04-04","dy":"6","visit":"DAY 5","visitnum":"3.0","epoch":"TREATMENT","spec":null,"method":null},{"seq":"16","testcd":"AST","test":"Aspartate Aminotransferase","cat":"CHEMISTRY","orres":"26.53","orresu":"U/L","stresc":"26.53","stresn":"26.53","stresu":"U/L","stnrlo":"10","stnrhi":"40","nrind":"NORMAL","fast":null,"dtc":"2024-04-04","dy":"6","visit":"DAY 5","visitnum":"3.0","epoch":"TREATMENT","spec":null,"method":null},{"seq":"17","testcd":"CREAT","test":"Creatinine","cat":"CHEMISTRY","orres":"64.27","orresu":"umol/L","stresc":"64.27","stresn":"64.27","stresu":"umol/L","stnrlo":"62","stnrhi":"106","nrind":"NORMAL","fast":null,"dtc":"2024-04-04","dy":"6","visit":"DAY 5","visitnum":"3.0","epoch":"TREATMENT","spec":null,"method":null},{"seq":"18","testcd":"GLUC","test":"Glucose","cat":"CHEMISTRY","orres":"4.17","orresu":"mmol/L","stresc":"4.17","stresn":"4.17","stresu":"mmol/L","stnrlo":"3.9","stnrhi":"5.6","nrind":"NORMAL","fast":null,"dtc":"2024-04-04","dy":"6","visit":"DAY 5","visitnum":"3.0","epoch":"TREATMENT","spec":null,"method":null},{"seq":"19","testcd":"HGB","test":"Hemoglobin","cat":"HEMATOLOGY","orres":"148.37","orresu":"g/L","stresc":"148.37","stresn":"148.37","stresu":"g/L","stnrlo":"130","stnrhi":"175","nrind":"NORMAL","fast":null,"dtc":"2024-04-04","dy":"6","visit":"DAY 5","visitnum":"3.0","epoch":"TREATMENT","spec":null,"method":null},{"seq":"20","testcd":"PLAT","test":"Platelets","cat":"HEMATOLOGY","orres":"296.32","orresu":"10^9/L","stresc":"296.32","stresn":"296.32","stresu":"10^9/L","stnrlo":"150","stnrhi":"400","nrind":"NORMAL","fast":null,"dtc":"2024-04-04","dy":"6","visit":"DAY 5","visitnum":"3.0","epoch":"TREATMENT","spec":null,"method":null},{"seq":"21","testcd":"WBC","test":"Leukocytes","cat":"HEMATOLOGY","orres":"5.53","orresu":"10^9/L","stresc":"5.53","stresn":"5.53","stresu":"10^9/L","stnrlo":"4.0","stnrhi":"11.0","nrind":"NORMAL","fast":null,"dtc":"2024-04-04","dy":"6","visit":"DAY 5","visitnum":"3.0","epoch":"TREATMENT","spec":null,"method":null},{"seq":"22","testcd":"ALT","test":"Alanine Aminotransferase","cat":"CHEMISTRY","orres":"17.39","orresu":"U/L","stresc":"17.39","stresn":"17.39","stresu":"U/L","stnrlo":"7","stnrhi":"56","nrind":"NORMAL","fast":null,"dtc":"2024-04-11","dy":"13","visit":"DAY 14","visitnum":"4.0","epoch":"FOLLOW-UP","spec":null,"method":null},{"seq":"23","testcd":"AST","test":"Aspartate Aminotransferase","cat":"CHEMISTRY","orres":"27.43","orresu":"U/L","stresc":"27.43","stresn":"27.43","stresu":"U/L","stnrlo":"10","stnrhi":"40","nrind":"NORMAL","fast":null,"dtc":"2024-04-11","dy":"13","visit":"DAY 14","visitnum":"4.0","epoch":"FOLLOW-UP","spec":null,"method":null},{"seq":"24","testcd":"CREAT","test":"Creatinine","cat":"CHEMISTRY","orres":"63.42","orresu":"umol/L","stresc":"63.42","stresn":"63.42","stresu":"umol/L","stnrlo":"62","stnrhi":"106","nrind":"NORMAL","fast":null,"dtc":"2024-04-11","dy":"13","visit":"DAY 14","visitnum":"4.0","epoch":"FOLLOW-UP","spec":null,"method":null},{"seq":"25","testcd":"GLUC","test":"Glucose","cat":"CHEMISTRY","orres":"4.33","orresu":"mmol/L","stresc":"4.33","stresn":"4.33","stresu":"mmol/L","stnrlo":"3.9","stnrhi":"5.6","nrind":"NORMAL","fast":null,"dtc":"2024-04-11","dy":"13","visit":"DAY 14","visitnum":"4.0","epoch":"FOLLOW-UP","spec":null,"method":null},{"seq":"26","testcd":"HGB","test":"Hemoglobin","cat":"HEMATOLOGY","orres":"147.81","orresu":"g/L","stresc":"147.81","stresn":"147.81","stresu":"g/L","stnrlo":"130","stnrhi":"175","nrind":"NORMAL","fast":null,"dtc":"2024-04-11","dy":"13","visit":"DAY 14","visitnum":"4.0","epoch":"FOLLOW-UP","spec":null,"method":null},{"seq":"27","testcd":"PLAT","test":"Platelets","cat":"HEMATOLOGY","orres":null,"orresu":null,"stresc":null,"stresn":null,"stresu":null,"stnrlo":null,"stnrhi":null,"nrind":null,"fast":null,"dtc":"2024-04-11","dy":"13","visit":"DAY 14","visitnum":"4.0","epoch":"FOLLOW-UP","spec":null,"method":null},{"seq":"28","testcd":"WBC","test":"Leukocytes","cat":"HEMATOLOGY","orres":"6.51","orresu":"10^9/L","stresc":"6.51","stresn":"6.51","stresu":"10^9/L","stnrlo":"4.0","stnrhi":"11.0","nrind":"NORMAL","fast":null,"dtc":"2024-04-11","dy":"13","visit":"DAY 14","visitnum":"4.0","epoch":"FOLLOW-UP","spec":null,"method":null},{"seq":"29","testcd":"ALT","test":"Alanine Aminotransferase","cat":"CHEMISTRY","orres":"16.7","orresu":"U/L","stresc":"16.7","stresn":"16.7","stresu":"U/L","stnrlo":"7","stnrhi":"56","nrind":"NORMAL","fast":null,"dtc":"2024-04-23","dy":"25","visit":"DAY 28","visitnum":"5.0","epoch":"FOLLOW-UP","spec":null,"method":null},{"seq":"30","testcd":"AST","test":"Aspartate Aminotransferase","cat":"CHEMISTRY","orres":"26.56","orresu":"U/L","stresc":"26.56","stresn":"26.56","stresu":"U/L","stnrlo":"10","stnrhi":"40","nrind":"NORMAL","fast":null,"dtc":"2024-04-23","dy":"25","visit":"DAY 28","visitnum":"5.0","epoch":"FOLLOW-UP","spec":null,"method":null},{"seq":"31","testcd":"CREAT","test":"Creatinine","cat":"CHEMISTRY","orres":"64.03","orresu":"umol/L","stresc":"64.03","stresn":"64.03","stresu":"umol/L","stnrlo":"62","stnrhi":"106","nrind":"NORMAL","fast":null,"dtc":"2024-04-23","dy":"25","visit":"DAY 28","visitnum":"5.0","epoch":"FOLLOW-UP","spec":null,"method":null},{"seq":"32","testcd":"GLUC","test":"Glucose","cat":"CHEMISTRY","orres":"4.17","orresu":"mmol/L","stresc":"4.17","stresn":"4.17","stresu":"mmol/L","stnrlo":"3.9","stnrhi":"5.6","nrind":"NORMAL","fast":null,"dtc":"2024-04-23","dy":"25","visit":"DAY 28","visitnum":"5.0","epoch":"FOLLOW-UP","spec":null,"method":null},{"seq":"33","testcd":"HGB","test":"Hemoglobin","cat":"HEMATOLOGY","orres":"149.01","orresu":"g/L","stresc":"149.01","stresn":"149.01","stresu":"g/L","stnrlo":"130","stnrhi":"175","nrind":"NORMAL","fast":null,"dtc":"2024-04-23","dy":"25","visit":"DAY 28","visitnum":"5.0","epoch":"FOLLOW-UP","spec":null,"method":null},{"seq":"34","testcd":"PLAT","test":"Platelets","cat":"HEMATOLOGY","orres":"311.23","orresu":"10^9/L","stresc":"311.23","stresn":"311.23","stresu":"10^9/L","stnrlo":"150","stnrhi":"400","nrind":"NORMAL","fast":null,"dtc":"2024-04-23","dy":"25","visit":"DAY 28","visitnum":"5.0","epoch":"FOLLOW-UP","spec":null,"method":null},{"seq":"35","testcd":"WBC","test":"Leukocytes","cat":"HEMATOLOGY","orres":"6.42","orresu":"10^9/L","stresc":"6.42","stresn":"6.42","stresu":"10^9/L","stnrlo":"4.0","stnrhi":"11.0","nrind":"NORMAL","fast":null,"dtc":"2024-04-23","dy":"25","visit":"DAY 28","visitnum":"5.0","epoch":"FOLLOW-UP","spec":null,"method":null}]},"section_9_vital_signs":{"summary":{"total_records":40},"trends":{"BMI":[{"visit":"BASELINE","visitnum":"1.0","dtc":"2024-03-30","value":"25.3","unit":"kg/m2"},{"visit":"DAY 3","visitnum":"2.0","dtc":"2024-04-01","value":"25.1","unit":"kg/m2"},{"visit":"DAY 5","visitnum":"3.0","dtc":"2024-04-04","value":"26.6","unit":"kg/m2"},{"visit":"DAY 14","visitnum":"4.0","dtc":"2024-04-11","value":"26.2","unit":"kg/m2"},{"visit":"DAY 28","visitnum":"5.0","dtc":"2024-04-23","value":"26.1","unit":"kg/m2"}],"DIABP":[{"visit":"BASELINE","visitnum":"1.0","dtc":"2024-03-30","value":"66.4","unit":"mmHg"},{"visit":"DAY 3","visitnum":"2.0","dtc":"2024-04-01","value":"68.6","unit":"mmHg"},{"visit":"DAY 5","visitnum":"3.0","dtc":"2024-04-04","value":"66.9","unit":"mmHg"},{"visit":"DAY 14","visitnum":"4.0","dtc":"2024-04-11","value":"68.9","unit":"mmHg"},{"visit":"DAY 28","visitnum":"5.0","dtc":"2024-04-23","value":"67.2","unit":"mmHg"}],"HEIGHT":[{"visit":"BASELINE","visitnum":"1.0","dtc":"2024-03-30","value":"175.0","unit":"cm"},{"visit":"DAY 3","visitnum":"2.0","dtc":"2024-04-01","value":"174.4","unit":"cm"},{"visit":"DAY 5","visitnum":"3.0","dtc":"2024-04-04","value":"174.6","unit":"cm"},{"visit":"DAY 14","visitnum":"4.0","dtc":"2024-04-11","value":"174.5","unit":"cm"},{"visit":"DAY 28","visitnum":"5.0","dtc":"2024-04-23","value":"174.9","unit":"cm"}],"PULSE":[{"visit":"BASELINE","visitnum":"1.0","dtc":"2024-03-30","value":"77.9","unit":"beats/min"},{"visit":"DAY 3","visitnum":"2.0","dtc":"2024-04-01","value":"80.0","unit":"beats/min"},{"visit":"DAY 5","visitnum":"3.0","dtc":"2024-04-04","value":"77.7","unit":"beats/min"},{"visit":"DAY 14","visitnum":"4.0","dtc":"2024-04-11","value":"78.8","unit":"beats/min"},{"visit":"DAY 28","visitnum":"5.0","dtc":"2024-04-23","value":"79.9","unit":"beats/min"}],"RESP":[{"visit":"BASELINE","visitnum":"1.0","dtc":"2024-03-30","value":"16.8","unit":"breaths/min"},{"visit":"DAY 3","visitnum":"2.0","dtc":"2024-04-01","value":"16.2","unit":"breaths/min"},{"visit":"DAY 5","visitnum":"3.0","dtc":"2024-04-04","value":"16.0","unit":"breaths/min"},{"visit":"DAY 14","visitnum":"4.0","dtc":"2024-04-11","value":"15.5","unit":"breaths/min"},{"visit":"DAY 28","visitnum":"5.0","dtc":"2024-04-23","value":"15.9","unit":"breaths/min"}],"SYSBP":[{"visit":"BASELINE","visitnum":"1.0","dtc":"2024-03-30","value":"101.8","unit":"mmHg"},{"visit":"DAY 3","visitnum":"2.0","dtc":"2024-04-01","value":"102.4","unit":"mmHg"},{"visit":"DAY 5","visitnum":"3.0","dtc":"2024-04-04","value":"99.1","unit":"mmHg"},{"visit":"DAY 14","visitnum":"4.0","dtc":"2024-04-11","value":"100.0","unit":"mmHg"}],"TEMP":[{"visit":"BASELINE","visitnum":"1.0","dtc":"2024-03-30","value":"37.3","unit":"C"},{"visit":"DAY 3","visitnum":"2.0","dtc":"2024-04-01","value":"36.9","unit":"C"},{"visit":"DAY 5","visitnum":"3.0","dtc":"2024-04-04","value":"37.1","unit":"C"},{"visit":"DAY 14","visitnum":"4.0","dtc":"2024-04-11","value":"36.9","unit":"C"},{"visit":"DAY 28","visitnum":"5.0","dtc":"2024-04-23","value":"36.9","unit":"C"}],"WEIGHT":[{"visit":"BASELINE","visitnum":"1.0","dtc":"2024-03-30","value":"77.6","unit":"kg"},{"visit":"DAY 3","visitnum":"2.0","dtc":"2024-04-01","value":"76.3","unit":"kg"},{"visit":"DAY 5","visitnum":"3.0","dtc":"2024-04-04","value":"81.2","unit":"kg"},{"visit":"DAY 14","visitnum":"4.0","dtc":"2024-04-11","value":"79.9","unit":"kg"},{"visit":"DAY 28","visitnum":"5.0","dtc":"2024-04-23","value":"79.9","unit":"kg"}]},"results":[{"seq":"1","testcd":"BMI","test":"BMI","cat":null,"orres":"25.3","orresu":"kg/m2","stresc":"25.3","stresn":"25.3","stresu":"kg/m2","stnrlo":null,"stnrhi":null,"nrind":null,"pos":null,"loc":null,"dtc":"2024-03-30","dy":"1","visit":"BASELINE","visitnum":"1.0","epoch":"TREATMENT"},{"seq":"2","testcd":"DIABP","test":"Diastolic Blood Pressure","cat":null,"orres":"66.4","orresu":"mmHg","stresc":"66.4","stresn":"66.4","stresu":"mmHg","stnrlo":null,"stnrhi":null,"nrind":null,"pos":null,"loc":null,"dtc":"2024-03-30","dy":"1","visit":"BASELINE","visitnum":"1.0","epoch":"TREATMENT"},{"seq":"3","testcd":"HEIGHT","test":"Height","cat":null,"orres":"175.0","orresu":"cm","stresc":"175.0","stresn":"175.0","stresu":"cm","stnrlo":null,"stnrhi":null,"nrind":null,"pos":null,"loc":null,"dtc":"2024-03-30","dy":"1","visit":"BASELINE","visitnum":"1.0","epoch":"TREATMENT"},{"seq":"4","testcd":"PULSE","test":"Pulse Rate","cat":null,"orres":"77.9","orresu":"beats/min","stresc":"77.9","stresn":"77.9","stresu":"beats/min","stnrlo":null,"stnrhi":null,"nrind":null,"pos":null,"loc":null,"dtc":"2024-03-30","dy":"1","visit":"BASELINE","visitnum":"1.0","epoch":"TREATMENT"},{"seq":"5","testcd":"RESP","test":"Respiratory Rate","cat":null,"orres":"16.8","orresu":"breaths/min","stresc":"16.8","stresn":"16.8","stresu":"breaths/min","stnrlo":null,"stnrhi":null,"nrind":null,"pos":null,"loc":null,"dtc":"2024-03-30","dy":"1","visit":"BASELINE","visitnum":"1.0","epoch":"TREATMENT"},{"seq":"6","testcd":"SYSBP","test":"Systolic Blood Pressure","cat":null,"orres":"101.8","orresu":"mmHg","stresc":"101.8","stresn":"101.8","stresu":"mmHg","stnrlo":null,"stnrhi":null,"nrind":null,"pos":null,"loc":null,"dtc":"2024-03-30","dy":"1","visit":"BASELINE","visitnum":"1.0","epoch":"TREATMENT"},{"seq":"7","testcd":"TEMP","test":"Temperature","cat":null,"orres":"37.3","orresu":"C","stresc":"37.3","stresn":"37.3","stresu":"C","stnrlo":null,"stnrhi":null,"nrind":null,"pos":null,"loc":null,"dtc":"2024-03-30","dy":"1","visit":"BASELINE","visitnum":"1.0","epoch":"TREATMENT"},{"seq":"8","testcd":"WEIGHT","test":"Weight","cat":null,"orres":"77.6","orresu":"kg","stresc":"77.6","stresn":"77.6","stresu":"kg","stnrlo":null,"stnrhi":null,"nrind":null,"pos":null,"loc":null,"dtc":"2024-03-30","dy":"1","visit":"BASELINE","visitnum":"1.0","epoch":"TREATMENT"},{"seq":"9","testcd":"BMI","test":"BMI","cat":null,"orres":"25.1","orresu":"kg/m2","stresc":"25.1","stresn":"25.1","stresu":"kg/m2","stnrlo":null,"stnrhi":null,"nrind":null,"pos":null,"loc":null,"dtc":"2024-04-01","dy":"3","visit":"DAY 3","visitnum":"2.0","epoch":"TREATMENT"},{"seq":"10","testcd":"DIABP","test":"Diastolic Blood Pressure","cat":null,"orres":"68.6","orresu":"mmHg","stresc":"68.6","stresn":"68.6","stresu":"mmHg","stnrlo":null,"stnrhi":null,"nrind":null,"pos":null,"loc":null,"dtc":"2024-04-01","dy":"3","visit":"DAY 3","visitnum":"2.0","epoch":"TREATMENT"},{"seq":"11","testcd":"HEIGHT","test":"Height","cat":null,"orres":"174.4","orresu":"cm","stresc":"174.4","stresn":"174.4","stresu":"cm","stnrlo":null,"stnrhi":null,"nrind":null,"pos":null,"loc":null,"dtc":"2024-04-01","dy":"3","visit":"DAY 3","visitnum":"2.0","epoch":"TREATMENT"},{"seq":"12","testcd":"PULSE","test":"Pulse Rate","cat":null,"orres":"80.0","orresu":"beats/min","stresc":"80.0","stresn":"80.0","stresu":"beats/min","stnrlo":null,"stnrhi":null,"nrind":null,"pos":null,"loc":null,"dtc":"2024-04-01","dy":"3","visit":"DAY 3","visitnum":"2.0","epoch":"TREATMENT"},{"seq":"13","testcd":"RESP","test":"Respiratory Rate","cat":null,"orres":"16.2","orresu":"breaths/min","stresc":"16.2","stresn":"16.2","stresu":"breaths/min","stnrlo":null,"stnrhi":null,"nrind":null,"pos":null,"loc":null,"dtc":"2024-04-01","dy":"3","visit":"DAY 3","visitnum":"2.0","epoch":"TREATMENT"},{"seq":"14","testcd":"SYSBP","test":"Systolic Blood Pressure","cat":null,"orres":"102.4","orresu":"mmHg","stresc":"102.4","stresn":"102.4","stresu":"mmHg","stnrlo":null,"stnrhi":null,"nrind":null,"pos":null,"loc":null,"dtc":"2024-04-01","dy":"3","visit":"DAY 3","visitnum":"2.0","epoch":"TREATMENT"},{"seq":"15","testcd":"TEMP","test":"Temperature","cat":null,"orres":"36.9","orresu":"C","stresc":"36.9","stresn":"36.9","stresu":"C","stnrlo":null,"stnrhi":null,"nrind":null,"pos":null,"loc":null,"dtc":"2024-04-01","dy":"3","visit":"DAY 3","visitnum":"2.0","epoch":"TREATMENT"},{"seq":"16","testcd":"WEIGHT","test":"Weight","cat":null,"orres":"76.3","orresu":"kg","stresc":"76.3","stresn":"76.3","stresu":"kg","stnrlo":null,"stnrhi":null,"nrind":null,"pos":null,"loc":null,"dtc":"2024-04-01","dy":"3","visit":"DAY 3","visitnum":"2.0","epoch":"TREATMENT"},{"seq":"17","testcd":"BMI","test":"BMI","cat":null,"orres":"26.6","orresu":"kg/m2","stresc":"26.6","stresn":"26.6","stresu":"kg/m2","stnrlo":null,"stnrhi":null,"nrind":null,"pos":null,"loc":null,"dtc":"2024-04-04","dy":"6","visit":"DAY 5","visitnum":"3.0","epoch":"TREATMENT"},{"seq":"18","testcd":"DIABP","test":"Diastolic Blood Pressure","cat":null,"orres":"66.9","orresu":"mmHg","stresc":"66.9","stresn":"66.9","stresu":"mmHg","stnrlo":null,"stnrhi":null,"nrind":null,"pos":null,"loc":null,"dtc":"2024-04-04","dy":"6","visit":"DAY 5","visitnum":"3.0","epoch":"TREATMENT"},{"seq":"19","testcd":"HEIGHT","test":"Height","cat":null,"orres":"174.6","orresu":"cm","stresc":"174.6","stresn":"174.6","stresu":"cm","stnrlo":null,"stnrhi":null,"nrind":null,"pos":null,"loc":null,"dtc":"2024-04-04","dy":"6","visit":"DAY 5","visitnum":"3.0","epoch":"TREATMENT"},{"seq":"20","testcd":"PULSE","test":"Pulse Rate","cat":null,"orres":"77.7","orresu":"beats/min","stresc":"77.7","stresn":"77.7","stresu":"beats/min","stnrlo":null,"stnrhi":null,"nrind":null,"pos":null,"loc":null,"dtc":"2024-04-04","dy":"6","visit":"DAY 5","visitnum":"3.0","epoch":"TREATMENT"},{"seq":"21","testcd":"RESP","test":"Respiratory Rate","cat":null,"orres":"16.0","orresu":"breaths/min","stresc":"16.0","stresn":"16.0","stresu":"breaths/min","stnrlo":null,"stnrhi":null,"nrind":null,"pos":null,"loc":null,"dtc":"2024-04-04","dy":"6","visit":"DAY 5","visitnum":"3.0","epoch":"TREATMENT"},{"seq":"22","testcd":"SYSBP","test":"Systolic Blood Pressure","cat":null,"orres":"99.1","orresu":"mmHg","stresc":"99.1","stresn":"99.1","stresu":"mmHg","stnrlo":null,"stnrhi":null,"nrind":null,"pos":null,"loc":null,"dtc":"2024-04-04","dy":"6","visit":"DAY 5","visitnum":"3.0","epoch":"TREATMENT"},{"seq":"23","testcd":"TEMP","test":"Temperature","cat":null,"orres":"37.1","orresu":"C","stresc":"37.1","stresn":"37.1","stresu":"C","stnrlo":null,"stnrhi":null,"nrind":null,"pos":null,"loc":null,"dtc":"2024-04-04","dy":"6","visit":"DAY 5","visitnum":"3.0","epoch":"TREATMENT"},{"seq":"24","testcd":"WEIGHT","test":"Weight","cat":null,"orres":"81.2","orresu":"kg","stresc":"81.2","stresn":"81.2","stresu":"kg","stnrlo":null,"stnrhi":null,"nrind":null,"pos":null,"loc":null,"dtc":"2024-04-04","dy":"6","visit":"DAY 5","visitnum":"3.0","epoch":"TREATMENT"},{"seq":"25","testcd":"BMI","test":"BMI","cat":null,"orres":"26.2","orresu":"kg/m2","stresc":"26.2","stresn":"26.2","stresu":"kg/m2","stnrlo":null,"stnrhi":null,"nrind":null,"pos":null,"loc":null,"dtc":"2024-04-11","dy":"13","visit":"DAY 14","visitnum":"4.0","epoch":"FOLLOW-UP"},{"seq":"26","testcd":"DIABP","test":"Diastolic Blood Pressure","cat":null,"orres":"68.9","orresu":"mmHg","stresc":"68.9","stresn":"68.9","stresu":"mmHg","stnrlo":null,"stnrhi":null,"nrind":null,"pos":null,"loc":null,"dtc":"2024-04-11","dy":"13","visit":"DAY 14","visitnum":"4.0","epoch":"FOLLOW-UP"},{"seq":"27","testcd":"HEIGHT","test":"Height","cat":null,"orres":"174.5","orresu":"cm","stresc":"174.5","stresn":"174.5","stresu":"cm","stnrlo":null,"stnrhi":null,"nrind":null,"pos":null,"loc":null,"dtc":"2024-04-11","dy":"13","visit":"DAY 14","visitnum":"4.0","epoch":"FOLLOW-UP"},{"seq":"28","testcd":"PULSE","test":"Pulse Rate","cat":null,"orres":"78.8","orresu":"beats/min","stresc":"78.8","stresn":"78.8","stresu":"beats/min","stnrlo":null,"stnrhi":null,"nrind":null,"pos":null,"loc":null,"dtc":"2024-04-11","dy":"13","visit":"DAY 14","visitnum":"4.0","epoch":"FOLLOW-UP"},{"seq":"29","testcd":"RESP","test":"Respiratory Rate","cat":null,"orres":"15.5","orresu":"breaths/min","stresc":"15.5","stresn":"15.5","stresu":"breaths/min","stnrlo":null,"stnrhi":null,"nrind":null,"pos":null,"loc":null,"dtc":"2024-04-11","dy":"13","visit":"DAY 14","visitnum":"4.0","epoch":"FOLLOW-UP"},{"seq":"30","testcd":"SYSBP","test":"Systolic Blood Pressure","cat":null,"orres":"100.0","orresu":"mmHg","stresc":"100.0","stresn":"100.0","stresu":"mmHg","stnrlo":null,"stnrhi":null,"nrind":null,"pos":null,"loc":null,"dtc":"2024-04-11","dy":"13","visit":"DAY 14","visitnum":"4.0","epoch":"FOLLOW-UP"},{"seq":"31","testcd":"TEMP","test":"Temperature","cat":null,"orres":"36.9","orresu":"C","stresc":"36.9","stresn":"36.9","stresu":"C","stnrlo":null,"stnrhi":null,"nrind":null,"pos":null,"loc":null,"dtc":"2024-04-11","dy":"13","visit":"DAY 14","visitnum":"4.0","epoch":"FOLLOW-UP"},{"seq":"32","testcd":"WEIGHT","test":"Weight","cat":null,"orres":"79.9","orresu":"kg","stresc":"79.9","stresn":"79.9","stresu":"kg","stnrlo":null,"stnrhi":null,"nrind":null,"pos":null,"loc":null,"dtc":"2024-04-11","dy":"13","visit":"DAY 14","visitnum":"4.0","epoch":"FOLLOW-UP"},{"seq":"33","testcd":"BMI","test":"BMI","cat":null,"orres":"26.1","orresu":"kg/m2","stresc":"26.1","stresn":"26.1","stresu":"kg/m2","stnrlo":null,"stnrhi":null,"nrind":null,"pos":null,"loc":null,"dtc":"2024-04-23","dy":"25","visit":"DAY 28","visitnum":"5.0","epoch":"FOLLOW-UP"},{"seq":"34","testcd":"DIABP","test":"Diastolic Blood Pressure","cat":null,"orres":"67.2","orresu":"mmHg","stresc":"67.2","stresn":"67.2","stresu":"mmHg","stnrlo":null,"stnrhi":null,"nrind":null,"pos":null,"loc":null,"dtc":"2024-04-23","dy":"25","visit":"DAY 28","visitnum":"5.0","epoch":"FOLLOW-UP"},{"seq":"35","testcd":"HEIGHT","test":"Height","cat":null,"orres":"174.9","orresu":"cm","stresc":"174.9","stresn":"174.9","stresu":"cm","stnrlo":null,"stnrhi":null,"nrind":null,"pos":null,"loc":null,"dtc":"2024-04-23","dy":"25","visit":"DAY 28","visitnum":"5.0","epoch":"FOLLOW-UP"},{"seq":"36","testcd":"PULSE","test":"Pulse Rate","cat":null,"orres":"79.9","orresu":"beats/min","stresc":"79.9","stresn":"79.9","stresu":"beats/min","stnrlo":null,"stnrhi":null,"nrind":null,"pos":null,"loc":null,"dtc":"2024-04-23","dy":"25","visit":"DAY 28","visitnum":"5.0","epoch":"FOLLOW-UP"},{"seq":"37","testcd":"RESP","test":"Respiratory Rate","cat":null,"orres":"15.9","orresu":"breaths/min","stresc":"15.9","stresn":"15.9","stresu":"breaths/min","stnrlo":null,"stnrhi":null,"nrind":null,"pos":null,"loc":null,"dtc":"2024-04-23","dy":"25","visit":"DAY 28","visitnum":"5.0","epoch":"FOLLOW-UP"},{"seq":"38","testcd":"SYSBP","test":"Systolic Blood Pressure","cat":null,"orres":null,"orresu":null,"stresc":null,"stresn":null,"stresu":null,"stnrlo":null,"stnrhi":null,"nrind":null,"pos":null,"loc":null,"dtc":"2024-04-23","dy":"25","visit":"DAY 28","visitnum":"5.0","epoch":"FOLLOW-UP"},{"seq":"39","testcd":"TEMP","test":"Temperature","cat":null,"orres":"36.9","orresu":"C","stresc":"36.9","stresn":"36.9","stresu":"C","stnrlo":null,"stnrhi":null,"nrind":null,"pos":null,"loc":null,"dtc":"2024-04-23","dy":"25","visit":"DAY 28","visitnum":"5.0","epoch":"FOLLOW-UP"},{"seq":"40","testcd":"WEIGHT","test":"Weight","cat":null,"orres":"79.9","orresu":"kg","stresc":"79.9","stresn":"79.9","stresu":"kg","stnrlo":null,"stnrhi":null,"nrind":null,"pos":null,"loc":null,"dtc":"2024-04-23","dy":"25","visit":"DAY 28","visitnum":"5.0","epoch":"FOLLOW-UP"}]},"section_10_questionnaires_and_scores":{"questionnaires":[],"findings_about":[]},"section_11_protocol_deviations":{"deviations":[{"seq":"1","term":"Missed PLACEBO dose on 2024-03-30","decod":"MISSED DOSE","cat":"MINOR","scat":"DOSING","start_dtc":"2024-03-30","end_dtc":null,"visit":null}],"total":1},"section_12_disposition":{"completion_status":"COMPLETED","disposition_records":[{"seq":"1","term":"INFORMED CONSENT OBTAINED","decod":"INFORMED CONSENT OBTAINED","cat":"PROTOCOL MILESTONE","scat":null,"dtc":"2024-03-17","dy":null,"visit":null,"epoch":"SCREENING"},{"seq":"2","term":"RANDOMIZED","decod":"RANDOMIZED","cat":"PROTOCOL MILESTONE","scat":null,"dtc":"2024-03-30","dy":null,"visit":null,"epoch":"TREATMENT"},{"seq":"3","term":"COMPLETED","decod":"COMPLETED","cat":"DISPOSITION EVENT","scat":null,"dtc":"2024-04-27","dy":null,"visit":null,"epoch":"FOLLOW-UP"}],"death":null},"section_13_hospitalizations":{"items":[],"total":0},"section_14_substance_use":{"items":[{"seq":"1","substance":"ALCOHOL","decod":"ALCOHOL","cat":"ALCOHOL","scat":null,"usage":"N","dose":null,"dosu":null,"freq":null,"start_dtc":null,"end_dtc":null},{"seq":"2","substance":"COFFEE","decod":"COFFEE","cat":"CAFFEINE","scat":null,"usage":"N","dose":null,"dosu":null,"freq":null,"start_dtc":null,"end_dtc":null},{"seq":"3","substance":"CIGARETTES","decod":"CIGARETTES","cat":"TOBACCO","scat":"CIGARETTES","usage":"N","dose":null,"dosu":null,"freq":null,"start_dtc":null,"end_dtc":null}],"total":3},"section_15_subject_status":{"items":[{"seq":"1","testcd":"SURVSTAT","test":"Survival Status","orres":"ALIVE","stresc":"ALIVE","dtc":"2024-04-12","visit":"DAY 14","epoch":"FOLLOW-UP"},{"seq":"2","testcd":"SURVSTAT","test":"Survival Status","orres":"ALIVE","stresc":"ALIVE","dtc":"2024-04-26","visit":"DAY 28","epoch":"FOLLOW-UP"}],"total":2}}