{"subject_id":"COVID-THER-301-SITE001-0190","study_id":"COVID-THER-301","generated_at":"2026-06-12T05:15:28.124972+00:00","sdtmig_version":"3.4","flags":{"has_serious_ae":false,"has_fatal_ae":false,"has_protocol_deviation":true,"n_protocol_deviations":1,"n_adverse_events":1,"n_concomitant_meds":1,"max_ae_severity":"MILD","screen_failure":false,"discontinued_early":false,"discontinuation_reason":null,"death":false,"exposure_days":3},"timeline":[{"dtc":"2024-03-15","dy":"-28","event":"INFORMED CONSENT OBTAINED","domain":"DS","category":"milestone"},{"dtc":"2024-04-12","dy":"1","event":"RANDOMIZED","domain":"DS","category":"milestone"},{"dtc":"2024-04-12","dy":"1","event":"FIRST DOSE: ANTIVIRAL","domain":"EX","category":"exposure"},{"dtc":"2024-04-12","dy":"1","event":"VISIT: BASELINE","domain":"SV","category":"visit"},{"dtc":"2024-04-14","dy":"3","event":"AE: Rhinorrhoea (MILD)","domain":"AE","category":"adverse_event"},{"dtc":"2024-04-14","dy":"3","event":"VISIT: DAY 3","domain":"SV","category":"visit"},{"dtc":"2024-04-16","dy":"5","event":"VISIT: DAY 5","domain":"SV","category":"visit"},{"dtc":"2024-04-24","dy":"13","event":"VISIT: DAY 14","domain":"SV","category":"visit"},{"dtc":"2024-04-30","dy":"19","event":"CM START: IBUPROFEN","domain":"CM","category":"concomitant_med"},{"dtc":"2024-05-08","dy":"27","event":"DEVIATION: VISIT OCCURRED OUTSIDE VISIT WINDOW","domain":"DV","category":"deviation"},{"dtc":"2024-05-08","dy":"27","event":"VISIT: DAY 28","domain":"SV","category":"visit"},{"dtc":"2024-05-10","dy":"29","event":"COMPLETED","domain":"DS","category":"milestone"}],"section_1_demographics":{"usubjid":"COVID-THER-301-SITE001-0190","subjid":"0190","siteid":"SITE001","age":"48","ageu":"YEARS","sex":"M","race":"WHITE","ethnicity":"HISPANIC OR LATINO","country":"USA","arm":"Antiviral 200mg BID","armcd":"AV200","actarm":"Antiviral 200mg BID","actarmcd":"AV200","randomization_date":null,"informed_consent_date":"2024-03-15","reference_start_date":"2024-04-12","reference_end_date":"2024-05-10","screen_failure":false,"death_flag":null,"death_date":null,"subject_characteristics":[{"testcd":"ALCUSE","test":"Alcohol Use","orres":"CURRENT DRINKER","stresc":"CURRENT DRINKER","visit":null,"dtc":"2024-03-15"},{"testcd":"BMI","test":"Body Mass Index","orres":"23.6","stresc":"23.6","visit":null,"dtc":"2024-03-15"},{"testcd":"DURDIS","test":"Duration of Disease","orres":"36 months","stresc":"36","visit":null,"dtc":"2024-03-15"},{"testcd":"TOBUSE","test":"Tobacco Use","orres":"NEVER SMOKED","stresc":"NEVER SMOKED","visit":null,"dtc":"2024-03-15"}]},"section_2_medical_history":{"items":[{"seq":"1","term":"ASTHMA","decod":"ASTHMA","cat":"RESPIRATORY","scat":null,"presp":null,"occur":null,"status":null,"onset_dtc":"2022-03","end_dtc":"2023-09-15","visit":null},{"seq":"2","term":"GASTROESOPHAGEAL REFLUX DISEASE","decod":"GASTROESOPHAGEAL REFLUX DISEASE","cat":"GASTROINTESTINAL","scat":null,"presp":null,"occur":null,"status":null,"onset_dtc":"2021-03-16","end_dtc":"2021-10-07","visit":null}]},"section_3_inclusion_exclusion":{"criteria":[]},"section_4_trial_participation":{"visits":[{"visitnum":"1.0","visit":"BASELINE","start_dtc":"2024-04-12","end_dtc":"2024-04-12","updes":null},{"visitnum":"2.0","visit":"DAY 3","start_dtc":"2024-04-14","end_dtc":"2024-04-14","updes":null},{"visitnum":"3.0","visit":"DAY 5","start_dtc":"2024-04-16","end_dtc":"2024-04-16","updes":null},{"visitnum":"4.0","visit":"DAY 14","start_dtc":"2024-04-24","end_dtc":"2024-04-24","updes":null},{"visitnum":"5.0","visit":"DAY 28","start_dtc":"2024-05-08","end_dtc":"2024-05-08","updes":null}],"epochs":[{"seq":"1","etcd":"SCRN","element":"Screening","start_dtc":"2024-04-11","end_dtc":"2024-04-12","updes":null},{"seq":"2","etcd":"TRT","element":"Treatment","start_dtc":"2024-04-12","end_dtc":"2024-04-17","updes":null},{"seq":"3","etcd":"FU","element":"Follow-up","start_dtc":"2024-04-17","end_dtc":"2024-05-09","updes":null}],"visit_count":5},"section_5_concomitant_medications":{"medications":[{"seq":"1","trt":"IBUPROFEN","decod":"IBUPROFEN","cat":"CONCOMITANT","dose":null,"doseu":null,"dosef":"PRN","route":"ORAL","indication":null,"start_dtc":"2024-04-30","end_dtc":"2024-05-10","ongoing":null,"visit":null}]},"section_6_exposure":{"exposure_as_administered":[{"seq":"1","trt":"ANTIVIRAL","dose":"200.0","doseu":null,"dosef":"BID","route":"ORAL","lot":null,"start_dtc":"2024-04-12","end_dtc":"2024-04-15","start_dy":"1","end_dy":"4","epoch":"TREATMENT","visit":null}],"exposure_as_collected":[{"seq":"1","trt":"ANTIVIRAL","dose":"200.0","doseu":null,"dosef":"BID","route":"ORAL","start_dtc":"2024-04-12","end_dtc":"2024-04-12","visit":"BASELINE"},{"seq":"2","trt":"ANTIVIRAL","dose":"200.0","doseu":null,"dosef":"BID","route":"ORAL","start_dtc":"2024-04-12","end_dtc":"2024-04-12","visit":"BASELINE"},{"seq":"3","trt":"ANTIVIRAL","dose":"200.0","doseu":null,"dosef":"BID","route":"ORAL","start_dtc":"2024-04-13","end_dtc":"2024-04-13","visit":"BASELINE"},{"seq":"4","trt":"ANTIVIRAL","dose":"200.0","doseu":null,"dosef":"BID","route":"ORAL","start_dtc":"2024-04-13","end_dtc":"2024-04-13","visit":"BASELINE"},{"seq":"5","trt":"ANTIVIRAL","dose":"200.0","doseu":null,"dosef":"BID","route":"ORAL","start_dtc":"2024-04-14","end_dtc":"2024-04-14","visit":"BASELINE"},{"seq":"6","trt":"ANTIVIRAL","dose":"200.0","doseu":null,"dosef":"BID","route":"ORAL","start_dtc":"2024-04-14","end_dtc":"2024-04-14","visit":"BASELINE"},{"seq":"7","trt":"ANTIVIRAL","dose":"200.0","doseu":null,"dosef":"BID","route":"ORAL","start_dtc":"2024-04-15","end_dtc":"2024-04-15","visit":"BASELINE"},{"seq":"8","trt":"ANTIVIRAL","dose":"200.0","doseu":null,"dosef":"BID","route":"ORAL","start_dtc":"2024-04-15","end_dtc":"2024-04-15","visit":"BASELINE"}]},"section_7_adverse_events":{"summary":{"total_aes":1,"serious_aes":0,"fatal_aes":0,"by_severity":{"MILD":1},"by_soc":{"Respiratory, thoracic and mediastinal disorders":1}},"events":[{"seq":"1","term":"RHINORRHOEA","decod":"Rhinorrhoea","llt":"Rhinorrhoea","hlt":"Nasal disorders NEC","hlgt":"Respiratory tract signs and symptoms","soc":"Respiratory, thoracic and mediastinal disorders","bodsys":"Respiratory, thoracic and mediastinal disorders","severity":"MILD","serious":"N","causality":"NOT RELATED","action_taken":"DOSE NOT CHANGED","outcome":"RECOVERED/RESOLVED","fatal":"N","hospitalization":"N","life_threatening":"N","onset_dtc":"2024-04-14","end_dtc":"2024-04-19","onset_dy":"3","end_dy":"8","duration":null,"epoch":"TREATMENT","visit":null,"supplemental":{"AETRTEM":"Y"}}]},"section_8_laboratory_results":{"summary":{"total_records":28,"abnormal_count":0,"abnormal_pct":0.0},"shift_summary":[{"testcd":"ALT","baseline_value":23.27,"baseline_nrind":"NORMAL","worst_post_baseline_value":23.78,"worst_post_baseline_nrind":"NORMAL","worst_visit":"DAY 3"},{"testcd":"AST","baseline_value":20.26,"baseline_nrind":"NORMAL","worst_post_baseline_value":17.43,"worst_post_baseline_nrind":"NORMAL","worst_visit":"DAY 3"},{"testcd":"CREAT","baseline_value":64.97,"baseline_nrind":"NORMAL","worst_post_baseline_value":71.72,"worst_post_baseline_nrind":"NORMAL","worst_visit":"DAY 14"},{"testcd":"GLUC","baseline_value":4.66,"baseline_nrind":"NORMAL","worst_post_baseline_value":4.64,"worst_post_baseline_nrind":"NORMAL","worst_visit":"DAY 14"},{"testcd":"HGB","baseline_value":147.13,"baseline_nrind":"NORMAL","worst_post_baseline_value":147.23,"worst_post_baseline_nrind":"NORMAL","worst_visit":"DAY 28"},{"testcd":"PLAT","baseline_value":344.68,"baseline_nrind":"NORMAL","worst_post_baseline_value":326.51,"worst_post_baseline_nrind":"NORMAL","worst_visit":"DAY 3"},{"testcd":"WBC","baseline_value":4.76,"baseline_nrind":"NORMAL","worst_post_baseline_value":6.0,"worst_post_baseline_nrind":"NORMAL","worst_visit":"DAY 3"}],"results":[{"seq":"1","testcd":"ALT","test":"Alanine Aminotransferase","cat":"CHEMISTRY","orres":"23.27","orresu":"U/L","stresc":"23.27","stresn":"23.27","stresu":"U/L","stnrlo":"7","stnrhi":"56","nrind":"NORMAL","fast":null,"dtc":"2024-04-12","dy":"1","visit":"BASELINE","visitnum":"1.0","epoch":"TREATMENT","spec":null,"method":null},{"seq":"2","testcd":"AST","test":"Aspartate Aminotransferase","cat":"CHEMISTRY","orres":"20.26","orresu":"U/L","stresc":"20.26","stresn":"20.26","stresu":"U/L","stnrlo":"10","stnrhi":"40","nrind":"NORMAL","fast":null,"dtc":"2024-04-12","dy":"1","visit":"BASELINE","visitnum":"1.0","epoch":"TREATMENT","spec":null,"method":null},{"seq":"3","testcd":"CREAT","test":"Creatinine","cat":"CHEMISTRY","orres":"64.97","orresu":"umol/L","stresc":"64.97","stresn":"64.97","stresu":"umol/L","stnrlo":"62","stnrhi":"106","nrind":"NORMAL","fast":null,"dtc":"2024-04-12","dy":"1","visit":"BASELINE","visitnum":"1.0","epoch":"TREATMENT","spec":null,"method":null},{"seq":"4","testcd":"GLUC","test":"Glucose","cat":"CHEMISTRY","orres":"4.66","orresu":"mmol/L","stresc":"4.66","stresn":"4.66","stresu":"mmol/L","stnrlo":"3.9","stnrhi":"5.6","nrind":"NORMAL","fast":null,"dtc":"2024-04-12","dy":"1","visit":"BASELINE","visitnum":"1.0","epoch":"TREATMENT","spec":null,"method":null},{"seq":"5","testcd":"HGB","test":"Hemoglobin","cat":"HEMATOLOGY","orres":"147.13","orresu":"g/L","stresc":"147.13","stresn":"147.13","stresu":"g/L","stnrlo":"130","stnrhi":"175","nrind":"NORMAL","fast":null,"dtc":"2024-04-12","dy":"1","visit":"BASELINE","visitnum":"1.0","epoch":"TREATMENT","spec":null,"method":null},{"seq":"6","testcd":"PLAT","test":"Platelets","cat":"HEMATOLOGY","orres":"344.68","orresu":"10^9/L","stresc":"344.68","stresn":"344.68","stresu":"10^9/L","stnrlo":"150","stnrhi":"400","nrind":"NORMAL","fast":null,"dtc":"2024-04-12","dy":"1","visit":"BASELINE","visitnum":"1.0","epoch":"TREATMENT","spec":null,"method":null},{"seq":"7","testcd":"WBC","test":"Leukocytes","cat":"HEMATOLOGY","orres":"4.76","orresu":"10^9/L","stresc":"4.76","stresn":"4.76","stresu":"10^9/L","stnrlo":"4.0","stnrhi":"11.0","nrind":"NORMAL","fast":null,"dtc":"2024-04-12","dy":"1","visit":"BASELINE","visitnum":"1.0","epoch":"TREATMENT","spec":null,"method":null},{"seq":"8","testcd":"ALT","test":"Alanine Aminotransferase","cat":"CHEMISTRY","orres":"23.78","orresu":"U/L","stresc":"23.78","stresn":"23.78","stresu":"U/L","stnrlo":"7","stnrhi":"56","nrind":"NORMAL","fast":null,"dtc":"2024-04-14","dy":"3","visit":"DAY 3","visitnum":"2.0","epoch":"TREATMENT","spec":null,"method":null},{"seq":"9","testcd":"AST","test":"Aspartate Aminotransferase","cat":"CHEMISTRY","orres":"17.43","orresu":"U/L","stresc":"17.43","stresn":"17.43","stresu":"U/L","stnrlo":"10","stnrhi":"40","nrind":"NORMAL","fast":null,"dtc":"2024-04-14","dy":"3","visit":"DAY 3","visitnum":"2.0","epoch":"TREATMENT","spec":null,"method":null},{"seq":"10","testcd":"CREAT","test":"Creatinine","cat":"CHEMISTRY","orres":"70.39","orresu":"umol/L","stresc":"70.39","stresn":"70.39","stresu":"umol/L","stnrlo":"62","stnrhi":"106","nrind":"NORMAL","fast":null,"dtc":"2024-04-14","dy":"3","visit":"DAY 3","visitnum":"2.0","epoch":"TREATMENT","spec":null,"method":null},{"seq":"11","testcd":"GLUC","test":"Glucose","cat":"CHEMISTRY","orres":"4.56","orresu":"mmol/L","stresc":"4.56","stresn":"4.56","stresu":"mmol/L","stnrlo":"3.9","stnrhi":"5.6","nrind":"NORMAL","fast":null,"dtc":"2024-04-14","dy":"3","visit":"DAY 3","visitnum":"2.0","epoch":"TREATMENT","spec":null,"method":null},{"seq":"12","testcd":"HGB","test":"Hemoglobin","cat":"HEMATOLOGY","orres":"147.89","orresu":"g/L","stresc":"147.89","stresn":"147.89","stresu":"g/L","stnrlo":"130","stnrhi":"175","nrind":"NORMAL","fast":null,"dtc":"2024-04-14","dy":"3","visit":"DAY 3","visitnum":"2.0","epoch":"TREATMENT","spec":null,"method":null},{"seq":"13","testcd":"PLAT","test":"Platelets","cat":"HEMATOLOGY","orres":"326.51","orresu":"10^9/L","stresc":"326.51","stresn":"326.51","stresu":"10^9/L","stnrlo":"150","stnrhi":"400","nrind":"NORMAL","fast":null,"dtc":"2024-04-14","dy":"3","visit":"DAY 3","visitnum":"2.0","epoch":"TREATMENT","spec":null,"method":null},{"seq":"14","testcd":"WBC","test":"Leukocytes","cat":"HEMATOLOGY","orres":"6.0","orresu":"10^9/L","stresc":"6.0","stresn":"6.0","stresu":"10^9/L","stnrlo":"4.0","stnrhi":"11.0","nrind":"NORMAL","fast":null,"dtc":"2024-04-14","dy":"3","visit":"DAY 3","visitnum":"2.0","epoch":"TREATMENT","spec":null,"method":null},{"seq":"15","testcd":"ALT","test":"Alanine Aminotransferase","cat":"CHEMISTRY","orres":"22.24","orresu":"U/L","stresc":"22.24","stresn":"22.24","stresu":"U/L","stnrlo":"7","stnrhi":"56","nrind":"NORMAL","fast":null,"dtc":"2024-04-24","dy":"13","visit":"DAY 14","visitnum":"4.0","epoch":"FOLLOW-UP","spec":null,"method":null},{"seq":"16","testcd":"AST","test":"Aspartate Aminotransferase","cat":"CHEMISTRY","orres":"16.99","orresu":"U/L","stresc":"16.99","stresn":"16.99","stresu":"U/L","stnrlo":"10","stnrhi":"40","nrind":"NORMAL","fast":null,"dtc":"2024-04-24","dy":"13","visit":"DAY 14","visitnum":"4.0","epoch":"FOLLOW-UP","spec":null,"method":null},{"seq":"17","testcd":"CREAT","test":"Creatinine","cat":"CHEMISTRY","orres":"71.72","orresu":"umol/L","stresc":"71.72","stresn":"71.72","stresu":"umol/L","stnrlo":"62","stnrhi":"106","nrind":"NORMAL","fast":null,"dtc":"2024-04-24","dy":"13","visit":"DAY 14","visitnum":"4.0","epoch":"FOLLOW-UP","spec":null,"method":null},{"seq":"18","testcd":"GLUC","test":"Glucose","cat":"CHEMISTRY","orres":"4.64","orresu":"mmol/L","stresc":"4.64","stresn":"4.64","stresu":"mmol/L","stnrlo":"3.9","stnrhi":"5.6","nrind":"NORMAL","fast":null,"dtc":"2024-04-24","dy":"13","visit":"DAY 14","visitnum":"4.0","epoch":"FOLLOW-UP","spec":null,"method":null},{"seq":"19","testcd":"HGB","test":"Hemoglobin","cat":"HEMATOLOGY","orres":"147.26","orresu":"g/L","stresc":"147.26","stresn":"147.26","stresu":"g/L","stnrlo":"130","stnrhi":"175","nrind":"NORMAL","fast":null,"dtc":"2024-04-24","dy":"13","visit":"DAY 14","visitnum":"4.0","epoch":"FOLLOW-UP","spec":null,"method":null},{"seq":"20","testcd":"PLAT","test":"Platelets","cat":"HEMATOLOGY","orres":"314.33","orresu":"10^9/L","stresc":"314.33","stresn":"314.33","stresu":"10^9/L","stnrlo":"150","stnrhi":"400","nrind":"NORMAL","fast":null,"dtc":"2024-04-24","dy":"13","visit":"DAY 14","visitnum":"4.0","epoch":"FOLLOW-UP","spec":null,"method":null},{"seq":"21","testcd":"WBC","test":"Leukocytes","cat":"HEMATOLOGY","orres":"5.46","orresu":"10^9/L","stresc":"5.46","stresn":"5.46","stresu":"10^9/L","stnrlo":"4.0","stnrhi":"11.0","nrind":"NORMAL","fast":null,"dtc":"2024-04-24","dy":"13","visit":"DAY 14","visitnum":"4.0","epoch":"FOLLOW-UP","spec":null,"method":null},{"seq":"22","testcd":"ALT","test":"Alanine Aminotransferase","cat":"CHEMISTRY","orres":"22.59","orresu":"U/L","stresc":"22.59","stresn":"22.59","stresu":"U/L","stnrlo":"7","stnrhi":"56","nrind":"NORMAL","fast":null,"dtc":"2024-05-08","dy":"27","visit":"DAY 28","visitnum":"5.0","epoch":"FOLLOW-UP","spec":null,"method":null},{"seq":"23","testcd":"AST","test":"Aspartate Aminotransferase","cat":"CHEMISTRY","orres":"16.5","orresu":"U/L","stresc":"16.5","stresn":"16.5","stresu":"U/L","stnrlo":"10","stnrhi":"40","nrind":"NORMAL","fast":null,"dtc":"2024-05-08","dy":"27","visit":"DAY 28","visitnum":"5.0","epoch":"FOLLOW-UP","spec":null,"method":null},{"seq":"24","testcd":"CREAT","test":"Creatinine","cat":"CHEMISTRY","orres":"71.56","orresu":"umol/L","stresc":"71.56","stresn":"71.56","stresu":"umol/L","stnrlo":"62","stnrhi":"106","nrind":"NORMAL","fast":null,"dtc":"2024-05-08","dy":"27","visit":"DAY 28","visitnum":"5.0","epoch":"FOLLOW-UP","spec":null,"method":null},{"seq":"25","testcd":"GLUC","test":"Glucose","cat":"CHEMISTRY","orres":"4.54","orresu":"mmol/L","stresc":"4.54","stresn":"4.54","stresu":"mmol/L","stnrlo":"3.9","stnrhi":"5.6","nrind":"NORMAL","fast":null,"dtc":"2024-05-08","dy":"27","visit":"DAY 28","visitnum":"5.0","epoch":"FOLLOW-UP","spec":null,"method":null},{"seq":"26","testcd":"HGB","test":"Hemoglobin","cat":"HEMATOLOGY","orres":"147.23","orresu":"g/L","stresc":"147.23","stresn":"147.23","stresu":"g/L","stnrlo":"130","stnrhi":"175","nrind":"NORMAL","fast":null,"dtc":"2024-05-08","dy":"27","visit":"DAY 28","visitnum":"5.0","epoch":"FOLLOW-UP","spec":null,"method":null},{"seq":"27","testcd":"PLAT","test":"Platelets","cat":"HEMATOLOGY","orres":"317.77","orresu":"10^9/L","stresc":"317.77","stresn":"317.77","stresu":"10^9/L","stnrlo":"150","stnrhi":"400","nrind":"NORMAL","fast":null,"dtc":"2024-05-08","dy":"27","visit":"DAY 28","visitnum":"5.0","epoch":"FOLLOW-UP","spec":null,"method":null},{"seq":"28","testcd":"WBC","test":"Leukocytes","cat":"HEMATOLOGY","orres":"4.57","orresu":"10^9/L","stresc":"4.57","stresn":"4.57","stresu":"10^9/L","stnrlo":"4.0","stnrhi":"11.0","nrind":"NORMAL","fast":null,"dtc":"2024-05-08","dy":"27","visit":"DAY 28","visitnum":"5.0","epoch":"FOLLOW-UP","spec":null,"method":null}]},"section_9_vital_signs":{"summary":{"total_records":32},"trends":{"BMI":[{"visit":"BASELINE","visitnum":"1.0","dtc":"2024-04-12","value":"23.6","unit":"kg/m2"},{"visit":"DAY 3","visitnum":"2.0","dtc":"2024-04-14","value":"24.4","unit":"kg/m2"},{"visit":"DAY 5","visitnum":"3.0","dtc":"2024-04-16","value":"25.0","unit":"kg/m2"},{"visit":"DAY 28","visitnum":"5.0","dtc":"2024-05-08","value":"24.7","unit":"kg/m2"}],"DIABP":[{"visit":"BASELINE","visitnum":"1.0","dtc":"2024-04-12","value":"86.5","unit":"mmHg"},{"visit":"DAY 3","visitnum":"2.0","dtc":"2024-04-14","value":"84.5","unit":"mmHg"},{"visit":"DAY 5","visitnum":"3.0","dtc":"2024-04-16","value":"84.4","unit":"mmHg"},{"visit":"DAY 28","visitnum":"5.0","dtc":"2024-05-08","value":"87.7","unit":"mmHg"}],"HEIGHT":[{"visit":"BASELINE","visitnum":"1.0","dtc":"2024-04-12","value":"170.7","unit":"cm"},{"visit":"DAY 3","visitnum":"2.0","dtc":"2024-04-14","value":"170.8","unit":"cm"},{"visit":"DAY 5","visitnum":"3.0","dtc":"2024-04-16","value":"170.8","unit":"cm"},{"visit":"DAY 28","visitnum":"5.0","dtc":"2024-05-08","value":"170.1","unit":"cm"}],"PULSE":[{"visit":"BASELINE","visitnum":"1.0","dtc":"2024-04-12","value":"72.9","unit":"beats/min"},{"visit":"DAY 3","visitnum":"2.0","dtc":"2024-04-14","value":"73.3","unit":"beats/min"},{"visit":"DAY 5","visitnum":"3.0","dtc":"2024-04-16","value":"75.6","unit":"beats/min"},{"visit":"DAY 28","visitnum":"5.0","dtc":"2024-05-08","value":"75.9","unit":"beats/min"}],"RESP":[{"visit":"BASELINE","visitnum":"1.0","dtc":"2024-04-12","value":"16.3","unit":"breaths/min"},{"visit":"DAY 3","visitnum":"2.0","dtc":"2024-04-14","value":"15.8","unit":"breaths/min"},{"visit":"DAY 5","visitnum":"3.0","dtc":"2024-04-16","value":"16.3","unit":"breaths/min"},{"visit":"DAY 28","visitnum":"5.0","dtc":"2024-05-08","value":"16.6","unit":"breaths/min"}],"SYSBP":[{"visit":"BASELINE","visitnum":"1.0","dtc":"2024-04-12","value":"109.8","unit":"mmHg"},{"visit":"DAY 3","visitnum":"2.0","dtc":"2024-04-14","value":"106.5","unit":"mmHg"},{"visit":"DAY 5","visitnum":"3.0","dtc":"2024-04-16","value":"106.5","unit":"mmHg"},{"visit":"DAY 28","visitnum":"5.0","dtc":"2024-05-08","value":"111.4","unit":"mmHg"}],"TEMP":[{"visit":"BASELINE","visitnum":"1.0","dtc":"2024-04-12","value":"36.1","unit":"C"},{"visit":"DAY 3","visitnum":"2.0","dtc":"2024-04-14","value":"35.7","unit":"C"},{"visit":"DAY 5","visitnum":"3.0","dtc":"2024-04-16","value":"36.1","unit":"C"},{"visit":"DAY 28","visitnum":"5.0","dtc":"2024-05-08","value":"35.8","unit":"C"}],"WEIGHT":[{"visit":"BASELINE","visitnum":"1.0","dtc":"2024-04-12","value":"68.9","unit":"kg"},{"visit":"DAY 3","visitnum":"2.0","dtc":"2024-04-14","value":"71.2","unit":"kg"},{"visit":"DAY 5","visitnum":"3.0","dtc":"2024-04-16","value":"73.0","unit":"kg"},{"visit":"DAY 28","visitnum":"5.0","dtc":"2024-05-08","value":"71.5","unit":"kg"}]},"results":[{"seq":"1","testcd":"BMI","test":"BMI","cat":null,"orres":"23.6","orresu":"kg/m2","stresc":"23.6","stresn":"23.6","stresu":"kg/m2","stnrlo":null,"stnrhi":null,"nrind":null,"pos":null,"loc":null,"dtc":"2024-04-12","dy":"1","visit":"BASELINE","visitnum":"1.0","epoch":"TREATMENT"},{"seq":"2","testcd":"DIABP","test":"Diastolic Blood Pressure","cat":null,"orres":"86.5","orresu":"mmHg","stresc":"86.5","stresn":"86.5","stresu":"mmHg","stnrlo":null,"stnrhi":null,"nrind":null,"pos":null,"loc":null,"dtc":"2024-04-12","dy":"1","visit":"BASELINE","visitnum":"1.0","epoch":"TREATMENT"},{"seq":"3","testcd":"HEIGHT","test":"Height","cat":null,"orres":"170.7","orresu":"cm","stresc":"170.7","stresn":"170.7","stresu":"cm","stnrlo":null,"stnrhi":null,"nrind":null,"pos":null,"loc":null,"dtc":"2024-04-12","dy":"1","visit":"BASELINE","visitnum":"1.0","epoch":"TREATMENT"},{"seq":"4","testcd":"PULSE","test":"Pulse Rate","cat":null,"orres":"72.9","orresu":"beats/min","stresc":"72.9","stresn":"72.9","stresu":"beats/min","stnrlo":null,"stnrhi":null,"nrind":null,"pos":null,"loc":null,"dtc":"2024-04-12","dy":"1","visit":"BASELINE","visitnum":"1.0","epoch":"TREATMENT"},{"seq":"5","testcd":"RESP","test":"Respiratory Rate","cat":null,"orres":"16.3","orresu":"breaths/min","stresc":"16.3","stresn":"16.3","stresu":"breaths/min","stnrlo":null,"stnrhi":null,"nrind":null,"pos":null,"loc":null,"dtc":"2024-04-12","dy":"1","visit":"BASELINE","visitnum":"1.0","epoch":"TREATMENT"},{"seq":"6","testcd":"SYSBP","test":"Systolic Blood Pressure","cat":null,"orres":"109.8","orresu":"mmHg","stresc":"109.8","stresn":"109.8","stresu":"mmHg","stnrlo":null,"stnrhi":null,"nrind":null,"pos":null,"loc":null,"dtc":"2024-04-12","dy":"1","visit":"BASELINE","visitnum":"1.0","epoch":"TREATMENT"},{"seq":"7","testcd":"TEMP","test":"Temperature","cat":null,"orres":"36.1","orresu":"C","stresc":"36.1","stresn":"36.1","stresu":"C","stnrlo":null,"stnrhi":null,"nrind":null,"pos":null,"loc":null,"dtc":"2024-04-12","dy":"1","visit":"BASELINE","visitnum":"1.0","epoch":"TREATMENT"},{"seq":"8","testcd":"WEIGHT","test":"Weight","cat":null,"orres":"68.9","orresu":"kg","stresc":"68.9","stresn":"68.9","stresu":"kg","stnrlo":null,"stnrhi":null,"nrind":null,"pos":null,"loc":null,"dtc":"2024-04-12","dy":"1","visit":"BASELINE","visitnum":"1.0","epoch":"TREATMENT"},{"seq":"9","testcd":"BMI","test":"BMI","cat":null,"orres":"24.4","orresu":"kg/m2","stresc":"24.4","stresn":"24.4","stresu":"kg/m2","stnrlo":null,"stnrhi":null,"nrind":null,"pos":null,"loc":null,"dtc":"2024-04-14","dy":"3","visit":"DAY 3","visitnum":"2.0","epoch":"TREATMENT"},{"seq":"10","testcd":"DIABP","test":"Diastolic Blood Pressure","cat":null,"orres":"84.5","orresu":"mmHg","stresc":"84.5","stresn":"84.5","stresu":"mmHg","stnrlo":null,"stnrhi":null,"nrind":null,"pos":null,"loc":null,"dtc":"2024-04-14","dy":"3","visit":"DAY 3","visitnum":"2.0","epoch":"TREATMENT"},{"seq":"11","testcd":"HEIGHT","test":"Height","cat":null,"orres":"170.8","orresu":"cm","stresc":"170.8","stresn":"170.8","stresu":"cm","stnrlo":null,"stnrhi":null,"nrind":null,"pos":null,"loc":null,"dtc":"2024-04-14","dy":"3","visit":"DAY 3","visitnum":"2.0","epoch":"TREATMENT"},{"seq":"12","testcd":"PULSE","test":"Pulse Rate","cat":null,"orres":"73.3","orresu":"beats/min","stresc":"73.3","stresn":"73.3","stresu":"beats/min","stnrlo":null,"stnrhi":null,"nrind":null,"pos":null,"loc":null,"dtc":"2024-04-14","dy":"3","visit":"DAY 3","visitnum":"2.0","epoch":"TREATMENT"},{"seq":"13","testcd":"RESP","test":"Respiratory Rate","cat":null,"orres":"15.8","orresu":"breaths/min","stresc":"15.8","stresn":"15.8","stresu":"breaths/min","stnrlo":null,"stnrhi":null,"nrind":null,"pos":null,"loc":null,"dtc":"2024-04-14","dy":"3","visit":"DAY 3","visitnum":"2.0","epoch":"TREATMENT"},{"seq":"14","testcd":"SYSBP","test":"Systolic Blood Pressure","cat":null,"orres":"106.5","orresu":"mmHg","stresc":"106.5","stresn":"106.5","stresu":"mmHg","stnrlo":null,"stnrhi":null,"nrind":null,"pos":null,"loc":null,"dtc":"2024-04-14","dy":"3","visit":"DAY 3","visitnum":"2.0","epoch":"TREATMENT"},{"seq":"15","testcd":"TEMP","test":"Temperature","cat":null,"orres":"35.7","orresu":"C","stresc":"35.7","stresn":"35.7","stresu":"C","stnrlo":null,"stnrhi":null,"nrind":null,"pos":null,"loc":null,"dtc":"2024-04-14","dy":"3","visit":"DAY 3","visitnum":"2.0","epoch":"TREATMENT"},{"seq":"16","testcd":"WEIGHT","test":"Weight","cat":null,"orres":"71.2","orresu":"kg","stresc":"71.2","stresn":"71.2","stresu":"kg","stnrlo":null,"stnrhi":null,"nrind":null,"pos":null,"loc":null,"dtc":"2024-04-14","dy":"3","visit":"DAY 3","visitnum":"2.0","epoch":"TREATMENT"},{"seq":"17","testcd":"BMI","test":"BMI","cat":null,"orres":"25.0","orresu":"kg/m2","stresc":"25.0","stresn":"25.0","stresu":"kg/m2","stnrlo":null,"stnrhi":null,"nrind":null,"pos":null,"loc":null,"dtc":"2024-04-16","dy":"5","visit":"DAY 5","visitnum":"3.0","epoch":"TREATMENT"},{"seq":"18","testcd":"DIABP","test":"Diastolic Blood Pressure","cat":null,"orres":"84.4","orresu":"mmHg","stresc":"84.4","stresn":"84.4","stresu":"mmHg","stnrlo":null,"stnrhi":null,"nrind":null,"pos":null,"loc":null,"dtc":"2024-04-16","dy":"5","visit":"DAY 5","visitnum":"3.0","epoch":"TREATMENT"},{"seq":"19","testcd":"HEIGHT","test":"Height","cat":null,"orres":"170.8","orresu":"cm","stresc":"170.8","stresn":"170.8","stresu":"cm","stnrlo":null,"stnrhi":null,"nrind":null,"pos":null,"loc":null,"dtc":"2024-04-16","dy":"5","visit":"DAY 5","visitnum":"3.0","epoch":"TREATMENT"},{"seq":"20","testcd":"PULSE","test":"Pulse Rate","cat":null,"orres":"75.6","orresu":"beats/min","stresc":"75.6","stresn":"75.6","stresu":"beats/min","stnrlo":null,"stnrhi":null,"nrind":null,"pos":null,"loc":null,"dtc":"2024-04-16","dy":"5","visit":"DAY 5","visitnum":"3.0","epoch":"TREATMENT"},{"seq":"21","testcd":"RESP","test":"Respiratory Rate","cat":null,"orres":"16.3","orresu":"breaths/min","stresc":"16.3","stresn":"16.3","stresu":"breaths/min","stnrlo":null,"stnrhi":null,"nrind":null,"pos":null,"loc":null,"dtc":"2024-04-16","dy":"5","visit":"DAY 5","visitnum":"3.0","epoch":"TREATMENT"},{"seq":"22","testcd":"SYSBP","test":"Systolic Blood Pressure","cat":null,"orres":"106.5","orresu":"mmHg","stresc":"106.5","stresn":"106.5","stresu":"mmHg","stnrlo":null,"stnrhi":null,"nrind":null,"pos":null,"loc":null,"dtc":"2024-04-16","dy":"5","visit":"DAY 5","visitnum":"3.0","epoch":"TREATMENT"},{"seq":"23","testcd":"TEMP","test":"Temperature","cat":null,"orres":"36.1","orresu":"C","stresc":"36.1","stresn":"36.1","stresu":"C","stnrlo":null,"stnrhi":null,"nrind":null,"pos":null,"loc":null,"dtc":"2024-04-16","dy":"5","visit":"DAY 5","visitnum":"3.0","epoch":"TREATMENT"},{"seq":"24","testcd":"WEIGHT","test":"Weight","cat":null,"orres":"73.0","orresu":"kg","stresc":"73.0","stresn":"73.0","stresu":"kg","stnrlo":null,"stnrhi":null,"nrind":null,"pos":null,"loc":null,"dtc":"2024-04-16","dy":"5","visit":"DAY 5","visitnum":"3.0","epoch":"TREATMENT"},{"seq":"25","testcd":"BMI","test":"BMI","cat":null,"orres":"24.7","orresu":"kg/m2","stresc":"24.7","stresn":"24.7","stresu":"kg/m2","stnrlo":null,"stnrhi":null,"nrind":null,"pos":null,"loc":null,"dtc":"2024-05-08","dy":"27","visit":"DAY 28","visitnum":"5.0","epoch":"FOLLOW-UP"},{"seq":"26","testcd":"DIABP","test":"Diastolic Blood Pressure","cat":null,"orres":"87.7","orresu":"mmHg","stresc":"87.7","stresn":"87.7","stresu":"mmHg","stnrlo":null,"stnrhi":null,"nrind":null,"pos":null,"loc":null,"dtc":"2024-05-08","dy":"27","visit":"DAY 28","visitnum":"5.0","epoch":"FOLLOW-UP"},{"seq":"27","testcd":"HEIGHT","test":"Height","cat":null,"orres":"170.1","orresu":"cm","stresc":"170.1","stresn":"170.1","stresu":"cm","stnrlo":null,"stnrhi":null,"nrind":null,"pos":null,"loc":null,"dtc":"2024-05-08","dy":"27","visit":"DAY 28","visitnum":"5.0","epoch":"FOLLOW-UP"},{"seq":"28","testcd":"PULSE","test":"Pulse Rate","cat":null,"orres":"75.9","orresu":"beats/min","stresc":"75.9","stresn":"75.9","stresu":"beats/min","stnrlo":null,"stnrhi":null,"nrind":null,"pos":null,"loc":null,"dtc":"2024-05-08","dy":"27","visit":"DAY 28","visitnum":"5.0","epoch":"FOLLOW-UP"},{"seq":"29","testcd":"RESP","test":"Respiratory Rate","cat":null,"orres":"16.6","orresu":"breaths/min","stresc":"16.6","stresn":"16.6","stresu":"breaths/min","stnrlo":null,"stnrhi":null,"nrind":null,"pos":null,"loc":null,"dtc":"2024-05-08","dy":"27","visit":"DAY 28","visitnum":"5.0","epoch":"FOLLOW-UP"},{"seq":"30","testcd":"SYSBP","test":"Systolic Blood Pressure","cat":null,"orres":"111.4","orresu":"mmHg","stresc":"111.4","stresn":"111.4","stresu":"mmHg","stnrlo":null,"stnrhi":null,"nrind":null,"pos":null,"loc":null,"dtc":"2024-05-08","dy":"27","visit":"DAY 28","visitnum":"5.0","epoch":"FOLLOW-UP"},{"seq":"31","testcd":"TEMP","test":"Temperature","cat":null,"orres":"35.8","orresu":"C","stresc":"35.8","stresn":"35.8","stresu":"C","stnrlo":null,"stnrhi":null,"nrind":null,"pos":null,"loc":null,"dtc":"2024-05-08","dy":"27","visit":"DAY 28","visitnum":"5.0","epoch":"FOLLOW-UP"},{"seq":"32","testcd":"WEIGHT","test":"Weight","cat":null,"orres":"71.5","orresu":"kg","stresc":"71.5","stresn":"71.5","stresu":"kg","stnrlo":null,"stnrhi":null,"nrind":null,"pos":null,"loc":null,"dtc":"2024-05-08","dy":"27","visit":"DAY 28","visitnum":"5.0","epoch":"FOLLOW-UP"}]},"section_10_questionnaires_and_scores":{"questionnaires":[],"findings_about":[]},"section_11_protocol_deviations":{"deviations":[{"seq":"1","term":"Visit DAY 28 occurred 1 days early (Day 27 vs planned Day 28)","decod":"VISIT OCCURRED OUTSIDE VISIT WINDOW","cat":"MINOR","scat":"VISIT WINDOW","start_dtc":"2024-05-08","end_dtc":null,"visit":null}],"total":1},"section_12_disposition":{"completion_status":"COMPLETED","disposition_records":[{"seq":"1","term":"INFORMED CONSENT OBTAINED","decod":"INFORMED CONSENT OBTAINED","cat":"PROTOCOL MILESTONE","scat":null,"dtc":"2024-03-15","dy":null,"visit":null,"epoch":"SCREENING"},{"seq":"2","term":"RANDOMIZED","decod":"RANDOMIZED","cat":"PROTOCOL MILESTONE","scat":null,"dtc":"2024-04-12","dy":null,"visit":null,"epoch":"TREATMENT"},{"seq":"3","term":"COMPLETED","decod":"COMPLETED","cat":"DISPOSITION EVENT","scat":null,"dtc":"2024-05-10","dy":null,"visit":null,"epoch":"FOLLOW-UP"}],"death":null},"section_13_hospitalizations":{"items":[],"total":0},"section_14_substance_use":{"items":[{"seq":"1","substance":"ALCOHOL","decod":"ALCOHOL","cat":"ALCOHOL","scat":null,"usage":"Y","dose":"5.0","dosu":"DRINKS/WEEK","freq":"QW","start_dtc":"2005-03-20","end_dtc":null},{"seq":"2","substance":"COFFEE","decod":"COFFEE","cat":"CAFFEINE","scat":null,"usage":"Y","dose":"3.0","dosu":"CUPS/DAY","freq":"QD","start_dtc":"1999-03-22","end_dtc":null},{"seq":"3","substance":"CIGARETTES","decod":"CIGARETTES","cat":"TOBACCO","scat":"CIGARETTES","usage":"N","dose":null,"dosu":null,"freq":null,"start_dtc":null,"end_dtc":null}],"total":3},"section_15_subject_status":{"items":[{"seq":"1","testcd":"SURVSTAT","test":"Survival Status","orres":"ALIVE","stresc":"ALIVE","dtc":"2024-04-25","visit":"DAY 14","epoch":"FOLLOW-UP"},{"seq":"2","testcd":"SURVSTAT","test":"Survival Status","orres":"ALIVE","stresc":"ALIVE","dtc":"2024-05-09","visit":"DAY 28","epoch":"FOLLOW-UP"}],"total":2}}