{"subject_id":"COVID-THER-301-SITE001-0346","study_id":"COVID-THER-301","generated_at":"2026-06-12T05:15:32.891142+00:00","sdtmig_version":"3.4","flags":{"has_serious_ae":false,"has_fatal_ae":false,"has_protocol_deviation":false,"n_protocol_deviations":0,"n_adverse_events":0,"n_concomitant_meds":3,"max_ae_severity":null,"screen_failure":false,"discontinued_early":false,"discontinuation_reason":null,"death":false,"exposure_days":2},"timeline":[{"dtc":"2015-04-08","dy":"-3305","event":"CM START: SERTRALINE","domain":"CM","category":"concomitant_med"},{"dtc":"2018-04-07","dy":"-2210","event":"CM START: SALBUTAMOL","domain":"CM","category":"concomitant_med"},{"dtc":"2024-04-05","dy":"-20","event":"INFORMED CONSENT OBTAINED","domain":"DS","category":"milestone"},{"dtc":"2024-04-25","dy":"1","event":"RANDOMIZED","domain":"DS","category":"milestone"},{"dtc":"2024-04-25","dy":"1","event":"FIRST DOSE: PLACEBO","domain":"EX","category":"exposure"},{"dtc":"2024-04-25","dy":"1","event":"VISIT: BASELINE","domain":"SV","category":"visit"},{"dtc":"2024-04-27","dy":"3","event":"VISIT: DAY 3","domain":"SV","category":"visit"},{"dtc":"2024-04-27","dy":"3","event":"CM START: METFORMIN","domain":"CM","category":"concomitant_med"},{"dtc":"2024-04-29","dy":"5","event":"VISIT: DAY 5","domain":"SV","category":"visit"},{"dtc":"2024-05-07","dy":"13","event":"VISIT: DAY 14","domain":"SV","category":"visit"},{"dtc":"2024-05-22","dy":"28","event":"VISIT: DAY 28","domain":"SV","category":"visit"},{"dtc":"2024-05-23","dy":"29","event":"COMPLETED","domain":"DS","category":"milestone"}],"section_1_demographics":{"usubjid":"COVID-THER-301-SITE001-0346","subjid":"0346","siteid":"SITE001","age":"52","ageu":"YEARS","sex":"M","race":"WHITE","ethnicity":"NOT HISPANIC OR LATINO","country":"USA","arm":"Placebo","armcd":"PBO","actarm":"Placebo","actarmcd":"PBO","randomization_date":null,"informed_consent_date":"2024-04-05","reference_start_date":"2024-04-25","reference_end_date":"2024-05-23","screen_failure":false,"death_flag":null,"death_date":null,"subject_characteristics":[{"testcd":"ALCUSE","test":"Alcohol Use","orres":"HEAVY DRINKER","stresc":"HEAVY DRINKER","visit":null,"dtc":"2024-04-05"},{"testcd":"BMI","test":"Body Mass Index","orres":"26.6","stresc":"26.6","visit":null,"dtc":"2024-04-05"},{"testcd":"DURDIS","test":"Duration of Disease","orres":"109 months","stresc":"109","visit":null,"dtc":"2024-04-05"},{"testcd":"TOBPKYR","test":"Tobacco Pack-Years","orres":"12","stresc":"12","visit":null,"dtc":"2024-04-05"},{"testcd":"TOBUSE","test":"Tobacco Use","orres":"FORMER SMOKER","stresc":"FORMER SMOKER","visit":null,"dtc":"2024-04-05"}]},"section_2_medical_history":{"items":[{"seq":"1","term":"ASTHMA","decod":"ASTHMA","cat":"RESPIRATORY","scat":null,"presp":null,"occur":null,"status":null,"onset_dtc":"2018-04-07","end_dtc":null,"visit":null},{"seq":"2","term":"DEPRESSION","decod":"DEPRESSION","cat":"PSYCHIATRIC","scat":null,"presp":null,"occur":null,"status":null,"onset_dtc":"2015-04-08","end_dtc":null,"visit":null},{"seq":"3","term":"HYPERTENSION","decod":"HYPERTENSION","cat":"CARDIOVASCULAR","scat":null,"presp":null,"occur":null,"status":null,"onset_dtc":"2022-04-06","end_dtc":"2022-04-11","visit":null}]},"section_3_inclusion_exclusion":{"criteria":[]},"section_4_trial_participation":{"visits":[{"visitnum":"1.0","visit":"BASELINE","start_dtc":"2024-04-25","end_dtc":"2024-04-25","updes":null},{"visitnum":"2.0","visit":"DAY 3","start_dtc":"2024-04-27","end_dtc":"2024-04-27","updes":null},{"visitnum":"3.0","visit":"DAY 5","start_dtc":"2024-04-29","end_dtc":"2024-04-29","updes":null},{"visitnum":"4.0","visit":"DAY 14","start_dtc":"2024-05-07","end_dtc":"2024-05-07","updes":null},{"visitnum":"5.0","visit":"DAY 28","start_dtc":"2024-05-22","end_dtc":"2024-05-22","updes":null}],"epochs":[{"seq":"1","etcd":"SCRN","element":"Screening","start_dtc":"2024-04-24","end_dtc":"2024-04-25","updes":null},{"seq":"2","etcd":"TRT","element":"Treatment","start_dtc":"2024-04-25","end_dtc":"2024-04-30","updes":null},{"seq":"3","etcd":"FU","element":"Follow-up","start_dtc":"2024-04-30","end_dtc":"2024-05-22","updes":null}],"visit_count":5},"section_5_concomitant_medications":{"medications":[{"seq":"1","trt":"SERTRALINE","decod":"SERTRALINE","cat":"PRIOR","dose":"50","doseu":null,"dosef":"QD","route":"ORAL","indication":"DEPRESSION","start_dtc":"2015-04-08","end_dtc":"2024-05-23","ongoing":null,"visit":null},{"seq":"2","trt":"SALBUTAMOL","decod":"SALBUTAMOL","cat":"PRIOR","dose":"100","doseu":null,"dosef":"PRN","route":"RESPIRATORY (INHALATION)","indication":"ASTHMA","start_dtc":"2018-04-07","end_dtc":"2024-05-23","ongoing":null,"visit":null},{"seq":"3","trt":"METFORMIN","decod":"METFORMIN","cat":"CONCOMITANT","dose":null,"doseu":null,"dosef":"BID","route":"ORAL","indication":null,"start_dtc":"2024-04-27","end_dtc":"2024-05-23","ongoing":null,"visit":null}]},"section_6_exposure":{"exposure_as_administered":[{"seq":"1","trt":"PLACEBO","dose":"0.0","doseu":null,"dosef":"BID","route":"ORAL","lot":null,"start_dtc":"2024-04-25","end_dtc":"2024-04-27","start_dy":"1","end_dy":"3","epoch":"TREATMENT","visit":null}],"exposure_as_collected":[{"seq":"1","trt":"PLACEBO","dose":null,"doseu":null,"dosef":"BID","route":"ORAL","start_dtc":"2024-04-25","end_dtc":"2024-04-25","visit":"BASELINE"},{"seq":"2","trt":"PLACEBO","dose":null,"doseu":null,"dosef":"BID","route":"ORAL","start_dtc":"2024-04-25","end_dtc":"2024-04-25","visit":"BASELINE"},{"seq":"3","trt":"PLACEBO","dose":null,"doseu":null,"dosef":"BID","route":"ORAL","start_dtc":"2024-04-26","end_dtc":"2024-04-26","visit":"BASELINE"},{"seq":"4","trt":"PLACEBO","dose":null,"doseu":null,"dosef":"BID","route":"ORAL","start_dtc":"2024-04-26","end_dtc":"2024-04-26","visit":"BASELINE"},{"seq":"5","trt":"PLACEBO","dose":null,"doseu":null,"dosef":"BID","route":"ORAL","start_dtc":"2024-04-27","end_dtc":"2024-04-27","visit":"BASELINE"},{"seq":"6","trt":"PLACEBO","dose":null,"doseu":null,"dosef":"BID","route":"ORAL","start_dtc":"2024-04-27","end_dtc":"2024-04-27","visit":"BASELINE"}]},"section_7_adverse_events":{"summary":{"total_aes":0,"serious_aes":0,"fatal_aes":0,"by_severity":{},"by_soc":{}},"events":[]},"section_8_laboratory_results":{"summary":{"total_records":28,"abnormal_count":7,"abnormal_pct":25.0},"shift_summary":[{"testcd":"ALT","baseline_value":52.87,"baseline_nrind":"NORMAL","worst_post_baseline_value":54.98,"worst_post_baseline_nrind":"NORMAL","worst_visit":"DAY 28"},{"testcd":"AST","baseline_value":29.11,"baseline_nrind":"NORMAL","worst_post_baseline_value":27.88,"worst_post_baseline_nrind":"NORMAL","worst_visit":"DAY 3"},{"testcd":"CREAT","baseline_value":124.78,"baseline_nrind":"HIGH","worst_post_baseline_value":124.15,"worst_post_baseline_nrind":"HIGH","worst_visit":"DAY 28"},{"testcd":"GLUC","baseline_value":4.02,"baseline_nrind":"NORMAL","worst_post_baseline_value":4.2,"worst_post_baseline_nrind":"NORMAL","worst_visit":"DAY 28"},{"testcd":"HGB","baseline_value":129.12,"baseline_nrind":"LOW","worst_post_baseline_value":126.33,"worst_post_baseline_nrind":"LOW","worst_visit":"DAY 28"},{"testcd":"PLAT","baseline_value":296.64,"baseline_nrind":"NORMAL","worst_post_baseline_value":302.77,"worst_post_baseline_nrind":"NORMAL","worst_visit":"DAY 3"},{"testcd":"WBC","baseline_value":6.97,"baseline_nrind":"NORMAL","worst_post_baseline_value":8.09,"worst_post_baseline_nrind":"NORMAL","worst_visit":"DAY 14"}],"results":[{"seq":"1","testcd":"ALT","test":"Alanine Aminotransferase","cat":"CHEMISTRY","orres":"52.87","orresu":"U/L","stresc":"52.87","stresn":"52.87","stresu":"U/L","stnrlo":"7","stnrhi":"56","nrind":"NORMAL","fast":null,"dtc":"2024-04-25","dy":"1","visit":"BASELINE","visitnum":"1.0","epoch":"TREATMENT","spec":null,"method":null},{"seq":"2","testcd":"AST","test":"Aspartate Aminotransferase","cat":"CHEMISTRY","orres":"29.11","orresu":"U/L","stresc":"29.11","stresn":"29.11","stresu":"U/L","stnrlo":"10","stnrhi":"40","nrind":"NORMAL","fast":null,"dtc":"2024-04-25","dy":"1","visit":"BASELINE","visitnum":"1.0","epoch":"TREATMENT","spec":null,"method":null},{"seq":"3","testcd":"CREAT","test":"Creatinine","cat":"CHEMISTRY","orres":"124.78","orresu":"umol/L","stresc":"124.78","stresn":"124.78","stresu":"umol/L","stnrlo":"62","stnrhi":"106","nrind":"HIGH","fast":null,"dtc":"2024-04-25","dy":"1","visit":"BASELINE","visitnum":"1.0","epoch":"TREATMENT","spec":null,"method":null},{"seq":"4","testcd":"GLUC","test":"Glucose","cat":"CHEMISTRY","orres":"4.02","orresu":"mmol/L","stresc":"4.02","stresn":"4.02","stresu":"mmol/L","stnrlo":"3.9","stnrhi":"5.6","nrind":"NORMAL","fast":null,"dtc":"2024-04-25","dy":"1","visit":"BASELINE","visitnum":"1.0","epoch":"TREATMENT","spec":null,"method":null},{"seq":"5","testcd":"HGB","test":"Hemoglobin","cat":"HEMATOLOGY","orres":"129.12","orresu":"g/L","stresc":"129.12","stresn":"129.12","stresu":"g/L","stnrlo":"130","stnrhi":"175","nrind":"LOW","fast":null,"dtc":"2024-04-25","dy":"1","visit":"BASELINE","visitnum":"1.0","epoch":"TREATMENT","spec":null,"method":null},{"seq":"6","testcd":"PLAT","test":"Platelets","cat":"HEMATOLOGY","orres":"296.64","orresu":"10^9/L","stresc":"296.64","stresn":"296.64","stresu":"10^9/L","stnrlo":"150","stnrhi":"400","nrind":"NORMAL","fast":null,"dtc":"2024-04-25","dy":"1","visit":"BASELINE","visitnum":"1.0","epoch":"TREATMENT","spec":null,"method":null},{"seq":"7","testcd":"WBC","test":"Leukocytes","cat":"HEMATOLOGY","orres":"6.97","orresu":"10^9/L","stresc":"6.97","stresn":"6.97","stresu":"10^9/L","stnrlo":"4.0","stnrhi":"11.0","nrind":"NORMAL","fast":null,"dtc":"2024-04-25","dy":"1","visit":"BASELINE","visitnum":"1.0","epoch":"TREATMENT","spec":null,"method":null},{"seq":"8","testcd":"ALT","test":"Alanine Aminotransferase","cat":"CHEMISTRY","orres":"50.53","orresu":"U/L","stresc":"50.53","stresn":"50.53","stresu":"U/L","stnrlo":"7","stnrhi":"56","nrind":"NORMAL","fast":null,"dtc":"2024-04-27","dy":"3","visit":"DAY 3","visitnum":"2.0","epoch":"TREATMENT","spec":null,"method":null},{"seq":"9","testcd":"AST","test":"Aspartate Aminotransferase","cat":"CHEMISTRY","orres":"27.88","orresu":"U/L","stresc":"27.88","stresn":"27.88","stresu":"U/L","stnrlo":"10","stnrhi":"40","nrind":"NORMAL","fast":null,"dtc":"2024-04-27","dy":"3","visit":"DAY 3","visitnum":"2.0","epoch":"TREATMENT","spec":null,"method":null},{"seq":"10","testcd":"CREAT","test":"Creatinine","cat":"CHEMISTRY","orres":"121.35","orresu":"umol/L","stresc":"121.35","stresn":"121.35","stresu":"umol/L","stnrlo":"62","stnrhi":"106","nrind":"HIGH","fast":null,"dtc":"2024-04-27","dy":"3","visit":"DAY 3","visitnum":"2.0","epoch":"TREATMENT","spec":null,"method":null},{"seq":"11","testcd":"GLUC","test":"Glucose","cat":"CHEMISTRY","orres":"3.98","orresu":"mmol/L","stresc":"3.98","stresn":"3.98","stresu":"mmol/L","stnrlo":"3.9","stnrhi":"5.6","nrind":"NORMAL","fast":null,"dtc":"2024-04-27","dy":"3","visit":"DAY 3","visitnum":"2.0","epoch":"TREATMENT","spec":null,"method":null},{"seq":"12","testcd":"HGB","test":"Hemoglobin","cat":"HEMATOLOGY","orres":"128.81","orresu":"g/L","stresc":"128.81","stresn":"128.81","stresu":"g/L","stnrlo":"130","stnrhi":"175","nrind":"LOW","fast":null,"dtc":"2024-04-27","dy":"3","visit":"DAY 3","visitnum":"2.0","epoch":"TREATMENT","spec":null,"method":null},{"seq":"13","testcd":"PLAT","test":"Platelets","cat":"HEMATOLOGY","orres":"302.77","orresu":"10^9/L","stresc":"302.77","stresn":"302.77","stresu":"10^9/L","stnrlo":"150","stnrhi":"400","nrind":"NORMAL","fast":null,"dtc":"2024-04-27","dy":"3","visit":"DAY 3","visitnum":"2.0","epoch":"TREATMENT","spec":null,"method":null},{"seq":"14","testcd":"WBC","test":"Leukocytes","cat":"HEMATOLOGY","orres":"7.28","orresu":"10^9/L","stresc":"7.28","stresn":"7.28","stresu":"10^9/L","stnrlo":"4.0","stnrhi":"11.0","nrind":"NORMAL","fast":null,"dtc":"2024-04-27","dy":"3","visit":"DAY 3","visitnum":"2.0","epoch":"TREATMENT","spec":null,"method":null},{"seq":"15","testcd":"ALT","test":"Alanine Aminotransferase","cat":"CHEMISTRY","orres":"53.33","orresu":"U/L","stresc":"53.33","stresn":"53.33","stresu":"U/L","stnrlo":"7","stnrhi":"56","nrind":"NORMAL","fast":null,"dtc":"2024-05-07","dy":"13","visit":"DAY 14","visitnum":"4.0","epoch":"FOLLOW-UP","spec":null,"method":null},{"seq":"16","testcd":"AST","test":"Aspartate Aminotransferase","cat":"CHEMISTRY","orres":"27.44","orresu":"U/L","stresc":"27.44","stresn":"27.44","stresu":"U/L","stnrlo":"10","stnrhi":"40","nrind":"NORMAL","fast":null,"dtc":"2024-05-07","dy":"13","visit":"DAY 14","visitnum":"4.0","epoch":"FOLLOW-UP","spec":null,"method":null},{"seq":"17","testcd":"CREAT","test":"Creatinine","cat":"CHEMISTRY","orres":null,"orresu":null,"stresc":null,"stresn":null,"stresu":null,"stnrlo":null,"stnrhi":null,"nrind":null,"fast":null,"dtc":"2024-05-07","dy":"13","visit":"DAY 14","visitnum":"4.0","epoch":"FOLLOW-UP","spec":null,"method":null},{"seq":"18","testcd":"GLUC","test":"Glucose","cat":"CHEMISTRY","orres":"4.01","orresu":"mmol/L","stresc":"4.01","stresn":"4.01","stresu":"mmol/L","stnrlo":"3.9","stnrhi":"5.6","nrind":"NORMAL","fast":null,"dtc":"2024-05-07","dy":"13","visit":"DAY 14","visitnum":"4.0","epoch":"FOLLOW-UP","spec":null,"method":null},{"seq":"19","testcd":"HGB","test":"Hemoglobin","cat":"HEMATOLOGY","orres":"127.07","orresu":"g/L","stresc":"127.07","stresn":"127.07","stresu":"g/L","stnrlo":"130","stnrhi":"175","nrind":"LOW","fast":null,"dtc":"2024-05-07","dy":"13","visit":"DAY 14","visitnum":"4.0","epoch":"FOLLOW-UP","spec":null,"method":null},{"seq":"20","testcd":"PLAT","test":"Platelets","cat":"HEMATOLOGY","orres":"296.01","orresu":"10^9/L","stresc":"296.01","stresn":"296.01","stresu":"10^9/L","stnrlo":"150","stnrhi":"400","nrind":"NORMAL","fast":null,"dtc":"2024-05-07","dy":"13","visit":"DAY 14","visitnum":"4.0","epoch":"FOLLOW-UP","spec":null,"method":null},{"seq":"21","testcd":"WBC","test":"Leukocytes","cat":"HEMATOLOGY","orres":"8.09","orresu":"10^9/L","stresc":"8.09","stresn":"8.09","stresu":"10^9/L","stnrlo":"4.0","stnrhi":"11.0","nrind":"NORMAL","fast":null,"dtc":"2024-05-07","dy":"13","visit":"DAY 14","visitnum":"4.0","epoch":"FOLLOW-UP","spec":null,"method":null},{"seq":"22","testcd":"ALT","test":"Alanine Aminotransferase","cat":"CHEMISTRY","orres":"54.98","orresu":"U/L","stresc":"54.98","stresn":"54.98","stresu":"U/L","stnrlo":"7","stnrhi":"56","nrind":"NORMAL","fast":null,"dtc":"2024-05-22","dy":"28","visit":"DAY 28","visitnum":"5.0","epoch":"FOLLOW-UP","spec":null,"method":null},{"seq":"23","testcd":"AST","test":"Aspartate Aminotransferase","cat":"CHEMISTRY","orres":"27.73","orresu":"U/L","stresc":"27.73","stresn":"27.73","stresu":"U/L","stnrlo":"10","stnrhi":"40","nrind":"NORMAL","fast":null,"dtc":"2024-05-22","dy":"28","visit":"DAY 28","visitnum":"5.0","epoch":"FOLLOW-UP","spec":null,"method":null},{"seq":"24","testcd":"CREAT","test":"Creatinine","cat":"CHEMISTRY","orres":"124.15","orresu":"umol/L","stresc":"124.15","stresn":"124.15","stresu":"umol/L","stnrlo":"62","stnrhi":"106","nrind":"HIGH","fast":null,"dtc":"2024-05-22","dy":"28","visit":"DAY 28","visitnum":"5.0","epoch":"FOLLOW-UP","spec":null,"method":null},{"seq":"25","testcd":"GLUC","test":"Glucose","cat":"CHEMISTRY","orres":"4.2","orresu":"mmol/L","stresc":"4.2","stresn":"4.2","stresu":"mmol/L","stnrlo":"3.9","stnrhi":"5.6","nrind":"NORMAL","fast":null,"dtc":"2024-05-22","dy":"28","visit":"DAY 28","visitnum":"5.0","epoch":"FOLLOW-UP","spec":null,"method":null},{"seq":"26","testcd":"HGB","test":"Hemoglobin","cat":"HEMATOLOGY","orres":"126.33","orresu":"g/L","stresc":"126.33","stresn":"126.33","stresu":"g/L","stnrlo":"130","stnrhi":"175","nrind":"LOW","fast":null,"dtc":"2024-05-22","dy":"28","visit":"DAY 28","visitnum":"5.0","epoch":"FOLLOW-UP","spec":null,"method":null},{"seq":"27","testcd":"PLAT","test":"Platelets","cat":"HEMATOLOGY","orres":"292.98","orresu":"10^9/L","stresc":"292.98","stresn":"292.98","stresu":"10^9/L","stnrlo":"150","stnrhi":"400","nrind":"NORMAL","fast":null,"dtc":"2024-05-22","dy":"28","visit":"DAY 28","visitnum":"5.0","epoch":"FOLLOW-UP","spec":null,"method":null},{"seq":"28","testcd":"WBC","test":"Leukocytes","cat":"HEMATOLOGY","orres":"7.66","orresu":"10^9/L","stresc":"7.66","stresn":"7.66","stresu":"10^9/L","stnrlo":"4.0","stnrhi":"11.0","nrind":"NORMAL","fast":null,"dtc":"2024-05-22","dy":"28","visit":"DAY 28","visitnum":"5.0","epoch":"FOLLOW-UP","spec":null,"method":null}]},"section_9_vital_signs":{"summary":{"total_records":32},"trends":{"BMI":[{"visit":"BASELINE","visitnum":"1.0","dtc":"2024-04-25","value":"26.6","unit":"kg/m2"},{"visit":"DAY 3","visitnum":"2.0","dtc":"2024-04-27","value":"27.3","unit":"kg/m2"},{"visit":"DAY 5","visitnum":"3.0","dtc":"2024-04-29","value":"27.3","unit":"kg/m2"},{"visit":"DAY 28","visitnum":"5.0","dtc":"2024-05-22","value":"26.3","unit":"kg/m2"}],"DIABP":[{"visit":"BASELINE","visitnum":"1.0","dtc":"2024-04-25","value":"77.7","unit":"mmHg"},{"visit":"DAY 3","visitnum":"2.0","dtc":"2024-04-27","value":"79.9","unit":"mmHg"},{"visit":"DAY 5","visitnum":"3.0","dtc":"2024-04-29","value":"78.6","unit":"mmHg"},{"visit":"DAY 28","visitnum":"5.0","dtc":"2024-05-22","value":"78.7","unit":"mmHg"}],"HEIGHT":[{"visit":"BASELINE","visitnum":"1.0","dtc":"2024-04-25","value":"146.7","unit":"cm"},{"visit":"DAY 3","visitnum":"2.0","dtc":"2024-04-27","value":"146.7","unit":"cm"},{"visit":"DAY 5","visitnum":"3.0","dtc":"2024-04-29","value":"146.2","unit":"cm"},{"visit":"DAY 28","visitnum":"5.0","dtc":"2024-05-22","value":"146.8","unit":"cm"}],"PULSE":[{"visit":"DAY 3","visitnum":"2.0","dtc":"2024-04-27","value":"69.1","unit":"beats/min"},{"visit":"DAY 5","visitnum":"3.0","dtc":"2024-04-29","value":"70.0","unit":"beats/min"},{"visit":"DAY 28","visitnum":"5.0","dtc":"2024-05-22","value":"65.2","unit":"beats/min"}],"RESP":[{"visit":"BASELINE","visitnum":"1.0","dtc":"2024-04-25","value":"22.8","unit":"breaths/min"},{"visit":"DAY 3","visitnum":"2.0","dtc":"2024-04-27","value":"23.8","unit":"breaths/min"},{"visit":"DAY 5","visitnum":"3.0","dtc":"2024-04-29","value":"22.9","unit":"breaths/min"},{"visit":"DAY 28","visitnum":"5.0","dtc":"2024-05-22","value":"24.9","unit":"breaths/min"}],"SYSBP":[{"visit":"BASELINE","visitnum":"1.0","dtc":"2024-04-25","value":"126.7","unit":"mmHg"},{"visit":"DAY 3","visitnum":"2.0","dtc":"2024-04-27","value":"131.3","unit":"mmHg"},{"visit":"DAY 5","visitnum":"3.0","dtc":"2024-04-29","value":"128.8","unit":"mmHg"},{"visit":"DAY 28","visitnum":"5.0","dtc":"2024-05-22","value":"128.8","unit":"mmHg"}],"TEMP":[{"visit":"BASELINE","visitnum":"1.0","dtc":"2024-04-25","value":"37.7","unit":"C"},{"visit":"DAY 3","visitnum":"2.0","dtc":"2024-04-27","value":"37.7","unit":"C"},{"visit":"DAY 5","visitnum":"3.0","dtc":"2024-04-29","value":"37.6","unit":"C"},{"visit":"DAY 28","visitnum":"5.0","dtc":"2024-05-22","value":"37.4","unit":"C"}],"WEIGHT":[{"visit":"BASELINE","visitnum":"1.0","dtc":"2024-04-25","value":"57.2","unit":"kg"},{"visit":"DAY 3","visitnum":"2.0","dtc":"2024-04-27","value":"58.8","unit":"kg"},{"visit":"DAY 5","visitnum":"3.0","dtc":"2024-04-29","value":"58.4","unit":"kg"},{"visit":"DAY 28","visitnum":"5.0","dtc":"2024-05-22","value":"56.7","unit":"kg"}]},"results":[{"seq":"1","testcd":"BMI","test":"BMI","cat":null,"orres":"26.6","orresu":"kg/m2","stresc":"26.6","stresn":"26.6","stresu":"kg/m2","stnrlo":null,"stnrhi":null,"nrind":null,"pos":null,"loc":null,"dtc":"2024-04-25","dy":"1","visit":"BASELINE","visitnum":"1.0","epoch":"TREATMENT"},{"seq":"2","testcd":"DIABP","test":"Diastolic Blood Pressure","cat":null,"orres":"77.7","orresu":"mmHg","stresc":"77.7","stresn":"77.7","stresu":"mmHg","stnrlo":null,"stnrhi":null,"nrind":null,"pos":null,"loc":null,"dtc":"2024-04-25","dy":"1","visit":"BASELINE","visitnum":"1.0","epoch":"TREATMENT"},{"seq":"3","testcd":"HEIGHT","test":"Height","cat":null,"orres":"146.7","orresu":"cm","stresc":"146.7","stresn":"146.7","stresu":"cm","stnrlo":null,"stnrhi":null,"nrind":null,"pos":null,"loc":null,"dtc":"2024-04-25","dy":"1","visit":"BASELINE","visitnum":"1.0","epoch":"TREATMENT"},{"seq":"4","testcd":"PULSE","test":"Pulse Rate","cat":null,"orres":null,"orresu":null,"stresc":null,"stresn":null,"stresu":null,"stnrlo":null,"stnrhi":null,"nrind":null,"pos":null,"loc":null,"dtc":"2024-04-25","dy":"1","visit":"BASELINE","visitnum":"1.0","epoch":"TREATMENT"},{"seq":"5","testcd":"RESP","test":"Respiratory Rate","cat":null,"orres":"22.8","orresu":"breaths/min","stresc":"22.8","stresn":"22.8","stresu":"breaths/min","stnrlo":null,"stnrhi":null,"nrind":null,"pos":null,"loc":null,"dtc":"2024-04-25","dy":"1","visit":"BASELINE","visitnum":"1.0","epoch":"TREATMENT"},{"seq":"6","testcd":"SYSBP","test":"Systolic Blood Pressure","cat":null,"orres":"126.7","orresu":"mmHg","stresc":"126.7","stresn":"126.7","stresu":"mmHg","stnrlo":null,"stnrhi":null,"nrind":null,"pos":null,"loc":null,"dtc":"2024-04-25","dy":"1","visit":"BASELINE","visitnum":"1.0","epoch":"TREATMENT"},{"seq":"7","testcd":"TEMP","test":"Temperature","cat":null,"orres":"37.7","orresu":"C","stresc":"37.7","stresn":"37.7","stresu":"C","stnrlo":null,"stnrhi":null,"nrind":null,"pos":null,"loc":null,"dtc":"2024-04-25","dy":"1","visit":"BASELINE","visitnum":"1.0","epoch":"TREATMENT"},{"seq":"8","testcd":"WEIGHT","test":"Weight","cat":null,"orres":"57.2","orresu":"kg","stresc":"57.2","stresn":"57.2","stresu":"kg","stnrlo":null,"stnrhi":null,"nrind":null,"pos":null,"loc":null,"dtc":"2024-04-25","dy":"1","visit":"BASELINE","visitnum":"1.0","epoch":"TREATMENT"},{"seq":"9","testcd":"BMI","test":"BMI","cat":null,"orres":"27.3","orresu":"kg/m2","stresc":"27.3","stresn":"27.3","stresu":"kg/m2","stnrlo":null,"stnrhi":null,"nrind":null,"pos":null,"loc":null,"dtc":"2024-04-27","dy":"3","visit":"DAY 3","visitnum":"2.0","epoch":"TREATMENT"},{"seq":"10","testcd":"DIABP","test":"Diastolic Blood Pressure","cat":null,"orres":"79.9","orresu":"mmHg","stresc":"79.9","stresn":"79.9","stresu":"mmHg","stnrlo":null,"stnrhi":null,"nrind":null,"pos":null,"loc":null,"dtc":"2024-04-27","dy":"3","visit":"DAY 3","visitnum":"2.0","epoch":"TREATMENT"},{"seq":"11","testcd":"HEIGHT","test":"Height","cat":null,"orres":"146.7","orresu":"cm","stresc":"146.7","stresn":"146.7","stresu":"cm","stnrlo":null,"stnrhi":null,"nrind":null,"pos":null,"loc":null,"dtc":"2024-04-27","dy":"3","visit":"DAY 3","visitnum":"2.0","epoch":"TREATMENT"},{"seq":"12","testcd":"PULSE","test":"Pulse Rate","cat":null,"orres":"69.1","orresu":"beats/min","stresc":"69.1","stresn":"69.1","stresu":"beats/min","stnrlo":null,"stnrhi":null,"nrind":null,"pos":null,"loc":null,"dtc":"2024-04-27","dy":"3","visit":"DAY 3","visitnum":"2.0","epoch":"TREATMENT"},{"seq":"13","testcd":"RESP","test":"Respiratory Rate","cat":null,"orres":"23.8","orresu":"breaths/min","stresc":"23.8","stresn":"23.8","stresu":"breaths/min","stnrlo":null,"stnrhi":null,"nrind":null,"pos":null,"loc":null,"dtc":"2024-04-27","dy":"3","visit":"DAY 3","visitnum":"2.0","epoch":"TREATMENT"},{"seq":"14","testcd":"SYSBP","test":"Systolic Blood Pressure","cat":null,"orres":"131.3","orresu":"mmHg","stresc":"131.3","stresn":"131.3","stresu":"mmHg","stnrlo":null,"stnrhi":null,"nrind":null,"pos":null,"loc":null,"dtc":"2024-04-27","dy":"3","visit":"DAY 3","visitnum":"2.0","epoch":"TREATMENT"},{"seq":"15","testcd":"TEMP","test":"Temperature","cat":null,"orres":"37.7","orresu":"C","stresc":"37.7","stresn":"37.7","stresu":"C","stnrlo":null,"stnrhi":null,"nrind":null,"pos":null,"loc":null,"dtc":"2024-04-27","dy":"3","visit":"DAY 3","visitnum":"2.0","epoch":"TREATMENT"},{"seq":"16","testcd":"WEIGHT","test":"Weight","cat":null,"orres":"58.8","orresu":"kg","stresc":"58.8","stresn":"58.8","stresu":"kg","stnrlo":null,"stnrhi":null,"nrind":null,"pos":null,"loc":null,"dtc":"2024-04-27","dy":"3","visit":"DAY 3","visitnum":"2.0","epoch":"TREATMENT"},{"seq":"17","testcd":"BMI","test":"BMI","cat":null,"orres":"27.3","orresu":"kg/m2","stresc":"27.3","stresn":"27.3","stresu":"kg/m2","stnrlo":null,"stnrhi":null,"nrind":null,"pos":null,"loc":null,"dtc":"2024-04-29","dy":"5","visit":"DAY 5","visitnum":"3.0","epoch":"TREATMENT"},{"seq":"18","testcd":"DIABP","test":"Diastolic Blood Pressure","cat":null,"orres":"78.6","orresu":"mmHg","stresc":"78.6","stresn":"78.6","stresu":"mmHg","stnrlo":null,"stnrhi":null,"nrind":null,"pos":null,"loc":null,"dtc":"2024-04-29","dy":"5","visit":"DAY 5","visitnum":"3.0","epoch":"TREATMENT"},{"seq":"19","testcd":"HEIGHT","test":"Height","cat":null,"orres":"146.2","orresu":"cm","stresc":"146.2","stresn":"146.2","stresu":"cm","stnrlo":null,"stnrhi":null,"nrind":null,"pos":null,"loc":null,"dtc":"2024-04-29","dy":"5","visit":"DAY 5","visitnum":"3.0","epoch":"TREATMENT"},{"seq":"20","testcd":"PULSE","test":"Pulse Rate","cat":null,"orres":"70.0","orresu":"beats/min","stresc":"70.0","stresn":"70.0","stresu":"beats/min","stnrlo":null,"stnrhi":null,"nrind":null,"pos":null,"loc":null,"dtc":"2024-04-29","dy":"5","visit":"DAY 5","visitnum":"3.0","epoch":"TREATMENT"},{"seq":"21","testcd":"RESP","test":"Respiratory Rate","cat":null,"orres":"22.9","orresu":"breaths/min","stresc":"22.9","stresn":"22.9","stresu":"breaths/min","stnrlo":null,"stnrhi":null,"nrind":null,"pos":null,"loc":null,"dtc":"2024-04-29","dy":"5","visit":"DAY 5","visitnum":"3.0","epoch":"TREATMENT"},{"seq":"22","testcd":"SYSBP","test":"Systolic Blood Pressure","cat":null,"orres":"128.8","orresu":"mmHg","stresc":"128.8","stresn":"128.8","stresu":"mmHg","stnrlo":null,"stnrhi":null,"nrind":null,"pos":null,"loc":null,"dtc":"2024-04-29","dy":"5","visit":"DAY 5","visitnum":"3.0","epoch":"TREATMENT"},{"seq":"23","testcd":"TEMP","test":"Temperature","cat":null,"orres":"37.6","orresu":"C","stresc":"37.6","stresn":"37.6","stresu":"C","stnrlo":null,"stnrhi":null,"nrind":null,"pos":null,"loc":null,"dtc":"2024-04-29","dy":"5","visit":"DAY 5","visitnum":"3.0","epoch":"TREATMENT"},{"seq":"24","testcd":"WEIGHT","test":"Weight","cat":null,"orres":"58.4","orresu":"kg","stresc":"58.4","stresn":"58.4","stresu":"kg","stnrlo":null,"stnrhi":null,"nrind":null,"pos":null,"loc":null,"dtc":"2024-04-29","dy":"5","visit":"DAY 5","visitnum":"3.0","epoch":"TREATMENT"},{"seq":"25","testcd":"BMI","test":"BMI","cat":null,"orres":"26.3","orresu":"kg/m2","stresc":"26.3","stresn":"26.3","stresu":"kg/m2","stnrlo":null,"stnrhi":null,"nrind":null,"pos":null,"loc":null,"dtc":"2024-05-22","dy":"28","visit":"DAY 28","visitnum":"5.0","epoch":"FOLLOW-UP"},{"seq":"26","testcd":"DIABP","test":"Diastolic Blood Pressure","cat":null,"orres":"78.7","orresu":"mmHg","stresc":"78.7","stresn":"78.7","stresu":"mmHg","stnrlo":null,"stnrhi":null,"nrind":null,"pos":null,"loc":null,"dtc":"2024-05-22","dy":"28","visit":"DAY 28","visitnum":"5.0","epoch":"FOLLOW-UP"},{"seq":"27","testcd":"HEIGHT","test":"Height","cat":null,"orres":"146.8","orresu":"cm","stresc":"146.8","stresn":"146.8","stresu":"cm","stnrlo":null,"stnrhi":null,"nrind":null,"pos":null,"loc":null,"dtc":"2024-05-22","dy":"28","visit":"DAY 28","visitnum":"5.0","epoch":"FOLLOW-UP"},{"seq":"28","testcd":"PULSE","test":"Pulse Rate","cat":null,"orres":"65.2","orresu":"beats/min","stresc":"65.2","stresn":"65.2","stresu":"beats/min","stnrlo":null,"stnrhi":null,"nrind":null,"pos":null,"loc":null,"dtc":"2024-05-22","dy":"28","visit":"DAY 28","visitnum":"5.0","epoch":"FOLLOW-UP"},{"seq":"29","testcd":"RESP","test":"Respiratory Rate","cat":null,"orres":"24.9","orresu":"breaths/min","stresc":"24.9","stresn":"24.9","stresu":"breaths/min","stnrlo":null,"stnrhi":null,"nrind":null,"pos":null,"loc":null,"dtc":"2024-05-22","dy":"28","visit":"DAY 28","visitnum":"5.0","epoch":"FOLLOW-UP"},{"seq":"30","testcd":"SYSBP","test":"Systolic Blood Pressure","cat":null,"orres":"128.8","orresu":"mmHg","stresc":"128.8","stresn":"128.8","stresu":"mmHg","stnrlo":null,"stnrhi":null,"nrind":null,"pos":null,"loc":null,"dtc":"2024-05-22","dy":"28","visit":"DAY 28","visitnum":"5.0","epoch":"FOLLOW-UP"},{"seq":"31","testcd":"TEMP","test":"Temperature","cat":null,"orres":"37.4","orresu":"C","stresc":"37.4","stresn":"37.4","stresu":"C","stnrlo":null,"stnrhi":null,"nrind":null,"pos":null,"loc":null,"dtc":"2024-05-22","dy":"28","visit":"DAY 28","visitnum":"5.0","epoch":"FOLLOW-UP"},{"seq":"32","testcd":"WEIGHT","test":"Weight","cat":null,"orres":"56.7","orresu":"kg","stresc":"56.7","stresn":"56.7","stresu":"kg","stnrlo":null,"stnrhi":null,"nrind":null,"pos":null,"loc":null,"dtc":"2024-05-22","dy":"28","visit":"DAY 28","visitnum":"5.0","epoch":"FOLLOW-UP"}]},"section_10_questionnaires_and_scores":{"questionnaires":[],"findings_about":[]},"section_11_protocol_deviations":{"deviations":[],"total":0},"section_12_disposition":{"completion_status":"COMPLETED","disposition_records":[{"seq":"1","term":"INFORMED CONSENT OBTAINED","decod":"INFORMED CONSENT OBTAINED","cat":"PROTOCOL MILESTONE","scat":null,"dtc":"2024-04-05","dy":null,"visit":null,"epoch":"SCREENING"},{"seq":"2","term":"RANDOMIZED","decod":"RANDOMIZED","cat":"PROTOCOL MILESTONE","scat":null,"dtc":"2024-04-25","dy":null,"visit":null,"epoch":"TREATMENT"},{"seq":"3","term":"COMPLETED","decod":"COMPLETED","cat":"DISPOSITION EVENT","scat":null,"dtc":"2024-05-23","dy":null,"visit":null,"epoch":"FOLLOW-UP"}],"death":null},"section_13_hospitalizations":{"items":[],"total":0},"section_14_substance_use":{"items":[{"seq":"1","substance":"ALCOHOL","decod":"ALCOHOL","cat":"ALCOHOL","scat":null,"usage":"Y","dose":null,"dosu":null,"freq":null,"start_dtc":"2004-04-10","end_dtc":"2011-04-09"},{"seq":"2","substance":"COFFEE","decod":"COFFEE","cat":"CAFFEINE","scat":null,"usage":"Y","dose":"5.0","dosu":"CUPS/DAY","freq":"QD","start_dtc":"2018-04-07","end_dtc":null},{"seq":"3","substance":"CIGARETTES","decod":"CIGARETTES","cat":"TOBACCO","scat":"CIGARETTES","usage":"Y","dose":null,"dosu":null,"freq":null,"start_dtc":"2001-04-11","end_dtc":"2014-04-08"}],"total":3},"section_15_subject_status":{"items":[{"seq":"1","testcd":"SURVSTAT","test":"Survival Status","orres":"ALIVE","stresc":"ALIVE","dtc":"2024-05-08","visit":"DAY 14","epoch":"FOLLOW-UP"},{"seq":"2","testcd":"SURVSTAT","test":"Survival Status","orres":"ALIVE","stresc":"ALIVE","dtc":"2024-05-22","visit":"DAY 28","epoch":"FOLLOW-UP"}],"total":2}}