{"subject_id":"COVID-THER-301-SITE003-0144","study_id":"COVID-THER-301","generated_at":"2026-06-12T05:15:56.350774+00:00","sdtmig_version":"3.4","flags":{"has_serious_ae":false,"has_fatal_ae":false,"has_protocol_deviation":true,"n_protocol_deviations":1,"n_adverse_events":0,"n_concomitant_meds":2,"max_ae_severity":null,"screen_failure":false,"discontinued_early":false,"discontinuation_reason":null,"death":false,"exposure_days":2},"timeline":[{"dtc":"2022-04-13","dy":"-747","event":"CM START: METFORMIN","domain":"CM","category":"concomitant_med"},{"dtc":"2024-04-12","dy":"-17","event":"INFORMED CONSENT OBTAINED","domain":"DS","category":"milestone"},{"dtc":"2024-04-29","dy":"1","event":"RANDOMIZED","domain":"DS","category":"milestone"},{"dtc":"2024-04-29","dy":"1","event":"FIRST DOSE: ANTIVIRAL","domain":"EX","category":"exposure"},{"dtc":"2024-04-29","dy":"1","event":"VISIT: BASELINE","domain":"SV","category":"visit"},{"dtc":"2024-05-02","dy":"4","event":"VISIT: DAY 3","domain":"SV","category":"visit"},{"dtc":"2024-05-02","dy":"4","event":"CM START: METFORMIN","domain":"CM","category":"concomitant_med"},{"dtc":"2024-05-04","dy":"6","event":"VISIT: DAY 5","domain":"SV","category":"visit"},{"dtc":"2024-05-11","dy":"13","event":"DEVIATION: VISIT OCCURRED OUTSIDE VISIT WINDOW","domain":"DV","category":"deviation"},{"dtc":"2024-05-11","dy":"13","event":"VISIT: DAY 14","domain":"SV","category":"visit"},{"dtc":"2024-05-23","dy":"25","event":"VISIT: DAY 28","domain":"SV","category":"visit"},{"dtc":"2024-05-27","dy":"29","event":"COMPLETED","domain":"DS","category":"milestone"}],"section_1_demographics":{"usubjid":"COVID-THER-301-SITE003-0144","subjid":"0144","siteid":"SITE003","age":"44","ageu":"YEARS","sex":"F","race":"WHITE","ethnicity":"UNKNOWN","country":"USA","arm":"Antiviral 200mg BID","armcd":"AV200","actarm":"Antiviral 200mg BID","actarmcd":"AV200","randomization_date":null,"informed_consent_date":"2024-04-12","reference_start_date":"2024-04-29","reference_end_date":"2024-05-27","screen_failure":false,"death_flag":null,"death_date":null,"subject_characteristics":[{"testcd":"ALCUSE","test":"Alcohol Use","orres":"CURRENT DRINKER","stresc":"CURRENT DRINKER","visit":null,"dtc":"2024-04-12"},{"testcd":"BMI","test":"Body Mass Index","orres":"31.1","stresc":"31.1","visit":null,"dtc":"2024-04-12"},{"testcd":"DURDIS","test":"Duration of Disease","orres":"121 months","stresc":"121","visit":null,"dtc":"2024-04-12"},{"testcd":"TOBPKYR","test":"Tobacco Pack-Years","orres":"33","stresc":"33","visit":null,"dtc":"2024-04-12"},{"testcd":"TOBUSE","test":"Tobacco Use","orres":"FORMER SMOKER","stresc":"FORMER SMOKER","visit":null,"dtc":"2024-04-12"}]},"section_2_medical_history":{"items":[{"seq":"1","term":"DIABETES MELLITUS TYPE 2","decod":"DIABETES MELLITUS TYPE 2","cat":"ENDOCRINE","scat":null,"presp":null,"occur":null,"status":null,"onset_dtc":"2022-04-13","end_dtc":null,"visit":null},{"seq":"2","term":"HYPERLIPIDEMIA","decod":"HYPERLIPIDEMIA","cat":"METABOLIC","scat":null,"presp":null,"occur":null,"status":null,"onset_dtc":"2014-04","end_dtc":"2021-01-24","visit":null},{"seq":"3","term":"HYPERTENSION","decod":"HYPERTENSION","cat":"CARDIOVASCULAR","scat":null,"presp":null,"occur":null,"status":null,"onset_dtc":"2018-04","end_dtc":"2022-07-10","visit":null}]},"section_3_inclusion_exclusion":{"criteria":[]},"section_4_trial_participation":{"visits":[{"visitnum":"1.0","visit":"BASELINE","start_dtc":"2024-04-29","end_dtc":"2024-04-29","updes":null},{"visitnum":"2.0","visit":"DAY 3","start_dtc":"2024-05-02","end_dtc":"2024-05-02","updes":null},{"visitnum":"3.0","visit":"DAY 5","start_dtc":"2024-05-04","end_dtc":"2024-05-04","updes":null},{"visitnum":"4.0","visit":"DAY 14","start_dtc":"2024-05-11","end_dtc":"2024-05-11","updes":null},{"visitnum":"5.0","visit":"DAY 28","start_dtc":"2024-05-23","end_dtc":"2024-05-23","updes":null}],"epochs":[{"seq":"1","etcd":"SCRN","element":"Screening","start_dtc":"2024-04-28","end_dtc":"2024-04-29","updes":null},{"seq":"2","etcd":"TRT","element":"Treatment","start_dtc":"2024-04-29","end_dtc":"2024-05-04","updes":null},{"seq":"3","etcd":"FU","element":"Follow-up","start_dtc":"2024-05-04","end_dtc":"2024-05-26","updes":null}],"visit_count":5},"section_5_concomitant_medications":{"medications":[{"seq":"1","trt":"METFORMIN","decod":"METFORMIN","cat":"PRIOR","dose":"500","doseu":null,"dosef":"BID","route":"ORAL","indication":"DIABETES MELLITUS TYPE 2","start_dtc":"2022-04-13","end_dtc":"2024-05-27","ongoing":null,"visit":null},{"seq":"2","trt":"METFORMIN","decod":"METFORMIN","cat":"CONCOMITANT","dose":null,"doseu":null,"dosef":"BID","route":"ORAL","indication":null,"start_dtc":"2024-05-02","end_dtc":"2024-05-27","ongoing":null,"visit":null}]},"section_6_exposure":{"exposure_as_administered":[{"seq":"1","trt":"ANTIVIRAL","dose":"200.0","doseu":null,"dosef":"BID","route":"ORAL","lot":null,"start_dtc":"2024-04-29","end_dtc":"2024-05-01","start_dy":"1","end_dy":"3","epoch":"TREATMENT","visit":null}],"exposure_as_collected":[{"seq":"1","trt":"ANTIVIRAL","dose":"200.0","doseu":null,"dosef":"BID","route":"ORAL","start_dtc":"2024-04-29","end_dtc":"2024-04-29","visit":"BASELINE"},{"seq":"2","trt":"ANTIVIRAL","dose":"200.0","doseu":null,"dosef":"BID","route":"ORAL","start_dtc":"2024-04-29","end_dtc":"2024-04-29","visit":"BASELINE"},{"seq":"3","trt":"ANTIVIRAL","dose":"200.0","doseu":null,"dosef":"BID","route":"ORAL","start_dtc":"2024-04-30","end_dtc":"2024-04-30","visit":"BASELINE"},{"seq":"4","trt":"ANTIVIRAL","dose":"200.0","doseu":null,"dosef":"BID","route":"ORAL","start_dtc":"2024-04-30","end_dtc":"2024-04-30","visit":"BASELINE"},{"seq":"5","trt":"ANTIVIRAL","dose":"200.0","doseu":null,"dosef":"BID","route":"ORAL","start_dtc":"2024-05-01","end_dtc":"2024-05-01","visit":"BASELINE"},{"seq":"6","trt":"ANTIVIRAL","dose":"200.0","doseu":null,"dosef":"BID","route":"ORAL","start_dtc":"2024-05-01","end_dtc":"2024-05-01","visit":"BASELINE"}]},"section_7_adverse_events":{"summary":{"total_aes":0,"serious_aes":0,"fatal_aes":0,"by_severity":{},"by_soc":{}},"events":[]},"section_8_laboratory_results":{"summary":{"total_records":21,"abnormal_count":5,"abnormal_pct":23.8},"shift_summary":[{"testcd":"ALT","baseline_value":9.47,"baseline_nrind":"NORMAL","worst_post_baseline_value":12.18,"worst_post_baseline_nrind":"NORMAL","worst_visit":"DAY 5"},{"testcd":"AST","baseline_value":32.02,"baseline_nrind":"NORMAL","worst_post_baseline_value":32.74,"worst_post_baseline_nrind":"NORMAL","worst_visit":"DAY 5"},{"testcd":"CREAT","baseline_value":33.44,"baseline_nrind":"LOW","worst_post_baseline_value":35.92,"worst_post_baseline_nrind":"LOW","worst_visit":"DAY 5"},{"testcd":"GLUC","baseline_value":7.04,"baseline_nrind":"HIGH","worst_post_baseline_value":7.04,"worst_post_baseline_nrind":"HIGH","worst_visit":"DAY 5"},{"testcd":"HGB","baseline_value":139.83,"baseline_nrind":"NORMAL","worst_post_baseline_value":140.89,"worst_post_baseline_nrind":"NORMAL","worst_visit":"DAY 5"},{"testcd":"PLAT","baseline_value":154.06,"baseline_nrind":"NORMAL","worst_post_baseline_value":163.97,"worst_post_baseline_nrind":"NORMAL","worst_visit":"DAY 3"},{"testcd":"WBC","baseline_value":9.24,"baseline_nrind":"NORMAL","worst_post_baseline_value":8.93,"worst_post_baseline_nrind":"NORMAL","worst_visit":"DAY 3"}],"results":[{"seq":"1","testcd":"ALT","test":"Alanine Aminotransferase","cat":"CHEMISTRY","orres":"9.47","orresu":"U/L","stresc":"9.47","stresn":"9.47","stresu":"U/L","stnrlo":"7","stnrhi":"56","nrind":"NORMAL","fast":null,"dtc":"2024-04-29","dy":"1","visit":"BASELINE","visitnum":"1.0","epoch":"TREATMENT","spec":null,"method":null},{"seq":"2","testcd":"AST","test":"Aspartate Aminotransferase","cat":"CHEMISTRY","orres":"32.02","orresu":"U/L","stresc":"32.02","stresn":"32.02","stresu":"U/L","stnrlo":"10","stnrhi":"40","nrind":"NORMAL","fast":null,"dtc":"2024-04-29","dy":"1","visit":"BASELINE","visitnum":"1.0","epoch":"TREATMENT","spec":null,"method":null},{"seq":"3","testcd":"CREAT","test":"Creatinine","cat":"CHEMISTRY","orres":"33.44","orresu":"umol/L","stresc":"33.44","stresn":"33.44","stresu":"umol/L","stnrlo":"44","stnrhi":"80","nrind":"LOW","fast":null,"dtc":"2024-04-29","dy":"1","visit":"BASELINE","visitnum":"1.0","epoch":"TREATMENT","spec":null,"method":null},{"seq":"4","testcd":"GLUC","test":"Glucose","cat":"CHEMISTRY","orres":"7.04","orresu":"mmol/L","stresc":"7.04","stresn":"7.04","stresu":"mmol/L","stnrlo":"3.9","stnrhi":"5.6","nrind":"HIGH","fast":null,"dtc":"2024-04-29","dy":"1","visit":"BASELINE","visitnum":"1.0","epoch":"TREATMENT","spec":null,"method":null},{"seq":"5","testcd":"HGB","test":"Hemoglobin","cat":"HEMATOLOGY","orres":"139.83","orresu":"g/L","stresc":"139.83","stresn":"139.83","stresu":"g/L","stnrlo":"120","stnrhi":"155","nrind":"NORMAL","fast":null,"dtc":"2024-04-29","dy":"1","visit":"BASELINE","visitnum":"1.0","epoch":"TREATMENT","spec":null,"method":null},{"seq":"6","testcd":"PLAT","test":"Platelets","cat":"HEMATOLOGY","orres":"154.06","orresu":"10^9/L","stresc":"154.06","stresn":"154.06","stresu":"10^9/L","stnrlo":"150","stnrhi":"400","nrind":"NORMAL","fast":null,"dtc":"2024-04-29","dy":"1","visit":"BASELINE","visitnum":"1.0","epoch":"TREATMENT","spec":null,"method":null},{"seq":"7","testcd":"WBC","test":"Leukocytes","cat":"HEMATOLOGY","orres":"9.24","orresu":"10^9/L","stresc":"9.24","stresn":"9.24","stresu":"10^9/L","stnrlo":"4.0","stnrhi":"11.0","nrind":"NORMAL","fast":null,"dtc":"2024-04-29","dy":"1","visit":"BASELINE","visitnum":"1.0","epoch":"TREATMENT","spec":null,"method":null},{"seq":"8","testcd":"ALT","test":"Alanine Aminotransferase","cat":"CHEMISTRY","orres":"7.79","orresu":"U/L","stresc":"7.79","stresn":"7.79","stresu":"U/L","stnrlo":"7","stnrhi":"56","nrind":"NORMAL","fast":null,"dtc":"2024-05-02","dy":"4","visit":"DAY 3","visitnum":"2.0","epoch":"TREATMENT","spec":null,"method":null},{"seq":"9","testcd":"AST","test":"Aspartate Aminotransferase","cat":"CHEMISTRY","orres":"30.53","orresu":"U/L","stresc":"30.53","stresn":"30.53","stresu":"U/L","stnrlo":"10","stnrhi":"40","nrind":"NORMAL","fast":null,"dtc":"2024-05-02","dy":"4","visit":"DAY 3","visitnum":"2.0","epoch":"TREATMENT","spec":null,"method":null},{"seq":"10","testcd":"CREAT","test":"Creatinine","cat":"CHEMISTRY","orres":"32.17","orresu":"umol/L","stresc":"32.17","stresn":"32.17","stresu":"umol/L","stnrlo":"44","stnrhi":"80","nrind":"LOW","fast":null,"dtc":"2024-05-02","dy":"4","visit":"DAY 3","visitnum":"2.0","epoch":"TREATMENT","spec":null,"method":null},{"seq":"11","testcd":"GLUC","test":"Glucose","cat":"CHEMISTRY","orres":null,"orresu":null,"stresc":null,"stresn":null,"stresu":null,"stnrlo":null,"stnrhi":null,"nrind":null,"fast":null,"dtc":"2024-05-02","dy":"4","visit":"DAY 3","visitnum":"2.0","epoch":"TREATMENT","spec":null,"method":null},{"seq":"12","testcd":"HGB","test":"Hemoglobin","cat":"HEMATOLOGY","orres":null,"orresu":null,"stresc":null,"stresn":null,"stresu":null,"stnrlo":null,"stnrhi":null,"nrind":null,"fast":null,"dtc":"2024-05-02","dy":"4","visit":"DAY 3","visitnum":"2.0","epoch":"TREATMENT","spec":null,"method":null},{"seq":"13","testcd":"PLAT","test":"Platelets","cat":"HEMATOLOGY","orres":"163.97","orresu":"10^9/L","stresc":"163.97","stresn":"163.97","stresu":"10^9/L","stnrlo":"150","stnrhi":"400","nrind":"NORMAL","fast":null,"dtc":"2024-05-02","dy":"4","visit":"DAY 3","visitnum":"2.0","epoch":"TREATMENT","spec":null,"method":null},{"seq":"14","testcd":"WBC","test":"Leukocytes","cat":"HEMATOLOGY","orres":"8.93","orresu":"10^9/L","stresc":"8.93","stresn":"8.93","stresu":"10^9/L","stnrlo":"4.0","stnrhi":"11.0","nrind":"NORMAL","fast":null,"dtc":"2024-05-02","dy":"4","visit":"DAY 3","visitnum":"2.0","epoch":"TREATMENT","spec":null,"method":null},{"seq":"15","testcd":"ALT","test":"Alanine Aminotransferase","cat":"CHEMISTRY","orres":"12.18","orresu":"U/L","stresc":"12.18","stresn":"12.18","stresu":"U/L","stnrlo":"7","stnrhi":"56","nrind":"NORMAL","fast":null,"dtc":"2024-05-04","dy":"6","visit":"DAY 5","visitnum":"3.0","epoch":"TREATMENT","spec":null,"method":null},{"seq":"16","testcd":"AST","test":"Aspartate Aminotransferase","cat":"CHEMISTRY","orres":"32.74","orresu":"U/L","stresc":"32.74","stresn":"32.74","stresu":"U/L","stnrlo":"10","stnrhi":"40","nrind":"NORMAL","fast":null,"dtc":"2024-05-04","dy":"6","visit":"DAY 5","visitnum":"3.0","epoch":"TREATMENT","spec":null,"method":null},{"seq":"17","testcd":"CREAT","test":"Creatinine","cat":"CHEMISTRY","orres":"35.92","orresu":"umol/L","stresc":"35.92","stresn":"35.92","stresu":"umol/L","stnrlo":"44","stnrhi":"80","nrind":"LOW","fast":null,"dtc":"2024-05-04","dy":"6","visit":"DAY 5","visitnum":"3.0","epoch":"TREATMENT","spec":null,"method":null},{"seq":"18","testcd":"GLUC","test":"Glucose","cat":"CHEMISTRY","orres":"7.04","orresu":"mmol/L","stresc":"7.04","stresn":"7.04","stresu":"mmol/L","stnrlo":"3.9","stnrhi":"5.6","nrind":"HIGH","fast":null,"dtc":"2024-05-04","dy":"6","visit":"DAY 5","visitnum":"3.0","epoch":"TREATMENT","spec":null,"method":null},{"seq":"19","testcd":"HGB","test":"Hemoglobin","cat":"HEMATOLOGY","orres":"140.89","orresu":"g/L","stresc":"140.89","stresn":"140.89","stresu":"g/L","stnrlo":"120","stnrhi":"155","nrind":"NORMAL","fast":null,"dtc":"2024-05-04","dy":"6","visit":"DAY 5","visitnum":"3.0","epoch":"TREATMENT","spec":null,"method":null},{"seq":"20","testcd":"PLAT","test":"Platelets","cat":"HEMATOLOGY","orres":"153.18","orresu":"10^9/L","stresc":"153.18","stresn":"153.18","stresu":"10^9/L","stnrlo":"150","stnrhi":"400","nrind":"NORMAL","fast":null,"dtc":"2024-05-04","dy":"6","visit":"DAY 5","visitnum":"3.0","epoch":"TREATMENT","spec":null,"method":null},{"seq":"21","testcd":"WBC","test":"Leukocytes","cat":"HEMATOLOGY","orres":null,"orresu":null,"stresc":null,"stresn":null,"stresu":null,"stnrlo":null,"stnrhi":null,"nrind":null,"fast":null,"dtc":"2024-05-04","dy":"6","visit":"DAY 5","visitnum":"3.0","epoch":"TREATMENT","spec":null,"method":null}]},"section_9_vital_signs":{"summary":{"total_records":40},"trends":{"BMI":[{"visit":"BASELINE","visitnum":"1.0","dtc":"2024-04-29","value":"31.1","unit":"kg/m2"},{"visit":"DAY 3","visitnum":"2.0","dtc":"2024-05-02","value":"31.4","unit":"kg/m2"},{"visit":"DAY 5","visitnum":"3.0","dtc":"2024-05-04","value":"32.3","unit":"kg/m2"},{"visit":"DAY 14","visitnum":"4.0","dtc":"2024-05-11","value":"32.7","unit":"kg/m2"},{"visit":"DAY 28","visitnum":"5.0","dtc":"2024-05-23","value":"32.8","unit":"kg/m2"}],"DIABP":[{"visit":"BASELINE","visitnum":"1.0","dtc":"2024-04-29","value":"68.4","unit":"mmHg"},{"visit":"DAY 3","visitnum":"2.0","dtc":"2024-05-02","value":"69.4","unit":"mmHg"},{"visit":"DAY 5","visitnum":"3.0","dtc":"2024-05-04","value":"67.6","unit":"mmHg"},{"visit":"DAY 14","visitnum":"4.0","dtc":"2024-05-11","value":"68.3","unit":"mmHg"},{"visit":"DAY 28","visitnum":"5.0","dtc":"2024-05-23","value":"66.3","unit":"mmHg"}],"HEIGHT":[{"visit":"BASELINE","visitnum":"1.0","dtc":"2024-04-29","value":"150.9","unit":"cm"},{"visit":"DAY 3","visitnum":"2.0","dtc":"2024-05-02","value":"151.0","unit":"cm"},{"visit":"DAY 5","visitnum":"3.0","dtc":"2024-05-04","value":"150.2","unit":"cm"},{"visit":"DAY 14","visitnum":"4.0","dtc":"2024-05-11","value":"150.9","unit":"cm"},{"visit":"DAY 28","visitnum":"5.0","dtc":"2024-05-23","value":"151.3","unit":"cm"}],"PULSE":[{"visit":"DAY 3","visitnum":"2.0","dtc":"2024-05-02","value":"87.0","unit":"beats/min"},{"visit":"DAY 5","visitnum":"3.0","dtc":"2024-05-04","value":"88.5","unit":"beats/min"},{"visit":"DAY 14","visitnum":"4.0","dtc":"2024-05-11","value":"86.5","unit":"beats/min"},{"visit":"DAY 28","visitnum":"5.0","dtc":"2024-05-23","value":"82.2","unit":"beats/min"}],"RESP":[{"visit":"BASELINE","visitnum":"1.0","dtc":"2024-04-29","value":"18.1","unit":"breaths/min"},{"visit":"DAY 3","visitnum":"2.0","dtc":"2024-05-02","value":"18.4","unit":"breaths/min"},{"visit":"DAY 5","visitnum":"3.0","dtc":"2024-05-04","value":"16.3","unit":"breaths/min"},{"visit":"DAY 14","visitnum":"4.0","dtc":"2024-05-11","value":"17.9","unit":"breaths/min"},{"visit":"DAY 28","visitnum":"5.0","dtc":"2024-05-23","value":"18.8","unit":"breaths/min"}],"SYSBP":[{"visit":"BASELINE","visitnum":"1.0","dtc":"2024-04-29","value":"124.6","unit":"mmHg"},{"visit":"DAY 3","visitnum":"2.0","dtc":"2024-05-02","value":"126.0","unit":"mmHg"},{"visit":"DAY 5","visitnum":"3.0","dtc":"2024-05-04","value":"124.2","unit":"mmHg"},{"visit":"DAY 14","visitnum":"4.0","dtc":"2024-05-11","value":"125.3","unit":"mmHg"},{"visit":"DAY 28","visitnum":"5.0","dtc":"2024-05-23","value":"123.3","unit":"mmHg"}],"TEMP":[{"visit":"BASELINE","visitnum":"1.0","dtc":"2024-04-29","value":"37.1","unit":"C"},{"visit":"DAY 3","visitnum":"2.0","dtc":"2024-05-02","value":"37.1","unit":"C"},{"visit":"DAY 5","visitnum":"3.0","dtc":"2024-05-04","value":"36.7","unit":"C"},{"visit":"DAY 14","visitnum":"4.0","dtc":"2024-05-11","value":"36.9","unit":"C"},{"visit":"DAY 28","visitnum":"5.0","dtc":"2024-05-23","value":"36.7","unit":"C"}],"WEIGHT":[{"visit":"BASELINE","visitnum":"1.0","dtc":"2024-04-29","value":"70.8","unit":"kg"},{"visit":"DAY 3","visitnum":"2.0","dtc":"2024-05-02","value":"71.6","unit":"kg"},{"visit":"DAY 5","visitnum":"3.0","dtc":"2024-05-04","value":"72.9","unit":"kg"},{"visit":"DAY 14","visitnum":"4.0","dtc":"2024-05-11","value":"74.4","unit":"kg"},{"visit":"DAY 28","visitnum":"5.0","dtc":"2024-05-23","value":"75.1","unit":"kg"}]},"results":[{"seq":"1","testcd":"BMI","test":"BMI","cat":null,"orres":"31.1","orresu":"kg/m2","stresc":"31.1","stresn":"31.1","stresu":"kg/m2","stnrlo":null,"stnrhi":null,"nrind":null,"pos":null,"loc":null,"dtc":"2024-04-29","dy":"1","visit":"BASELINE","visitnum":"1.0","epoch":"TREATMENT"},{"seq":"2","testcd":"DIABP","test":"Diastolic Blood Pressure","cat":null,"orres":"68.4","orresu":"mmHg","stresc":"68.4","stresn":"68.4","stresu":"mmHg","stnrlo":null,"stnrhi":null,"nrind":null,"pos":null,"loc":null,"dtc":"2024-04-29","dy":"1","visit":"BASELINE","visitnum":"1.0","epoch":"TREATMENT"},{"seq":"3","testcd":"HEIGHT","test":"Height","cat":null,"orres":"150.9","orresu":"cm","stresc":"150.9","stresn":"150.9","stresu":"cm","stnrlo":null,"stnrhi":null,"nrind":null,"pos":null,"loc":null,"dtc":"2024-04-29","dy":"1","visit":"BASELINE","visitnum":"1.0","epoch":"TREATMENT"},{"seq":"4","testcd":"PULSE","test":"Pulse Rate","cat":null,"orres":null,"orresu":null,"stresc":null,"stresn":null,"stresu":null,"stnrlo":null,"stnrhi":null,"nrind":null,"pos":null,"loc":null,"dtc":"2024-04-29","dy":"1","visit":"BASELINE","visitnum":"1.0","epoch":"TREATMENT"},{"seq":"5","testcd":"RESP","test":"Respiratory Rate","cat":null,"orres":"18.1","orresu":"breaths/min","stresc":"18.1","stresn":"18.1","stresu":"breaths/min","stnrlo":null,"stnrhi":null,"nrind":null,"pos":null,"loc":null,"dtc":"2024-04-29","dy":"1","visit":"BASELINE","visitnum":"1.0","epoch":"TREATMENT"},{"seq":"6","testcd":"SYSBP","test":"Systolic Blood Pressure","cat":null,"orres":"124.6","orresu":"mmHg","stresc":"124.6","stresn":"124.6","stresu":"mmHg","stnrlo":null,"stnrhi":null,"nrind":null,"pos":null,"loc":null,"dtc":"2024-04-29","dy":"1","visit":"BASELINE","visitnum":"1.0","epoch":"TREATMENT"},{"seq":"7","testcd":"TEMP","test":"Temperature","cat":null,"orres":"37.1","orresu":"C","stresc":"37.1","stresn":"37.1","stresu":"C","stnrlo":null,"stnrhi":null,"nrind":null,"pos":null,"loc":null,"dtc":"2024-04-29","dy":"1","visit":"BASELINE","visitnum":"1.0","epoch":"TREATMENT"},{"seq":"8","testcd":"WEIGHT","test":"Weight","cat":null,"orres":"70.8","orresu":"kg","stresc":"70.8","stresn":"70.8","stresu":"kg","stnrlo":null,"stnrhi":null,"nrind":null,"pos":null,"loc":null,"dtc":"2024-04-29","dy":"1","visit":"BASELINE","visitnum":"1.0","epoch":"TREATMENT"},{"seq":"9","testcd":"BMI","test":"BMI","cat":null,"orres":"31.4","orresu":"kg/m2","stresc":"31.4","stresn":"31.4","stresu":"kg/m2","stnrlo":null,"stnrhi":null,"nrind":null,"pos":null,"loc":null,"dtc":"2024-05-02","dy":"4","visit":"DAY 3","visitnum":"2.0","epoch":"TREATMENT"},{"seq":"10","testcd":"DIABP","test":"Diastolic Blood Pressure","cat":null,"orres":"69.4","orresu":"mmHg","stresc":"69.4","stresn":"69.4","stresu":"mmHg","stnrlo":null,"stnrhi":null,"nrind":null,"pos":null,"loc":null,"dtc":"2024-05-02","dy":"4","visit":"DAY 3","visitnum":"2.0","epoch":"TREATMENT"},{"seq":"11","testcd":"HEIGHT","test":"Height","cat":null,"orres":"151.0","orresu":"cm","stresc":"151.0","stresn":"151.0","stresu":"cm","stnrlo":null,"stnrhi":null,"nrind":null,"pos":null,"loc":null,"dtc":"2024-05-02","dy":"4","visit":"DAY 3","visitnum":"2.0","epoch":"TREATMENT"},{"seq":"12","testcd":"PULSE","test":"Pulse Rate","cat":null,"orres":"87.0","orresu":"beats/min","stresc":"87.0","stresn":"87.0","stresu":"beats/min","stnrlo":null,"stnrhi":null,"nrind":null,"pos":null,"loc":null,"dtc":"2024-05-02","dy":"4","visit":"DAY 3","visitnum":"2.0","epoch":"TREATMENT"},{"seq":"13","testcd":"RESP","test":"Respiratory Rate","cat":null,"orres":"18.4","orresu":"breaths/min","stresc":"18.4","stresn":"18.4","stresu":"breaths/min","stnrlo":null,"stnrhi":null,"nrind":null,"pos":null,"loc":null,"dtc":"2024-05-02","dy":"4","visit":"DAY 3","visitnum":"2.0","epoch":"TREATMENT"},{"seq":"14","testcd":"SYSBP","test":"Systolic Blood Pressure","cat":null,"orres":"126.0","orresu":"mmHg","stresc":"126.0","stresn":"126.0","stresu":"mmHg","stnrlo":null,"stnrhi":null,"nrind":null,"pos":null,"loc":null,"dtc":"2024-05-02","dy":"4","visit":"DAY 3","visitnum":"2.0","epoch":"TREATMENT"},{"seq":"15","testcd":"TEMP","test":"Temperature","cat":null,"orres":"37.1","orresu":"C","stresc":"37.1","stresn":"37.1","stresu":"C","stnrlo":null,"stnrhi":null,"nrind":null,"pos":null,"loc":null,"dtc":"2024-05-02","dy":"4","visit":"DAY 3","visitnum":"2.0","epoch":"TREATMENT"},{"seq":"16","testcd":"WEIGHT","test":"Weight","cat":null,"orres":"71.6","orresu":"kg","stresc":"71.6","stresn":"71.6","stresu":"kg","stnrlo":null,"stnrhi":null,"nrind":null,"pos":null,"loc":null,"dtc":"2024-05-02","dy":"4","visit":"DAY 3","visitnum":"2.0","epoch":"TREATMENT"},{"seq":"17","testcd":"BMI","test":"BMI","cat":null,"orres":"32.3","orresu":"kg/m2","stresc":"32.3","stresn":"32.3","stresu":"kg/m2","stnrlo":null,"stnrhi":null,"nrind":null,"pos":null,"loc":null,"dtc":"2024-05-04","dy":"6","visit":"DAY 5","visitnum":"3.0","epoch":"TREATMENT"},{"seq":"18","testcd":"DIABP","test":"Diastolic Blood Pressure","cat":null,"orres":"67.6","orresu":"mmHg","stresc":"67.6","stresn":"67.6","stresu":"mmHg","stnrlo":null,"stnrhi":null,"nrind":null,"pos":null,"loc":null,"dtc":"2024-05-04","dy":"6","visit":"DAY 5","visitnum":"3.0","epoch":"TREATMENT"},{"seq":"19","testcd":"HEIGHT","test":"Height","cat":null,"orres":"150.2","orresu":"cm","stresc":"150.2","stresn":"150.2","stresu":"cm","stnrlo":null,"stnrhi":null,"nrind":null,"pos":null,"loc":null,"dtc":"2024-05-04","dy":"6","visit":"DAY 5","visitnum":"3.0","epoch":"TREATMENT"},{"seq":"20","testcd":"PULSE","test":"Pulse Rate","cat":null,"orres":"88.5","orresu":"beats/min","stresc":"88.5","stresn":"88.5","stresu":"beats/min","stnrlo":null,"stnrhi":null,"nrind":null,"pos":null,"loc":null,"dtc":"2024-05-04","dy":"6","visit":"DAY 5","visitnum":"3.0","epoch":"TREATMENT"},{"seq":"21","testcd":"RESP","test":"Respiratory Rate","cat":null,"orres":"16.3","orresu":"breaths/min","stresc":"16.3","stresn":"16.3","stresu":"breaths/min","stnrlo":null,"stnrhi":null,"nrind":null,"pos":null,"loc":null,"dtc":"2024-05-04","dy":"6","visit":"DAY 5","visitnum":"3.0","epoch":"TREATMENT"},{"seq":"22","testcd":"SYSBP","test":"Systolic Blood Pressure","cat":null,"orres":"124.2","orresu":"mmHg","stresc":"124.2","stresn":"124.2","stresu":"mmHg","stnrlo":null,"stnrhi":null,"nrind":null,"pos":null,"loc":null,"dtc":"2024-05-04","dy":"6","visit":"DAY 5","visitnum":"3.0","epoch":"TREATMENT"},{"seq":"23","testcd":"TEMP","test":"Temperature","cat":null,"orres":"36.7","orresu":"C","stresc":"36.7","stresn":"36.7","stresu":"C","stnrlo":null,"stnrhi":null,"nrind":null,"pos":null,"loc":null,"dtc":"2024-05-04","dy":"6","visit":"DAY 5","visitnum":"3.0","epoch":"TREATMENT"},{"seq":"24","testcd":"WEIGHT","test":"Weight","cat":null,"orres":"72.9","orresu":"kg","stresc":"72.9","stresn":"72.9","stresu":"kg","stnrlo":null,"stnrhi":null,"nrind":null,"pos":null,"loc":null,"dtc":"2024-05-04","dy":"6","visit":"DAY 5","visitnum":"3.0","epoch":"TREATMENT"},{"seq":"25","testcd":"BMI","test":"BMI","cat":null,"orres":"32.7","orresu":"kg/m2","stresc":"32.7","stresn":"32.7","stresu":"kg/m2","stnrlo":null,"stnrhi":null,"nrind":null,"pos":null,"loc":null,"dtc":"2024-05-11","dy":"13","visit":"DAY 14","visitnum":"4.0","epoch":"FOLLOW-UP"},{"seq":"26","testcd":"DIABP","test":"Diastolic Blood Pressure","cat":null,"orres":"68.3","orresu":"mmHg","stresc":"68.3","stresn":"68.3","stresu":"mmHg","stnrlo":null,"stnrhi":null,"nrind":null,"pos":null,"loc":null,"dtc":"2024-05-11","dy":"13","visit":"DAY 14","visitnum":"4.0","epoch":"FOLLOW-UP"},{"seq":"27","testcd":"HEIGHT","test":"Height","cat":null,"orres":"150.9","orresu":"cm","stresc":"150.9","stresn":"150.9","stresu":"cm","stnrlo":null,"stnrhi":null,"nrind":null,"pos":null,"loc":null,"dtc":"2024-05-11","dy":"13","visit":"DAY 14","visitnum":"4.0","epoch":"FOLLOW-UP"},{"seq":"28","testcd":"PULSE","test":"Pulse Rate","cat":null,"orres":"86.5","orresu":"beats/min","stresc":"86.5","stresn":"86.5","stresu":"beats/min","stnrlo":null,"stnrhi":null,"nrind":null,"pos":null,"loc":null,"dtc":"2024-05-11","dy":"13","visit":"DAY 14","visitnum":"4.0","epoch":"FOLLOW-UP"},{"seq":"29","testcd":"RESP","test":"Respiratory Rate","cat":null,"orres":"17.9","orresu":"breaths/min","stresc":"17.9","stresn":"17.9","stresu":"breaths/min","stnrlo":null,"stnrhi":null,"nrind":null,"pos":null,"loc":null,"dtc":"2024-05-11","dy":"13","visit":"DAY 14","visitnum":"4.0","epoch":"FOLLOW-UP"},{"seq":"30","testcd":"SYSBP","test":"Systolic Blood Pressure","cat":null,"orres":"125.3","orresu":"mmHg","stresc":"125.3","stresn":"125.3","stresu":"mmHg","stnrlo":null,"stnrhi":null,"nrind":null,"pos":null,"loc":null,"dtc":"2024-05-11","dy":"13","visit":"DAY 14","visitnum":"4.0","epoch":"FOLLOW-UP"},{"seq":"31","testcd":"TEMP","test":"Temperature","cat":null,"orres":"36.9","orresu":"C","stresc":"36.9","stresn":"36.9","stresu":"C","stnrlo":null,"stnrhi":null,"nrind":null,"pos":null,"loc":null,"dtc":"2024-05-11","dy":"13","visit":"DAY 14","visitnum":"4.0","epoch":"FOLLOW-UP"},{"seq":"32","testcd":"WEIGHT","test":"Weight","cat":null,"orres":"74.4","orresu":"kg","stresc":"74.4","stresn":"74.4","stresu":"kg","stnrlo":null,"stnrhi":null,"nrind":null,"pos":null,"loc":null,"dtc":"2024-05-11","dy":"13","visit":"DAY 14","visitnum":"4.0","epoch":"FOLLOW-UP"},{"seq":"33","testcd":"BMI","test":"BMI","cat":null,"orres":"32.8","orresu":"kg/m2","stresc":"32.8","stresn":"32.8","stresu":"kg/m2","stnrlo":null,"stnrhi":null,"nrind":null,"pos":null,"loc":null,"dtc":"2024-05-23","dy":"25","visit":"DAY 28","visitnum":"5.0","epoch":"FOLLOW-UP"},{"seq":"34","testcd":"DIABP","test":"Diastolic Blood Pressure","cat":null,"orres":"66.3","orresu":"mmHg","stresc":"66.3","stresn":"66.3","stresu":"mmHg","stnrlo":null,"stnrhi":null,"nrind":null,"pos":null,"loc":null,"dtc":"2024-05-23","dy":"25","visit":"DAY 28","visitnum":"5.0","epoch":"FOLLOW-UP"},{"seq":"35","testcd":"HEIGHT","test":"Height","cat":null,"orres":"151.3","orresu":"cm","stresc":"151.3","stresn":"151.3","stresu":"cm","stnrlo":null,"stnrhi":null,"nrind":null,"pos":null,"loc":null,"dtc":"2024-05-23","dy":"25","visit":"DAY 28","visitnum":"5.0","epoch":"FOLLOW-UP"},{"seq":"36","testcd":"PULSE","test":"Pulse Rate","cat":null,"orres":"82.2","orresu":"beats/min","stresc":"82.2","stresn":"82.2","stresu":"beats/min","stnrlo":null,"stnrhi":null,"nrind":null,"pos":null,"loc":null,"dtc":"2024-05-23","dy":"25","visit":"DAY 28","visitnum":"5.0","epoch":"FOLLOW-UP"},{"seq":"37","testcd":"RESP","test":"Respiratory Rate","cat":null,"orres":"18.8","orresu":"breaths/min","stresc":"18.8","stresn":"18.8","stresu":"breaths/min","stnrlo":null,"stnrhi":null,"nrind":null,"pos":null,"loc":null,"dtc":"2024-05-23","dy":"25","visit":"DAY 28","visitnum":"5.0","epoch":"FOLLOW-UP"},{"seq":"38","testcd":"SYSBP","test":"Systolic Blood Pressure","cat":null,"orres":"123.3","orresu":"mmHg","stresc":"123.3","stresn":"123.3","stresu":"mmHg","stnrlo":null,"stnrhi":null,"nrind":null,"pos":null,"loc":null,"dtc":"2024-05-23","dy":"25","visit":"DAY 28","visitnum":"5.0","epoch":"FOLLOW-UP"},{"seq":"39","testcd":"TEMP","test":"Temperature","cat":null,"orres":"36.7","orresu":"C","stresc":"36.7","stresn":"36.7","stresu":"C","stnrlo":null,"stnrhi":null,"nrind":null,"pos":null,"loc":null,"dtc":"2024-05-23","dy":"25","visit":"DAY 28","visitnum":"5.0","epoch":"FOLLOW-UP"},{"seq":"40","testcd":"WEIGHT","test":"Weight","cat":null,"orres":"75.1","orresu":"kg","stresc":"75.1","stresn":"75.1","stresu":"kg","stnrlo":null,"stnrhi":null,"nrind":null,"pos":null,"loc":null,"dtc":"2024-05-23","dy":"25","visit":"DAY 28","visitnum":"5.0","epoch":"FOLLOW-UP"}]},"section_10_questionnaires_and_scores":{"questionnaires":[],"findings_about":[]},"section_11_protocol_deviations":{"deviations":[{"seq":"1","term":"Visit DAY 14 occurred 1 days early (Day 13 vs planned Day 14)","decod":"VISIT OCCURRED OUTSIDE VISIT WINDOW","cat":"MINOR","scat":"VISIT WINDOW","start_dtc":"2024-05-11","end_dtc":null,"visit":null}],"total":1},"section_12_disposition":{"completion_status":"COMPLETED","disposition_records":[{"seq":"1","term":"INFORMED CONSENT OBTAINED","decod":"INFORMED CONSENT OBTAINED","cat":"PROTOCOL MILESTONE","scat":null,"dtc":"2024-04-12","dy":null,"visit":null,"epoch":"SCREENING"},{"seq":"2","term":"RANDOMIZED","decod":"RANDOMIZED","cat":"PROTOCOL MILESTONE","scat":null,"dtc":"2024-04-29","dy":null,"visit":null,"epoch":"TREATMENT"},{"seq":"3","term":"COMPLETED","decod":"COMPLETED","cat":"DISPOSITION EVENT","scat":null,"dtc":"2024-05-27","dy":null,"visit":null,"epoch":"FOLLOW-UP"}],"death":null},"section_13_hospitalizations":{"items":[],"total":0},"section_14_substance_use":{"items":[{"seq":"1","substance":"ALCOHOL","decod":"ALCOHOL","cat":"ALCOHOL","scat":null,"usage":"N","dose":null,"dosu":null,"freq":null,"start_dtc":null,"end_dtc":null},{"seq":"2","substance":"COFFEE","decod":"COFFEE","cat":"CAFFEINE","scat":null,"usage":"N","dose":null,"dosu":null,"freq":null,"start_dtc":null,"end_dtc":null},{"seq":"3","substance":"CIGARETTES","decod":"CIGARETTES","cat":"TOBACCO","scat":"CIGARETTES","usage":"Y","dose":null,"dosu":null,"freq":null,"start_dtc":"2001-04-18","end_dtc":"2005-04-17"}],"total":3},"section_15_subject_status":{"items":[{"seq":"1","testcd":"SURVSTAT","test":"Survival Status","orres":"ALIVE","stresc":"ALIVE","dtc":"2024-05-12","visit":"DAY 14","epoch":"FOLLOW-UP"},{"seq":"2","testcd":"SURVSTAT","test":"Survival Status","orres":"ALIVE","stresc":"ALIVE","dtc":"2024-05-26","visit":"DAY 28","epoch":"FOLLOW-UP"}],"total":2}}