{"subject_id":"COVID-THER-301-SITE002-0362","study_id":"COVID-THER-301","generated_at":"2026-06-12T05:15:48.284427+00:00","sdtmig_version":"3.4","flags":{"has_serious_ae":false,"has_fatal_ae":false,"has_protocol_deviation":true,"n_protocol_deviations":2,"n_adverse_events":0,"n_concomitant_meds":1,"max_ae_severity":null,"screen_failure":false,"discontinued_early":false,"discontinuation_reason":null,"death":false,"exposure_days":2},"timeline":[{"dtc":"2014-02-22","dy":"-3660","event":"CM START: SALBUTAMOL","domain":"CM","category":"concomitant_med"},{"dtc":"2024-02-20","dy":"-10","event":"INFORMED CONSENT OBTAINED","domain":"DS","category":"milestone"},{"dtc":"2024-03-01","dy":"1","event":"RANDOMIZED","domain":"DS","category":"milestone"},{"dtc":"2024-03-01","dy":"1","event":"FIRST DOSE: ANTIVIRAL","domain":"EX","category":"exposure"},{"dtc":"2024-03-01","dy":"1","event":"VISIT: BASELINE","domain":"SV","category":"visit"},{"dtc":"2024-03-03","dy":"3","event":"VISIT: DAY 3","domain":"SV","category":"visit"},{"dtc":"2024-03-06","dy":"6","event":"VISIT: DAY 5","domain":"SV","category":"visit"},{"dtc":"2024-03-14","dy":"14","event":"DEVIATION: VISIT OCCURRED OUTSIDE VISIT WINDOW","domain":"DV","category":"deviation"},{"dtc":"2024-03-14","dy":"14","event":"VISIT: DAY 14","domain":"SV","category":"visit"},{"dtc":"2024-03-28","dy":"28","event":"DEVIATION: VISIT OCCURRED OUTSIDE VISIT WINDOW","domain":"DV","category":"deviation"},{"dtc":"2024-03-28","dy":"28","event":"VISIT: DAY 28","domain":"SV","category":"visit"},{"dtc":"2024-03-29","dy":"29","event":"COMPLETED","domain":"DS","category":"milestone"}],"section_1_demographics":{"usubjid":"COVID-THER-301-SITE002-0362","subjid":"0362","siteid":"SITE002","age":"52","ageu":"YEARS","sex":"F","race":"WHITE","ethnicity":"NOT HISPANIC OR LATINO","country":"USA","arm":"Antiviral 200mg BID","armcd":"AV200","actarm":"Antiviral 200mg BID","actarmcd":"AV200","randomization_date":null,"informed_consent_date":"2024-02-20","reference_start_date":"2024-03-01","reference_end_date":"2024-03-29","screen_failure":false,"death_flag":null,"death_date":null,"subject_characteristics":[{"testcd":"ALCUSE","test":"Alcohol Use","orres":"NON-DRINKER","stresc":"NON-DRINKER","visit":null,"dtc":"2024-02-20"},{"testcd":"BMI","test":"Body Mass Index","orres":"26.3","stresc":"26.3","visit":null,"dtc":"2024-02-20"},{"testcd":"DURDIS","test":"Duration of Disease","orres":"121 months","stresc":"121","visit":null,"dtc":"2024-02-20"},{"testcd":"TOBUSE","test":"Tobacco Use","orres":"NEVER SMOKED","stresc":"NEVER SMOKED","visit":null,"dtc":"2024-02-20"}]},"section_2_medical_history":{"items":[{"seq":"1","term":"ASTHMA","decod":"ASTHMA","cat":"RESPIRATORY","scat":null,"presp":null,"occur":null,"status":null,"onset_dtc":"2014-02-22","end_dtc":null,"visit":null}]},"section_3_inclusion_exclusion":{"criteria":[]},"section_4_trial_participation":{"visits":[{"visitnum":"1.0","visit":"BASELINE","start_dtc":"2024-03-01","end_dtc":"2024-03-01","updes":null},{"visitnum":"2.0","visit":"DAY 3","start_dtc":"2024-03-03","end_dtc":"2024-03-03","updes":null},{"visitnum":"3.0","visit":"DAY 5","start_dtc":"2024-03-06","end_dtc":"2024-03-06","updes":null},{"visitnum":"4.0","visit":"DAY 14","start_dtc":"2024-03-14","end_dtc":"2024-03-14","updes":null},{"visitnum":"5.0","visit":"DAY 28","start_dtc":"2024-03-28","end_dtc":"2024-03-28","updes":null}],"epochs":[{"seq":"1","etcd":"SCRN","element":"Screening","start_dtc":"2024-02-29","end_dtc":"2024-03-01","updes":null},{"seq":"2","etcd":"TRT","element":"Treatment","start_dtc":"2024-03-01","end_dtc":"2024-03-06","updes":null},{"seq":"3","etcd":"FU","element":"Follow-up","start_dtc":"2024-03-06","end_dtc":"2024-03-28","updes":null}],"visit_count":5},"section_5_concomitant_medications":{"medications":[{"seq":"1","trt":"SALBUTAMOL","decod":"SALBUTAMOL","cat":"PRIOR","dose":"100","doseu":null,"dosef":"PRN","route":"RESPIRATORY (INHALATION)","indication":"ASTHMA","start_dtc":"2014-02-22","end_dtc":"2024-03-29","ongoing":null,"visit":null}]},"section_6_exposure":{"exposure_as_administered":[{"seq":"1","trt":"ANTIVIRAL","dose":"200.0","doseu":null,"dosef":"BID","route":"ORAL","lot":null,"start_dtc":"2024-03-01","end_dtc":"2024-03-03","start_dy":"1","end_dy":"3","epoch":"TREATMENT","visit":null}],"exposure_as_collected":[{"seq":"1","trt":"ANTIVIRAL","dose":"200.0","doseu":null,"dosef":"BID","route":"ORAL","start_dtc":"2024-03-01","end_dtc":"2024-03-01","visit":"BASELINE"},{"seq":"2","trt":"ANTIVIRAL","dose":"200.0","doseu":null,"dosef":"BID","route":"ORAL","start_dtc":"2024-03-01","end_dtc":"2024-03-01","visit":"BASELINE"},{"seq":"3","trt":"ANTIVIRAL","dose":"200.0","doseu":null,"dosef":"BID","route":"ORAL","start_dtc":"2024-03-02","end_dtc":"2024-03-02","visit":"BASELINE"},{"seq":"4","trt":"ANTIVIRAL","dose":"200.0","doseu":null,"dosef":"BID","route":"ORAL","start_dtc":"2024-03-02","end_dtc":"2024-03-02","visit":"BASELINE"},{"seq":"5","trt":"ANTIVIRAL","dose":"200.0","doseu":null,"dosef":"BID","route":"ORAL","start_dtc":"2024-03-03","end_dtc":"2024-03-03","visit":"BASELINE"},{"seq":"6","trt":"ANTIVIRAL","dose":"200.0","doseu":null,"dosef":"BID","route":"ORAL","start_dtc":"2024-03-03","end_dtc":"2024-03-03","visit":"BASELINE"}]},"section_7_adverse_events":{"summary":{"total_aes":0,"serious_aes":0,"fatal_aes":0,"by_severity":{},"by_soc":{}},"events":[]},"section_8_laboratory_results":{"summary":{"total_records":28,"abnormal_count":2,"abnormal_pct":7.1},"shift_summary":[{"testcd":"ALT","baseline_value":39.43,"baseline_nrind":"NORMAL","worst_post_baseline_value":41.29,"worst_post_baseline_nrind":"NORMAL","worst_visit":"DAY 14"},{"testcd":"AST","baseline_value":22.21,"baseline_nrind":"NORMAL","worst_post_baseline_value":20.59,"worst_post_baseline_nrind":"NORMAL","worst_visit":"DAY 3"},{"testcd":"CREAT","baseline_value":50.18,"baseline_nrind":"NORMAL","worst_post_baseline_value":52.04,"worst_post_baseline_nrind":"NORMAL","worst_visit":"DAY 28"},{"testcd":"GLUC","baseline_value":3.85,"baseline_nrind":"LOW","worst_post_baseline_value":4.16,"worst_post_baseline_nrind":"NORMAL","worst_visit":"DAY 28"},{"testcd":"HGB","baseline_value":128.04,"baseline_nrind":"NORMAL","worst_post_baseline_value":127.83,"worst_post_baseline_nrind":"NORMAL","worst_visit":"DAY 28"},{"testcd":"PLAT","baseline_value":246.49,"baseline_nrind":"NORMAL","worst_post_baseline_value":235.59,"worst_post_baseline_nrind":"NORMAL","worst_visit":"DAY 3"},{"testcd":"WBC","baseline_value":4.29,"baseline_nrind":"NORMAL","worst_post_baseline_value":5.47,"worst_post_baseline_nrind":"NORMAL","worst_visit":"DAY 14"}],"results":[{"seq":"1","testcd":"ALT","test":"Alanine Aminotransferase","cat":"CHEMISTRY","orres":"39.43","orresu":"U/L","stresc":"39.43","stresn":"39.43","stresu":"U/L","stnrlo":"7","stnrhi":"56","nrind":"NORMAL","fast":null,"dtc":"2024-03-01","dy":"1","visit":"BASELINE","visitnum":"1.0","epoch":"TREATMENT","spec":null,"method":null},{"seq":"2","testcd":"AST","test":"Aspartate Aminotransferase","cat":"CHEMISTRY","orres":"22.21","orresu":"U/L","stresc":"22.21","stresn":"22.21","stresu":"U/L","stnrlo":"10","stnrhi":"40","nrind":"NORMAL","fast":null,"dtc":"2024-03-01","dy":"1","visit":"BASELINE","visitnum":"1.0","epoch":"TREATMENT","spec":null,"method":null},{"seq":"3","testcd":"CREAT","test":"Creatinine","cat":"CHEMISTRY","orres":"50.18","orresu":"umol/L","stresc":"50.18","stresn":"50.18","stresu":"umol/L","stnrlo":"44","stnrhi":"80","nrind":"NORMAL","fast":null,"dtc":"2024-03-01","dy":"1","visit":"BASELINE","visitnum":"1.0","epoch":"TREATMENT","spec":null,"method":null},{"seq":"4","testcd":"GLUC","test":"Glucose","cat":"CHEMISTRY","orres":"3.85","orresu":"mmol/L","stresc":"3.85","stresn":"3.85","stresu":"mmol/L","stnrlo":"3.9","stnrhi":"5.6","nrind":"LOW","fast":null,"dtc":"2024-03-01","dy":"1","visit":"BASELINE","visitnum":"1.0","epoch":"TREATMENT","spec":null,"method":null},{"seq":"5","testcd":"HGB","test":"Hemoglobin","cat":"HEMATOLOGY","orres":"128.04","orresu":"g/L","stresc":"128.04","stresn":"128.04","stresu":"g/L","stnrlo":"120","stnrhi":"155","nrind":"NORMAL","fast":null,"dtc":"2024-03-01","dy":"1","visit":"BASELINE","visitnum":"1.0","epoch":"TREATMENT","spec":null,"method":null},{"seq":"6","testcd":"PLAT","test":"Platelets","cat":"HEMATOLOGY","orres":"246.49","orresu":"10^9/L","stresc":"246.49","stresn":"246.49","stresu":"10^9/L","stnrlo":"150","stnrhi":"400","nrind":"NORMAL","fast":null,"dtc":"2024-03-01","dy":"1","visit":"BASELINE","visitnum":"1.0","epoch":"TREATMENT","spec":null,"method":null},{"seq":"7","testcd":"WBC","test":"Leukocytes","cat":"HEMATOLOGY","orres":"4.29","orresu":"10^9/L","stresc":"4.29","stresn":"4.29","stresu":"10^9/L","stnrlo":"4.0","stnrhi":"11.0","nrind":"NORMAL","fast":null,"dtc":"2024-03-01","dy":"1","visit":"BASELINE","visitnum":"1.0","epoch":"TREATMENT","spec":null,"method":null},{"seq":"8","testcd":"ALT","test":"Alanine Aminotransferase","cat":"CHEMISTRY","orres":"40.5","orresu":"U/L","stresc":"40.5","stresn":"40.5","stresu":"U/L","stnrlo":"7","stnrhi":"56","nrind":"NORMAL","fast":null,"dtc":"2024-03-03","dy":"3","visit":"DAY 3","visitnum":"2.0","epoch":"TREATMENT","spec":null,"method":null},{"seq":"9","testcd":"AST","test":"Aspartate Aminotransferase","cat":"CHEMISTRY","orres":"20.59","orresu":"U/L","stresc":"20.59","stresn":"20.59","stresu":"U/L","stnrlo":"10","stnrhi":"40","nrind":"NORMAL","fast":null,"dtc":"2024-03-03","dy":"3","visit":"DAY 3","visitnum":"2.0","epoch":"TREATMENT","spec":null,"method":null},{"seq":"10","testcd":"CREAT","test":"Creatinine","cat":"CHEMISTRY","orres":"48.87","orresu":"umol/L","stresc":"48.87","stresn":"48.87","stresu":"umol/L","stnrlo":"44","stnrhi":"80","nrind":"NORMAL","fast":null,"dtc":"2024-03-03","dy":"3","visit":"DAY 3","visitnum":"2.0","epoch":"TREATMENT","spec":null,"method":null},{"seq":"11","testcd":"GLUC","test":"Glucose","cat":"CHEMISTRY","orres":"3.82","orresu":"mmol/L","stresc":"3.82","stresn":"3.82","stresu":"mmol/L","stnrlo":"3.9","stnrhi":"5.6","nrind":"LOW","fast":null,"dtc":"2024-03-03","dy":"3","visit":"DAY 3","visitnum":"2.0","epoch":"TREATMENT","spec":null,"method":null},{"seq":"12","testcd":"HGB","test":"Hemoglobin","cat":"HEMATOLOGY","orres":"129.34","orresu":"g/L","stresc":"129.34","stresn":"129.34","stresu":"g/L","stnrlo":"120","stnrhi":"155","nrind":"NORMAL","fast":null,"dtc":"2024-03-03","dy":"3","visit":"DAY 3","visitnum":"2.0","epoch":"TREATMENT","spec":null,"method":null},{"seq":"13","testcd":"PLAT","test":"Platelets","cat":"HEMATOLOGY","orres":"235.59","orresu":"10^9/L","stresc":"235.59","stresn":"235.59","stresu":"10^9/L","stnrlo":"150","stnrhi":"400","nrind":"NORMAL","fast":null,"dtc":"2024-03-03","dy":"3","visit":"DAY 3","visitnum":"2.0","epoch":"TREATMENT","spec":null,"method":null},{"seq":"14","testcd":"WBC","test":"Leukocytes","cat":"HEMATOLOGY","orres":"4.78","orresu":"10^9/L","stresc":"4.78","stresn":"4.78","stresu":"10^9/L","stnrlo":"4.0","stnrhi":"11.0","nrind":"NORMAL","fast":null,"dtc":"2024-03-03","dy":"3","visit":"DAY 3","visitnum":"2.0","epoch":"TREATMENT","spec":null,"method":null},{"seq":"15","testcd":"ALT","test":"Alanine Aminotransferase","cat":"CHEMISTRY","orres":"41.29","orresu":"U/L","stresc":"41.29","stresn":"41.29","stresu":"U/L","stnrlo":"7","stnrhi":"56","nrind":"NORMAL","fast":null,"dtc":"2024-03-14","dy":"14","visit":"DAY 14","visitnum":"4.0","epoch":"FOLLOW-UP","spec":null,"method":null},{"seq":"16","testcd":"AST","test":"Aspartate Aminotransferase","cat":"CHEMISTRY","orres":"20.44","orresu":"U/L","stresc":"20.44","stresn":"20.44","stresu":"U/L","stnrlo":"10","stnrhi":"40","nrind":"NORMAL","fast":null,"dtc":"2024-03-14","dy":"14","visit":"DAY 14","visitnum":"4.0","epoch":"FOLLOW-UP","spec":null,"method":null},{"seq":"17","testcd":"CREAT","test":"Creatinine","cat":"CHEMISTRY","orres":"51.76","orresu":"umol/L","stresc":"51.76","stresn":"51.76","stresu":"umol/L","stnrlo":"44","stnrhi":"80","nrind":"NORMAL","fast":null,"dtc":"2024-03-14","dy":"14","visit":"DAY 14","visitnum":"4.0","epoch":"FOLLOW-UP","spec":null,"method":null},{"seq":"18","testcd":"GLUC","test":"Glucose","cat":"CHEMISTRY","orres":"4.08","orresu":"mmol/L","stresc":"4.08","stresn":"4.08","stresu":"mmol/L","stnrlo":"3.9","stnrhi":"5.6","nrind":"NORMAL","fast":null,"dtc":"2024-03-14","dy":"14","visit":"DAY 14","visitnum":"4.0","epoch":"FOLLOW-UP","spec":null,"method":null},{"seq":"19","testcd":"HGB","test":"Hemoglobin","cat":"HEMATOLOGY","orres":"128.93","orresu":"g/L","stresc":"128.93","stresn":"128.93","stresu":"g/L","stnrlo":"120","stnrhi":"155","nrind":"NORMAL","fast":null,"dtc":"2024-03-14","dy":"14","visit":"DAY 14","visitnum":"4.0","epoch":"FOLLOW-UP","spec":null,"method":null},{"seq":"20","testcd":"PLAT","test":"Platelets","cat":"HEMATOLOGY","orres":"234.07","orresu":"10^9/L","stresc":"234.07","stresn":"234.07","stresu":"10^9/L","stnrlo":"150","stnrhi":"400","nrind":"NORMAL","fast":null,"dtc":"2024-03-14","dy":"14","visit":"DAY 14","visitnum":"4.0","epoch":"FOLLOW-UP","spec":null,"method":null},{"seq":"21","testcd":"WBC","test":"Leukocytes","cat":"HEMATOLOGY","orres":"5.47","orresu":"10^9/L","stresc":"5.47","stresn":"5.47","stresu":"10^9/L","stnrlo":"4.0","stnrhi":"11.0","nrind":"NORMAL","fast":null,"dtc":"2024-03-14","dy":"14","visit":"DAY 14","visitnum":"4.0","epoch":"FOLLOW-UP","spec":null,"method":null},{"seq":"22","testcd":"ALT","test":"Alanine Aminotransferase","cat":"CHEMISTRY","orres":"40.57","orresu":"U/L","stresc":"40.57","stresn":"40.57","stresu":"U/L","stnrlo":"7","stnrhi":"56","nrind":"NORMAL","fast":null,"dtc":"2024-03-28","dy":"28","visit":"DAY 28","visitnum":"5.0","epoch":"FOLLOW-UP","spec":null,"method":null},{"seq":"23","testcd":"AST","test":"Aspartate Aminotransferase","cat":"CHEMISTRY","orres":"18.88","orresu":"U/L","stresc":"18.88","stresn":"18.88","stresu":"U/L","stnrlo":"10","stnrhi":"40","nrind":"NORMAL","fast":null,"dtc":"2024-03-28","dy":"28","visit":"DAY 28","visitnum":"5.0","epoch":"FOLLOW-UP","spec":null,"method":null},{"seq":"24","testcd":"CREAT","test":"Creatinine","cat":"CHEMISTRY","orres":"52.04","orresu":"umol/L","stresc":"52.04","stresn":"52.04","stresu":"umol/L","stnrlo":"44","stnrhi":"80","nrind":"NORMAL","fast":null,"dtc":"2024-03-28","dy":"28","visit":"DAY 28","visitnum":"5.0","epoch":"FOLLOW-UP","spec":null,"method":null},{"seq":"25","testcd":"GLUC","test":"Glucose","cat":"CHEMISTRY","orres":"4.16","orresu":"mmol/L","stresc":"4.16","stresn":"4.16","stresu":"mmol/L","stnrlo":"3.9","stnrhi":"5.6","nrind":"NORMAL","fast":null,"dtc":"2024-03-28","dy":"28","visit":"DAY 28","visitnum":"5.0","epoch":"FOLLOW-UP","spec":null,"method":null},{"seq":"26","testcd":"HGB","test":"Hemoglobin","cat":"HEMATOLOGY","orres":"127.83","orresu":"g/L","stresc":"127.83","stresn":"127.83","stresu":"g/L","stnrlo":"120","stnrhi":"155","nrind":"NORMAL","fast":null,"dtc":"2024-03-28","dy":"28","visit":"DAY 28","visitnum":"5.0","epoch":"FOLLOW-UP","spec":null,"method":null},{"seq":"27","testcd":"PLAT","test":"Platelets","cat":"HEMATOLOGY","orres":"233.65","orresu":"10^9/L","stresc":"233.65","stresn":"233.65","stresu":"10^9/L","stnrlo":"150","stnrhi":"400","nrind":"NORMAL","fast":null,"dtc":"2024-03-28","dy":"28","visit":"DAY 28","visitnum":"5.0","epoch":"FOLLOW-UP","spec":null,"method":null},{"seq":"28","testcd":"WBC","test":"Leukocytes","cat":"HEMATOLOGY","orres":"4.82","orresu":"10^9/L","stresc":"4.82","stresn":"4.82","stresu":"10^9/L","stnrlo":"4.0","stnrhi":"11.0","nrind":"NORMAL","fast":null,"dtc":"2024-03-28","dy":"28","visit":"DAY 28","visitnum":"5.0","epoch":"FOLLOW-UP","spec":null,"method":null}]},"section_9_vital_signs":{"summary":{"total_records":38},"trends":{"BMI":[{"visit":"BASELINE","visitnum":"1.0","dtc":"2024-03-01","value":"26.3","unit":"kg/m2"},{"visit":"DAY 5","visitnum":"3.0","dtc":"2024-03-06","value":"25.7","unit":"kg/m2"},{"visit":"DAY 28","visitnum":"5.0","dtc":"2024-03-28","value":"26.8","unit":"kg/m2"}],"DIABP":[{"visit":"BASELINE","visitnum":"1.0","dtc":"2024-03-01","value":"65.3","unit":"mmHg"},{"visit":"DAY 3","visitnum":"2.0","dtc":"2024-03-03","value":"65.8","unit":"mmHg"},{"visit":"DAY 5","visitnum":"3.0","dtc":"2024-03-06","value":"65.7","unit":"mmHg"},{"visit":"DAY 14","visitnum":"4.0","dtc":"2024-03-14","value":"67.5","unit":"mmHg"},{"visit":"DAY 28","visitnum":"5.0","dtc":"2024-03-28","value":"70.3","unit":"mmHg"}],"HEIGHT":[{"visit":"BASELINE","visitnum":"1.0","dtc":"2024-03-01","value":"153.5","unit":"cm"},{"visit":"DAY 3","visitnum":"2.0","dtc":"2024-03-03","value":"153.7","unit":"cm"},{"visit":"DAY 5","visitnum":"3.0","dtc":"2024-03-06","value":"153.8","unit":"cm"},{"visit":"DAY 28","visitnum":"5.0","dtc":"2024-03-28","value":"153.6","unit":"cm"}],"PULSE":[{"visit":"BASELINE","visitnum":"1.0","dtc":"2024-03-01","value":"63.8","unit":"beats/min"},{"visit":"DAY 3","visitnum":"2.0","dtc":"2024-03-03","value":"61.0","unit":"beats/min"},{"visit":"DAY 5","visitnum":"3.0","dtc":"2024-03-06","value":"63.5","unit":"beats/min"},{"visit":"DAY 14","visitnum":"4.0","dtc":"2024-03-14","value":"65.1","unit":"beats/min"},{"visit":"DAY 28","visitnum":"5.0","dtc":"2024-03-28","value":"64.2","unit":"beats/min"}],"RESP":[{"visit":"BASELINE","visitnum":"1.0","dtc":"2024-03-01","value":"16.6","unit":"breaths/min"},{"visit":"DAY 3","visitnum":"2.0","dtc":"2024-03-03","value":"16.9","unit":"breaths/min"},{"visit":"DAY 5","visitnum":"3.0","dtc":"2024-03-06","value":"17.5","unit":"breaths/min"},{"visit":"DAY 14","visitnum":"4.0","dtc":"2024-03-14","value":"16.8","unit":"breaths/min"},{"visit":"DAY 28","visitnum":"5.0","dtc":"2024-03-28","value":"15.4","unit":"breaths/min"}],"SYSBP":[{"visit":"BASELINE","visitnum":"1.0","dtc":"2024-03-01","value":"133.7","unit":"mmHg"},{"visit":"DAY 3","visitnum":"2.0","dtc":"2024-03-03","value":"132.7","unit":"mmHg"},{"visit":"DAY 5","visitnum":"3.0","dtc":"2024-03-06","value":"134.2","unit":"mmHg"},{"visit":"DAY 14","visitnum":"4.0","dtc":"2024-03-14","value":"135.5","unit":"mmHg"},{"visit":"DAY 28","visitnum":"5.0","dtc":"2024-03-28","value":"138.1","unit":"mmHg"}],"TEMP":[{"visit":"BASELINE","visitnum":"1.0","dtc":"2024-03-01","value":"37.2","unit":"C"},{"visit":"DAY 3","visitnum":"2.0","dtc":"2024-03-03","value":"37.3","unit":"C"},{"visit":"DAY 5","visitnum":"3.0","dtc":"2024-03-06","value":"37.3","unit":"C"},{"visit":"DAY 14","visitnum":"4.0","dtc":"2024-03-14","value":"37.4","unit":"C"},{"visit":"DAY 28","visitnum":"5.0","dtc":"2024-03-28","value":"37.4","unit":"C"}],"WEIGHT":[{"visit":"BASELINE","visitnum":"1.0","dtc":"2024-03-01","value":"62.0","unit":"kg"},{"visit":"DAY 5","visitnum":"3.0","dtc":"2024-03-06","value":"60.9","unit":"kg"},{"visit":"DAY 14","visitnum":"4.0","dtc":"2024-03-14","value":"61.7","unit":"kg"},{"visit":"DAY 28","visitnum":"5.0","dtc":"2024-03-28","value":"63.3","unit":"kg"}]},"results":[{"seq":"1","testcd":"BMI","test":"BMI","cat":null,"orres":"26.3","orresu":"kg/m2","stresc":"26.3","stresn":"26.3","stresu":"kg/m2","stnrlo":null,"stnrhi":null,"nrind":null,"pos":null,"loc":null,"dtc":"2024-03-01","dy":"1","visit":"BASELINE","visitnum":"1.0","epoch":"TREATMENT"},{"seq":"2","testcd":"DIABP","test":"Diastolic Blood Pressure","cat":null,"orres":"65.3","orresu":"mmHg","stresc":"65.3","stresn":"65.3","stresu":"mmHg","stnrlo":null,"stnrhi":null,"nrind":null,"pos":null,"loc":null,"dtc":"2024-03-01","dy":"1","visit":"BASELINE","visitnum":"1.0","epoch":"TREATMENT"},{"seq":"3","testcd":"HEIGHT","test":"Height","cat":null,"orres":"153.5","orresu":"cm","stresc":"153.5","stresn":"153.5","stresu":"cm","stnrlo":null,"stnrhi":null,"nrind":null,"pos":null,"loc":null,"dtc":"2024-03-01","dy":"1","visit":"BASELINE","visitnum":"1.0","epoch":"TREATMENT"},{"seq":"4","testcd":"PULSE","test":"Pulse Rate","cat":null,"orres":"63.8","orresu":"beats/min","stresc":"63.8","stresn":"63.8","stresu":"beats/min","stnrlo":null,"stnrhi":null,"nrind":null,"pos":null,"loc":null,"dtc":"2024-03-01","dy":"1","visit":"BASELINE","visitnum":"1.0","epoch":"TREATMENT"},{"seq":"5","testcd":"RESP","test":"Respiratory Rate","cat":null,"orres":"16.6","orresu":"breaths/min","stresc":"16.6","stresn":"16.6","stresu":"breaths/min","stnrlo":null,"stnrhi":null,"nrind":null,"pos":null,"loc":null,"dtc":"2024-03-01","dy":"1","visit":"BASELINE","visitnum":"1.0","epoch":"TREATMENT"},{"seq":"6","testcd":"SYSBP","test":"Systolic Blood Pressure","cat":null,"orres":"133.7","orresu":"mmHg","stresc":"133.7","stresn":"133.7","stresu":"mmHg","stnrlo":null,"stnrhi":null,"nrind":null,"pos":null,"loc":null,"dtc":"2024-03-01","dy":"1","visit":"BASELINE","visitnum":"1.0","epoch":"TREATMENT"},{"seq":"7","testcd":"TEMP","test":"Temperature","cat":null,"orres":"37.2","orresu":"C","stresc":"37.2","stresn":"37.2","stresu":"C","stnrlo":null,"stnrhi":null,"nrind":null,"pos":null,"loc":null,"dtc":"2024-03-01","dy":"1","visit":"BASELINE","visitnum":"1.0","epoch":"TREATMENT"},{"seq":"8","testcd":"WEIGHT","test":"Weight","cat":null,"orres":"62.0","orresu":"kg","stresc":"62.0","stresn":"62.0","stresu":"kg","stnrlo":null,"stnrhi":null,"nrind":null,"pos":null,"loc":null,"dtc":"2024-03-01","dy":"1","visit":"BASELINE","visitnum":"1.0","epoch":"TREATMENT"},{"seq":"9","testcd":"DIABP","test":"Diastolic Blood Pressure","cat":null,"orres":"65.8","orresu":"mmHg","stresc":"65.8","stresn":"65.8","stresu":"mmHg","stnrlo":null,"stnrhi":null,"nrind":null,"pos":null,"loc":null,"dtc":"2024-03-03","dy":"3","visit":"DAY 3","visitnum":"2.0","epoch":"TREATMENT"},{"seq":"10","testcd":"HEIGHT","test":"Height","cat":null,"orres":"153.7","orresu":"cm","stresc":"153.7","stresn":"153.7","stresu":"cm","stnrlo":null,"stnrhi":null,"nrind":null,"pos":null,"loc":null,"dtc":"2024-03-03","dy":"3","visit":"DAY 3","visitnum":"2.0","epoch":"TREATMENT"},{"seq":"11","testcd":"PULSE","test":"Pulse Rate","cat":null,"orres":"61.0","orresu":"beats/min","stresc":"61.0","stresn":"61.0","stresu":"beats/min","stnrlo":null,"stnrhi":null,"nrind":null,"pos":null,"loc":null,"dtc":"2024-03-03","dy":"3","visit":"DAY 3","visitnum":"2.0","epoch":"TREATMENT"},{"seq":"12","testcd":"RESP","test":"Respiratory Rate","cat":null,"orres":"16.9","orresu":"breaths/min","stresc":"16.9","stresn":"16.9","stresu":"breaths/min","stnrlo":null,"stnrhi":null,"nrind":null,"pos":null,"loc":null,"dtc":"2024-03-03","dy":"3","visit":"DAY 3","visitnum":"2.0","epoch":"TREATMENT"},{"seq":"13","testcd":"SYSBP","test":"Systolic Blood Pressure","cat":null,"orres":"132.7","orresu":"mmHg","stresc":"132.7","stresn":"132.7","stresu":"mmHg","stnrlo":null,"stnrhi":null,"nrind":null,"pos":null,"loc":null,"dtc":"2024-03-03","dy":"3","visit":"DAY 3","visitnum":"2.0","epoch":"TREATMENT"},{"seq":"14","testcd":"TEMP","test":"Temperature","cat":null,"orres":"37.3","orresu":"C","stresc":"37.3","stresn":"37.3","stresu":"C","stnrlo":null,"stnrhi":null,"nrind":null,"pos":null,"loc":null,"dtc":"2024-03-03","dy":"3","visit":"DAY 3","visitnum":"2.0","epoch":"TREATMENT"},{"seq":"15","testcd":"WEIGHT","test":"Weight","cat":null,"orres":null,"orresu":null,"stresc":null,"stresn":null,"stresu":null,"stnrlo":null,"stnrhi":null,"nrind":null,"pos":null,"loc":null,"dtc":"2024-03-03","dy":"3","visit":"DAY 3","visitnum":"2.0","epoch":"TREATMENT"},{"seq":"16","testcd":"BMI","test":"BMI","cat":null,"orres":"25.7","orresu":"kg/m2","stresc":"25.7","stresn":"25.7","stresu":"kg/m2","stnrlo":null,"stnrhi":null,"nrind":null,"pos":null,"loc":null,"dtc":"2024-03-06","dy":"6","visit":"DAY 5","visitnum":"3.0","epoch":"TREATMENT"},{"seq":"17","testcd":"DIABP","test":"Diastolic Blood Pressure","cat":null,"orres":"65.7","orresu":"mmHg","stresc":"65.7","stresn":"65.7","stresu":"mmHg","stnrlo":null,"stnrhi":null,"nrind":null,"pos":null,"loc":null,"dtc":"2024-03-06","dy":"6","visit":"DAY 5","visitnum":"3.0","epoch":"TREATMENT"},{"seq":"18","testcd":"HEIGHT","test":"Height","cat":null,"orres":"153.8","orresu":"cm","stresc":"153.8","stresn":"153.8","stresu":"cm","stnrlo":null,"stnrhi":null,"nrind":null,"pos":null,"loc":null,"dtc":"2024-03-06","dy":"6","visit":"DAY 5","visitnum":"3.0","epoch":"TREATMENT"},{"seq":"19","testcd":"PULSE","test":"Pulse Rate","cat":null,"orres":"63.5","orresu":"beats/min","stresc":"63.5","stresn":"63.5","stresu":"beats/min","stnrlo":null,"stnrhi":null,"nrind":null,"pos":null,"loc":null,"dtc":"2024-03-06","dy":"6","visit":"DAY 5","visitnum":"3.0","epoch":"TREATMENT"},{"seq":"20","testcd":"RESP","test":"Respiratory Rate","cat":null,"orres":"17.5","orresu":"breaths/min","stresc":"17.5","stresn":"17.5","stresu":"breaths/min","stnrlo":null,"stnrhi":null,"nrind":null,"pos":null,"loc":null,"dtc":"2024-03-06","dy":"6","visit":"DAY 5","visitnum":"3.0","epoch":"TREATMENT"},{"seq":"21","testcd":"SYSBP","test":"Systolic Blood Pressure","cat":null,"orres":"134.2","orresu":"mmHg","stresc":"134.2","stresn":"134.2","stresu":"mmHg","stnrlo":null,"stnrhi":null,"nrind":null,"pos":null,"loc":null,"dtc":"2024-03-06","dy":"6","visit":"DAY 5","visitnum":"3.0","epoch":"TREATMENT"},{"seq":"22","testcd":"TEMP","test":"Temperature","cat":null,"orres":"37.3","orresu":"C","stresc":"37.3","stresn":"37.3","stresu":"C","stnrlo":null,"stnrhi":null,"nrind":null,"pos":null,"loc":null,"dtc":"2024-03-06","dy":"6","visit":"DAY 5","visitnum":"3.0","epoch":"TREATMENT"},{"seq":"23","testcd":"WEIGHT","test":"Weight","cat":null,"orres":"60.9","orresu":"kg","stresc":"60.9","stresn":"60.9","stresu":"kg","stnrlo":null,"stnrhi":null,"nrind":null,"pos":null,"loc":null,"dtc":"2024-03-06","dy":"6","visit":"DAY 5","visitnum":"3.0","epoch":"TREATMENT"},{"seq":"24","testcd":"DIABP","test":"Diastolic Blood Pressure","cat":null,"orres":"67.5","orresu":"mmHg","stresc":"67.5","stresn":"67.5","stresu":"mmHg","stnrlo":null,"stnrhi":null,"nrind":null,"pos":null,"loc":null,"dtc":"2024-03-14","dy":"14","visit":"DAY 14","visitnum":"4.0","epoch":"FOLLOW-UP"},{"seq":"25","testcd":"HEIGHT","test":"Height","cat":null,"orres":null,"orresu":null,"stresc":null,"stresn":null,"stresu":null,"stnrlo":null,"stnrhi":null,"nrind":null,"pos":null,"loc":null,"dtc":"2024-03-14","dy":"14","visit":"DAY 14","visitnum":"4.0","epoch":"FOLLOW-UP"},{"seq":"26","testcd":"PULSE","test":"Pulse Rate","cat":null,"orres":"65.1","orresu":"beats/min","stresc":"65.1","stresn":"65.1","stresu":"beats/min","stnrlo":null,"stnrhi":null,"nrind":null,"pos":null,"loc":null,"dtc":"2024-03-14","dy":"14","visit":"DAY 14","visitnum":"4.0","epoch":"FOLLOW-UP"},{"seq":"27","testcd":"RESP","test":"Respiratory Rate","cat":null,"orres":"16.8","orresu":"breaths/min","stresc":"16.8","stresn":"16.8","stresu":"breaths/min","stnrlo":null,"stnrhi":null,"nrind":null,"pos":null,"loc":null,"dtc":"2024-03-14","dy":"14","visit":"DAY 14","visitnum":"4.0","epoch":"FOLLOW-UP"},{"seq":"28","testcd":"SYSBP","test":"Systolic Blood Pressure","cat":null,"orres":"135.5","orresu":"mmHg","stresc":"135.5","stresn":"135.5","stresu":"mmHg","stnrlo":null,"stnrhi":null,"nrind":null,"pos":null,"loc":null,"dtc":"2024-03-14","dy":"14","visit":"DAY 14","visitnum":"4.0","epoch":"FOLLOW-UP"},{"seq":"29","testcd":"TEMP","test":"Temperature","cat":null,"orres":"37.4","orresu":"C","stresc":"37.4","stresn":"37.4","stresu":"C","stnrlo":null,"stnrhi":null,"nrind":null,"pos":null,"loc":null,"dtc":"2024-03-14","dy":"14","visit":"DAY 14","visitnum":"4.0","epoch":"FOLLOW-UP"},{"seq":"30","testcd":"WEIGHT","test":"Weight","cat":null,"orres":"61.7","orresu":"kg","stresc":"61.7","stresn":"61.7","stresu":"kg","stnrlo":null,"stnrhi":null,"nrind":null,"pos":null,"loc":null,"dtc":"2024-03-14","dy":"14","visit":"DAY 14","visitnum":"4.0","epoch":"FOLLOW-UP"},{"seq":"31","testcd":"BMI","test":"BMI","cat":null,"orres":"26.8","orresu":"kg/m2","stresc":"26.8","stresn":"26.8","stresu":"kg/m2","stnrlo":null,"stnrhi":null,"nrind":null,"pos":null,"loc":null,"dtc":"2024-03-28","dy":"28","visit":"DAY 28","visitnum":"5.0","epoch":"FOLLOW-UP"},{"seq":"32","testcd":"DIABP","test":"Diastolic Blood Pressure","cat":null,"orres":"70.3","orresu":"mmHg","stresc":"70.3","stresn":"70.3","stresu":"mmHg","stnrlo":null,"stnrhi":null,"nrind":null,"pos":null,"loc":null,"dtc":"2024-03-28","dy":"28","visit":"DAY 28","visitnum":"5.0","epoch":"FOLLOW-UP"},{"seq":"33","testcd":"HEIGHT","test":"Height","cat":null,"orres":"153.6","orresu":"cm","stresc":"153.6","stresn":"153.6","stresu":"cm","stnrlo":null,"stnrhi":null,"nrind":null,"pos":null,"loc":null,"dtc":"2024-03-28","dy":"28","visit":"DAY 28","visitnum":"5.0","epoch":"FOLLOW-UP"},{"seq":"34","testcd":"PULSE","test":"Pulse Rate","cat":null,"orres":"64.2","orresu":"beats/min","stresc":"64.2","stresn":"64.2","stresu":"beats/min","stnrlo":null,"stnrhi":null,"nrind":null,"pos":null,"loc":null,"dtc":"2024-03-28","dy":"28","visit":"DAY 28","visitnum":"5.0","epoch":"FOLLOW-UP"},{"seq":"35","testcd":"RESP","test":"Respiratory Rate","cat":null,"orres":"15.4","orresu":"breaths/min","stresc":"15.4","stresn":"15.4","stresu":"breaths/min","stnrlo":null,"stnrhi":null,"nrind":null,"pos":null,"loc":null,"dtc":"2024-03-28","dy":"28","visit":"DAY 28","visitnum":"5.0","epoch":"FOLLOW-UP"},{"seq":"36","testcd":"SYSBP","test":"Systolic Blood Pressure","cat":null,"orres":"138.1","orresu":"mmHg","stresc":"138.1","stresn":"138.1","stresu":"mmHg","stnrlo":null,"stnrhi":null,"nrind":null,"pos":null,"loc":null,"dtc":"2024-03-28","dy":"28","visit":"DAY 28","visitnum":"5.0","epoch":"FOLLOW-UP"},{"seq":"37","testcd":"TEMP","test":"Temperature","cat":null,"orres":"37.4","orresu":"C","stresc":"37.4","stresn":"37.4","stresu":"C","stnrlo":null,"stnrhi":null,"nrind":null,"pos":null,"loc":null,"dtc":"2024-03-28","dy":"28","visit":"DAY 28","visitnum":"5.0","epoch":"FOLLOW-UP"},{"seq":"38","testcd":"WEIGHT","test":"Weight","cat":null,"orres":"63.3","orresu":"kg","stresc":"63.3","stresn":"63.3","stresu":"kg","stnrlo":null,"stnrhi":null,"nrind":null,"pos":null,"loc":null,"dtc":"2024-03-28","dy":"28","visit":"DAY 28","visitnum":"5.0","epoch":"FOLLOW-UP"}]},"section_10_questionnaires_and_scores":{"questionnaires":[],"findings_about":[]},"section_11_protocol_deviations":{"deviations":[{"seq":"1","term":"Visit DAY 14 occurred 0 days late (Day 14 vs planned Day 14)","decod":"VISIT OCCURRED OUTSIDE VISIT WINDOW","cat":"MINOR","scat":"VISIT WINDOW","start_dtc":"2024-03-14","end_dtc":null,"visit":null},{"seq":"2","term":"Visit DAY 28 occurred 0 days late (Day 28 vs planned Day 28)","decod":"VISIT OCCURRED OUTSIDE VISIT WINDOW","cat":"MINOR","scat":"VISIT WINDOW","start_dtc":"2024-03-28","end_dtc":null,"visit":null}],"total":2},"section_12_disposition":{"completion_status":"COMPLETED","disposition_records":[{"seq":"1","term":"INFORMED CONSENT OBTAINED","decod":"INFORMED CONSENT OBTAINED","cat":"PROTOCOL MILESTONE","scat":null,"dtc":"2024-02-20","dy":null,"visit":null,"epoch":"SCREENING"},{"seq":"2","term":"RANDOMIZED","decod":"RANDOMIZED","cat":"PROTOCOL MILESTONE","scat":null,"dtc":"2024-03-01","dy":null,"visit":null,"epoch":"TREATMENT"},{"seq":"3","term":"COMPLETED","decod":"COMPLETED","cat":"DISPOSITION EVENT","scat":null,"dtc":"2024-03-29","dy":null,"visit":null,"epoch":"FOLLOW-UP"}],"death":null},"section_13_hospitalizations":{"items":[],"total":0},"section_14_substance_use":{"items":[{"seq":"1","substance":"ALCOHOL","decod":"ALCOHOL","cat":"ALCOHOL","scat":null,"usage":"Y","dose":"5.0","dosu":"DRINKS/WEEK","freq":"QW","start_dtc":"2007-02-24","end_dtc":null},{"seq":"2","substance":"COFFEE","decod":"COFFEE","cat":"CAFFEINE","scat":null,"usage":"Y","dose":"3.0","dosu":"CUPS/DAY","freq":"QD","start_dtc":"2018-02-21","end_dtc":null},{"seq":"3","substance":"CIGARETTES","decod":"CIGARETTES","cat":"TOBACCO","scat":"CIGARETTES","usage":"N","dose":null,"dosu":null,"freq":null,"start_dtc":null,"end_dtc":null}],"total":3},"section_15_subject_status":{"items":[{"seq":"1","testcd":"SURVSTAT","test":"Survival Status","orres":"ALIVE","stresc":"ALIVE","dtc":"2024-03-14","visit":"DAY 14","epoch":"FOLLOW-UP"},{"seq":"2","testcd":"SURVSTAT","test":"Survival Status","orres":"ALIVE","stresc":"ALIVE","dtc":"2024-03-28","visit":"DAY 28","epoch":"FOLLOW-UP"}],"total":2}}