{"subject_id":"COVID-THER-301-SITE001-0292","study_id":"COVID-THER-301","generated_at":"2026-06-12T05:15:31.027056+00:00","sdtmig_version":"3.4","flags":{"has_serious_ae":false,"has_fatal_ae":false,"has_protocol_deviation":true,"n_protocol_deviations":1,"n_adverse_events":0,"n_concomitant_meds":1,"max_ae_severity":null,"screen_failure":false,"discontinued_early":false,"discontinuation_reason":null,"death":false,"exposure_days":2},"timeline":[{"dtc":"2024-01-19","dy":"-33","event":"INFORMED CONSENT OBTAINED","domain":"DS","category":"milestone"},{"dtc":"2024-02-21","dy":"1","event":"RANDOMIZED","domain":"DS","category":"milestone"},{"dtc":"2024-02-21","dy":"1","event":"FIRST DOSE: PLACEBO","domain":"EX","category":"exposure"},{"dtc":"2024-02-21","dy":"1","event":"DEVIATION: MISSED DOSE","domain":"DV","category":"deviation"},{"dtc":"2024-02-21","dy":"1","event":"VISIT: BASELINE","domain":"SV","category":"visit"},{"dtc":"2024-02-23","dy":"3","event":"VISIT: DAY 3","domain":"SV","category":"visit"},{"dtc":"2024-02-25","dy":"5","event":"VISIT: DAY 5","domain":"SV","category":"visit"},{"dtc":"2024-03-01","dy":"10","event":"CM START: METFORMIN","domain":"CM","category":"concomitant_med"},{"dtc":"2024-03-04","dy":"13","event":"VISIT: DAY 14","domain":"SV","category":"visit"},{"dtc":"2024-03-17","dy":"26","event":"VISIT: DAY 28","domain":"SV","category":"visit"},{"dtc":"2024-03-20","dy":"29","event":"COMPLETED","domain":"DS","category":"milestone"}],"section_1_demographics":{"usubjid":"COVID-THER-301-SITE001-0292","subjid":"0292","siteid":"SITE001","age":"42","ageu":"YEARS","sex":"F","race":"WHITE","ethnicity":"NOT HISPANIC OR LATINO","country":"USA","arm":"Placebo","armcd":"PBO","actarm":"Placebo","actarmcd":"PBO","randomization_date":null,"informed_consent_date":"2024-01-19","reference_start_date":"2024-02-21","reference_end_date":"2024-03-20","screen_failure":false,"death_flag":null,"death_date":null,"subject_characteristics":[{"testcd":"ALCUSE","test":"Alcohol Use","orres":"CURRENT DRINKER","stresc":"CURRENT DRINKER","visit":null,"dtc":"2024-01-19"},{"testcd":"BMI","test":"Body Mass Index","orres":"30.5","stresc":"30.5","visit":null,"dtc":"2024-01-19"},{"testcd":"DURDIS","test":"Duration of Disease","orres":"85 months","stresc":"85","visit":null,"dtc":"2024-01-19"},{"testcd":"TOBUSE","test":"Tobacco Use","orres":"NEVER SMOKED","stresc":"NEVER SMOKED","visit":null,"dtc":"2024-01-19"}]},"section_2_medical_history":{"items":[{"seq":"1","term":"DEPRESSION","decod":"DEPRESSION","cat":"PSYCHIATRIC","scat":null,"presp":null,"occur":null,"status":null,"onset_dtc":"2021-01-19","end_dtc":"2023-07-16","visit":null},{"seq":"2","term":"HYPERLIPIDEMIA","decod":"HYPERLIPIDEMIA","cat":"METABOLIC","scat":null,"presp":null,"occur":null,"status":null,"onset_dtc":"2022-01-19","end_dtc":"2022-07-04","visit":null},{"seq":"3","term":"HYPERTENSION","decod":"HYPERTENSION","cat":"CARDIOVASCULAR","scat":null,"presp":null,"occur":null,"status":null,"onset_dtc":"2017-01-20","end_dtc":null,"visit":null}]},"section_3_inclusion_exclusion":{"criteria":[]},"section_4_trial_participation":{"visits":[{"visitnum":"1.0","visit":"BASELINE","start_dtc":"2024-02-21","end_dtc":"2024-02-21","updes":null},{"visitnum":"2.0","visit":"DAY 3","start_dtc":"2024-02-23","end_dtc":"2024-02-23","updes":null},{"visitnum":"3.0","visit":"DAY 5","start_dtc":"2024-02-25","end_dtc":"2024-02-25","updes":null},{"visitnum":"4.0","visit":"DAY 14","start_dtc":"2024-03-04","end_dtc":"2024-03-04","updes":null},{"visitnum":"5.0","visit":"DAY 28","start_dtc":"2024-03-17","end_dtc":"2024-03-17","updes":null}],"epochs":[{"seq":"1","etcd":"SCRN","element":"Screening","start_dtc":"2024-02-20","end_dtc":"2024-02-21","updes":null},{"seq":"2","etcd":"TRT","element":"Treatment","start_dtc":"2024-02-21","end_dtc":"2024-02-26","updes":null},{"seq":"3","etcd":"FU","element":"Follow-up","start_dtc":"2024-02-26","end_dtc":"2024-03-19","updes":null}],"visit_count":5},"section_5_concomitant_medications":{"medications":[{"seq":"1","trt":"METFORMIN","decod":"METFORMIN","cat":"CONCOMITANT","dose":null,"doseu":null,"dosef":"BID","route":"ORAL","indication":null,"start_dtc":"2024-03-01","end_dtc":"2024-03-20","ongoing":null,"visit":null}]},"section_6_exposure":{"exposure_as_administered":[{"seq":"1","trt":"PLACEBO","dose":"0.0","doseu":null,"dosef":"BID","route":"ORAL","lot":null,"start_dtc":"2024-02-21","end_dtc":"2024-02-23","start_dy":"1","end_dy":"3","epoch":"TREATMENT","visit":null}],"exposure_as_collected":[{"seq":"1","trt":"PLACEBO","dose":null,"doseu":null,"dosef":"BID","route":"ORAL","start_dtc":"2024-02-21","end_dtc":"2024-02-21","visit":"BASELINE"},{"seq":"2","trt":"PLACEBO","dose":null,"doseu":null,"dosef":"BID","route":"ORAL","start_dtc":"2024-02-21","end_dtc":"2024-02-21","visit":"BASELINE"},{"seq":"3","trt":"PLACEBO","dose":null,"doseu":null,"dosef":"BID","route":"ORAL","start_dtc":"2024-02-22","end_dtc":"2024-02-22","visit":"BASELINE"},{"seq":"4","trt":"PLACEBO","dose":null,"doseu":null,"dosef":"BID","route":"ORAL","start_dtc":"2024-02-22","end_dtc":"2024-02-22","visit":"BASELINE"},{"seq":"5","trt":"PLACEBO","dose":null,"doseu":null,"dosef":"BID","route":"ORAL","start_dtc":"2024-02-23","end_dtc":"2024-02-23","visit":"BASELINE"},{"seq":"6","trt":"PLACEBO","dose":null,"doseu":null,"dosef":"BID","route":"ORAL","start_dtc":"2024-02-23","end_dtc":"2024-02-23","visit":"BASELINE"}]},"section_7_adverse_events":{"summary":{"total_aes":0,"serious_aes":0,"fatal_aes":0,"by_severity":{},"by_soc":{}},"events":[]},"section_8_laboratory_results":{"summary":{"total_records":28,"abnormal_count":8,"abnormal_pct":28.6},"shift_summary":[{"testcd":"ALT","baseline_value":36.74,"baseline_nrind":"NORMAL","worst_post_baseline_value":37.37,"worst_post_baseline_nrind":"NORMAL","worst_visit":"DAY 5"},{"testcd":"AST","baseline_value":30.46,"baseline_nrind":"NORMAL","worst_post_baseline_value":30.92,"worst_post_baseline_nrind":"NORMAL","worst_visit":"DAY 5"},{"testcd":"CREAT","baseline_value":31.57,"baseline_nrind":"LOW","worst_post_baseline_value":30.38,"worst_post_baseline_nrind":"LOW","worst_visit":"DAY 3"},{"testcd":"GLUC","baseline_value":5.17,"baseline_nrind":"NORMAL","worst_post_baseline_value":5.33,"worst_post_baseline_nrind":"NORMAL","worst_visit":"DAY 3"},{"testcd":"HGB","baseline_value":118.84,"baseline_nrind":"LOW","worst_post_baseline_value":116.95,"worst_post_baseline_nrind":"LOW","worst_visit":"DAY 5"},{"testcd":"PLAT","baseline_value":199.27,"baseline_nrind":"NORMAL","worst_post_baseline_value":221.46,"worst_post_baseline_nrind":"NORMAL","worst_visit":"DAY 5"},{"testcd":"WBC","baseline_value":7.84,"baseline_nrind":"NORMAL","worst_post_baseline_value":8.2,"worst_post_baseline_nrind":"NORMAL","worst_visit":"DAY 14"}],"results":[{"seq":"1","testcd":"ALT","test":"Alanine Aminotransferase","cat":"CHEMISTRY","orres":"36.74","orresu":"U/L","stresc":"36.74","stresn":"36.74","stresu":"U/L","stnrlo":"7","stnrhi":"56","nrind":"NORMAL","fast":null,"dtc":"2024-02-21","dy":"1","visit":"BASELINE","visitnum":"1.0","epoch":"TREATMENT","spec":null,"method":null},{"seq":"2","testcd":"AST","test":"Aspartate Aminotransferase","cat":"CHEMISTRY","orres":"30.46","orresu":"U/L","stresc":"30.46","stresn":"30.46","stresu":"U/L","stnrlo":"10","stnrhi":"40","nrind":"NORMAL","fast":null,"dtc":"2024-02-21","dy":"1","visit":"BASELINE","visitnum":"1.0","epoch":"TREATMENT","spec":null,"method":null},{"seq":"3","testcd":"CREAT","test":"Creatinine","cat":"CHEMISTRY","orres":"31.57","orresu":"umol/L","stresc":"31.57","stresn":"31.57","stresu":"umol/L","stnrlo":"44","stnrhi":"80","nrind":"LOW","fast":null,"dtc":"2024-02-21","dy":"1","visit":"BASELINE","visitnum":"1.0","epoch":"TREATMENT","spec":null,"method":null},{"seq":"4","testcd":"GLUC","test":"Glucose","cat":"CHEMISTRY","orres":"5.17","orresu":"mmol/L","stresc":"5.17","stresn":"5.17","stresu":"mmol/L","stnrlo":"3.9","stnrhi":"5.6","nrind":"NORMAL","fast":null,"dtc":"2024-02-21","dy":"1","visit":"BASELINE","visitnum":"1.0","epoch":"TREATMENT","spec":null,"method":null},{"seq":"5","testcd":"HGB","test":"Hemoglobin","cat":"HEMATOLOGY","orres":"118.84","orresu":"g/L","stresc":"118.84","stresn":"118.84","stresu":"g/L","stnrlo":"120","stnrhi":"155","nrind":"LOW","fast":null,"dtc":"2024-02-21","dy":"1","visit":"BASELINE","visitnum":"1.0","epoch":"TREATMENT","spec":null,"method":null},{"seq":"6","testcd":"PLAT","test":"Platelets","cat":"HEMATOLOGY","orres":"199.27","orresu":"10^9/L","stresc":"199.27","stresn":"199.27","stresu":"10^9/L","stnrlo":"150","stnrhi":"400","nrind":"NORMAL","fast":null,"dtc":"2024-02-21","dy":"1","visit":"BASELINE","visitnum":"1.0","epoch":"TREATMENT","spec":null,"method":null},{"seq":"7","testcd":"WBC","test":"Leukocytes","cat":"HEMATOLOGY","orres":"7.84","orresu":"10^9/L","stresc":"7.84","stresn":"7.84","stresu":"10^9/L","stnrlo":"4.0","stnrhi":"11.0","nrind":"NORMAL","fast":null,"dtc":"2024-02-21","dy":"1","visit":"BASELINE","visitnum":"1.0","epoch":"TREATMENT","spec":null,"method":null},{"seq":"8","testcd":"ALT","test":"Alanine Aminotransferase","cat":"CHEMISTRY","orres":"36.21","orresu":"U/L","stresc":"36.21","stresn":"36.21","stresu":"U/L","stnrlo":"7","stnrhi":"56","nrind":"NORMAL","fast":null,"dtc":"2024-02-23","dy":"3","visit":"DAY 3","visitnum":"2.0","epoch":"TREATMENT","spec":null,"method":null},{"seq":"9","testcd":"AST","test":"Aspartate Aminotransferase","cat":"CHEMISTRY","orres":"30.18","orresu":"U/L","stresc":"30.18","stresn":"30.18","stresu":"U/L","stnrlo":"10","stnrhi":"40","nrind":"NORMAL","fast":null,"dtc":"2024-02-23","dy":"3","visit":"DAY 3","visitnum":"2.0","epoch":"TREATMENT","spec":null,"method":null},{"seq":"10","testcd":"CREAT","test":"Creatinine","cat":"CHEMISTRY","orres":"30.38","orresu":"umol/L","stresc":"30.38","stresn":"30.38","stresu":"umol/L","stnrlo":"44","stnrhi":"80","nrind":"LOW","fast":null,"dtc":"2024-02-23","dy":"3","visit":"DAY 3","visitnum":"2.0","epoch":"TREATMENT","spec":null,"method":null},{"seq":"11","testcd":"GLUC","test":"Glucose","cat":"CHEMISTRY","orres":"5.33","orresu":"mmol/L","stresc":"5.33","stresn":"5.33","stresu":"mmol/L","stnrlo":"3.9","stnrhi":"5.6","nrind":"NORMAL","fast":null,"dtc":"2024-02-23","dy":"3","visit":"DAY 3","visitnum":"2.0","epoch":"TREATMENT","spec":null,"method":null},{"seq":"12","testcd":"HGB","test":"Hemoglobin","cat":"HEMATOLOGY","orres":"118.48","orresu":"g/L","stresc":"118.48","stresn":"118.48","stresu":"g/L","stnrlo":"120","stnrhi":"155","nrind":"LOW","fast":null,"dtc":"2024-02-23","dy":"3","visit":"DAY 3","visitnum":"2.0","epoch":"TREATMENT","spec":null,"method":null},{"seq":"13","testcd":"PLAT","test":"Platelets","cat":"HEMATOLOGY","orres":"215.08","orresu":"10^9/L","stresc":"215.08","stresn":"215.08","stresu":"10^9/L","stnrlo":"150","stnrhi":"400","nrind":"NORMAL","fast":null,"dtc":"2024-02-23","dy":"3","visit":"DAY 3","visitnum":"2.0","epoch":"TREATMENT","spec":null,"method":null},{"seq":"14","testcd":"WBC","test":"Leukocytes","cat":"HEMATOLOGY","orres":"7.9","orresu":"10^9/L","stresc":"7.9","stresn":"7.9","stresu":"10^9/L","stnrlo":"4.0","stnrhi":"11.0","nrind":"NORMAL","fast":null,"dtc":"2024-02-23","dy":"3","visit":"DAY 3","visitnum":"2.0","epoch":"TREATMENT","spec":null,"method":null},{"seq":"15","testcd":"ALT","test":"Alanine Aminotransferase","cat":"CHEMISTRY","orres":"37.37","orresu":"U/L","stresc":"37.37","stresn":"37.37","stresu":"U/L","stnrlo":"7","stnrhi":"56","nrind":"NORMAL","fast":null,"dtc":"2024-02-25","dy":"5","visit":"DAY 5","visitnum":"3.0","epoch":"TREATMENT","spec":null,"method":null},{"seq":"16","testcd":"AST","test":"Aspartate Aminotransferase","cat":"CHEMISTRY","orres":"30.92","orresu":"U/L","stresc":"30.92","stresn":"30.92","stresu":"U/L","stnrlo":"10","stnrhi":"40","nrind":"NORMAL","fast":null,"dtc":"2024-02-25","dy":"5","visit":"DAY 5","visitnum":"3.0","epoch":"TREATMENT","spec":null,"method":null},{"seq":"17","testcd":"CREAT","test":"Creatinine","cat":"CHEMISTRY","orres":"30.0","orresu":"umol/L","stresc":"30.0","stresn":"30.0","stresu":"umol/L","stnrlo":"44","stnrhi":"80","nrind":"LOW","fast":null,"dtc":"2024-02-25","dy":"5","visit":"DAY 5","visitnum":"3.0","epoch":"TREATMENT","spec":null,"method":null},{"seq":"18","testcd":"GLUC","test":"Glucose","cat":"CHEMISTRY","orres":"5.09","orresu":"mmol/L","stresc":"5.09","stresn":"5.09","stresu":"mmol/L","stnrlo":"3.9","stnrhi":"5.6","nrind":"NORMAL","fast":null,"dtc":"2024-02-25","dy":"5","visit":"DAY 5","visitnum":"3.0","epoch":"TREATMENT","spec":null,"method":null},{"seq":"19","testcd":"HGB","test":"Hemoglobin","cat":"HEMATOLOGY","orres":"116.95","orresu":"g/L","stresc":"116.95","stresn":"116.95","stresu":"g/L","stnrlo":"120","stnrhi":"155","nrind":"LOW","fast":null,"dtc":"2024-02-25","dy":"5","visit":"DAY 5","visitnum":"3.0","epoch":"TREATMENT","spec":null,"method":null},{"seq":"20","testcd":"PLAT","test":"Platelets","cat":"HEMATOLOGY","orres":"221.46","orresu":"10^9/L","stresc":"221.46","stresn":"221.46","stresu":"10^9/L","stnrlo":"150","stnrhi":"400","nrind":"NORMAL","fast":null,"dtc":"2024-02-25","dy":"5","visit":"DAY 5","visitnum":"3.0","epoch":"TREATMENT","spec":null,"method":null},{"seq":"21","testcd":"WBC","test":"Leukocytes","cat":"HEMATOLOGY","orres":"7.5","orresu":"10^9/L","stresc":"7.5","stresn":"7.5","stresu":"10^9/L","stnrlo":"4.0","stnrhi":"11.0","nrind":"NORMAL","fast":null,"dtc":"2024-02-25","dy":"5","visit":"DAY 5","visitnum":"3.0","epoch":"TREATMENT","spec":null,"method":null},{"seq":"22","testcd":"ALT","test":"Alanine Aminotransferase","cat":"CHEMISTRY","orres":"36.3","orresu":"U/L","stresc":"36.3","stresn":"36.3","stresu":"U/L","stnrlo":"7","stnrhi":"56","nrind":"NORMAL","fast":null,"dtc":"2024-03-04","dy":"13","visit":"DAY 14","visitnum":"4.0","epoch":"FOLLOW-UP","spec":null,"method":null},{"seq":"23","testcd":"AST","test":"Aspartate Aminotransferase","cat":"CHEMISTRY","orres":"30.7","orresu":"U/L","stresc":"30.7","stresn":"30.7","stresu":"U/L","stnrlo":"10","stnrhi":"40","nrind":"NORMAL","fast":null,"dtc":"2024-03-04","dy":"13","visit":"DAY 14","visitnum":"4.0","epoch":"FOLLOW-UP","spec":null,"method":null},{"seq":"24","testcd":"CREAT","test":"Creatinine","cat":"CHEMISTRY","orres":"30.0","orresu":"umol/L","stresc":"30.0","stresn":"30.0","stresu":"umol/L","stnrlo":"44","stnrhi":"80","nrind":"LOW","fast":null,"dtc":"2024-03-04","dy":"13","visit":"DAY 14","visitnum":"4.0","epoch":"FOLLOW-UP","spec":null,"method":null},{"seq":"25","testcd":"GLUC","test":"Glucose","cat":"CHEMISTRY","orres":"5.15","orresu":"mmol/L","stresc":"5.15","stresn":"5.15","stresu":"mmol/L","stnrlo":"3.9","stnrhi":"5.6","nrind":"NORMAL","fast":null,"dtc":"2024-03-04","dy":"13","visit":"DAY 14","visitnum":"4.0","epoch":"FOLLOW-UP","spec":null,"method":null},{"seq":"26","testcd":"HGB","test":"Hemoglobin","cat":"HEMATOLOGY","orres":"117.32","orresu":"g/L","stresc":"117.32","stresn":"117.32","stresu":"g/L","stnrlo":"120","stnrhi":"155","nrind":"LOW","fast":null,"dtc":"2024-03-04","dy":"13","visit":"DAY 14","visitnum":"4.0","epoch":"FOLLOW-UP","spec":null,"method":null},{"seq":"27","testcd":"PLAT","test":"Platelets","cat":"HEMATOLOGY","orres":"212.48","orresu":"10^9/L","stresc":"212.48","stresn":"212.48","stresu":"10^9/L","stnrlo":"150","stnrhi":"400","nrind":"NORMAL","fast":null,"dtc":"2024-03-04","dy":"13","visit":"DAY 14","visitnum":"4.0","epoch":"FOLLOW-UP","spec":null,"method":null},{"seq":"28","testcd":"WBC","test":"Leukocytes","cat":"HEMATOLOGY","orres":"8.2","orresu":"10^9/L","stresc":"8.2","stresn":"8.2","stresu":"10^9/L","stnrlo":"4.0","stnrhi":"11.0","nrind":"NORMAL","fast":null,"dtc":"2024-03-04","dy":"13","visit":"DAY 14","visitnum":"4.0","epoch":"FOLLOW-UP","spec":null,"method":null}]},"section_9_vital_signs":{"summary":{"total_records":40},"trends":{"BMI":[{"visit":"BASELINE","visitnum":"1.0","dtc":"2024-02-21","value":"30.5","unit":"kg/m2"},{"visit":"DAY 3","visitnum":"2.0","dtc":"2024-02-23","value":"31.2","unit":"kg/m2"},{"visit":"DAY 5","visitnum":"3.0","dtc":"2024-02-25","value":"30.9","unit":"kg/m2"},{"visit":"DAY 14","visitnum":"4.0","dtc":"2024-03-04","value":"30.8","unit":"kg/m2"},{"visit":"DAY 28","visitnum":"5.0","dtc":"2024-03-17","value":"30.7","unit":"kg/m2"}],"DIABP":[{"visit":"BASELINE","visitnum":"1.0","dtc":"2024-02-21","value":"87.3","unit":"mmHg"},{"visit":"DAY 3","visitnum":"2.0","dtc":"2024-02-23","value":"86.5","unit":"mmHg"},{"visit":"DAY 5","visitnum":"3.0","dtc":"2024-02-25","value":"84.5","unit":"mmHg"},{"visit":"DAY 14","visitnum":"4.0","dtc":"2024-03-04","value":"84.5","unit":"mmHg"},{"visit":"DAY 28","visitnum":"5.0","dtc":"2024-03-17","value":"87.3","unit":"mmHg"}],"HEIGHT":[{"visit":"BASELINE","visitnum":"1.0","dtc":"2024-02-21","value":"164.0","unit":"cm"},{"visit":"DAY 3","visitnum":"2.0","dtc":"2024-02-23","value":"164.0","unit":"cm"},{"visit":"DAY 5","visitnum":"3.0","dtc":"2024-02-25","value":"163.7","unit":"cm"},{"visit":"DAY 14","visitnum":"4.0","dtc":"2024-03-04","value":"164.7","unit":"cm"},{"visit":"DAY 28","visitnum":"5.0","dtc":"2024-03-17","value":"164.5","unit":"cm"}],"PULSE":[{"visit":"BASELINE","visitnum":"1.0","dtc":"2024-02-21","value":"63.4","unit":"beats/min"},{"visit":"DAY 3","visitnum":"2.0","dtc":"2024-02-23","value":"60.8","unit":"beats/min"},{"visit":"DAY 5","visitnum":"3.0","dtc":"2024-02-25","value":"59.7","unit":"beats/min"},{"visit":"DAY 14","visitnum":"4.0","dtc":"2024-03-04","value":"57.8","unit":"beats/min"},{"visit":"DAY 28","visitnum":"5.0","dtc":"2024-03-17","value":"57.6","unit":"beats/min"}],"RESP":[{"visit":"BASELINE","visitnum":"1.0","dtc":"2024-02-21","value":"10.4","unit":"breaths/min"},{"visit":"DAY 3","visitnum":"2.0","dtc":"2024-02-23","value":"10.7","unit":"breaths/min"},{"visit":"DAY 5","visitnum":"3.0","dtc":"2024-02-25","value":"11.7","unit":"breaths/min"},{"visit":"DAY 14","visitnum":"4.0","dtc":"2024-03-04","value":"9.8","unit":"breaths/min"},{"visit":"DAY 28","visitnum":"5.0","dtc":"2024-03-17","value":"9.7","unit":"breaths/min"}],"SYSBP":[{"visit":"BASELINE","visitnum":"1.0","dtc":"2024-02-21","value":"121.7","unit":"mmHg"},{"visit":"DAY 3","visitnum":"2.0","dtc":"2024-02-23","value":"120.4","unit":"mmHg"},{"visit":"DAY 5","visitnum":"3.0","dtc":"2024-02-25","value":"119.5","unit":"mmHg"},{"visit":"DAY 14","visitnum":"4.0","dtc":"2024-03-04","value":"118.9","unit":"mmHg"},{"visit":"DAY 28","visitnum":"5.0","dtc":"2024-03-17","value":"123.0","unit":"mmHg"}],"TEMP":[{"visit":"BASELINE","visitnum":"1.0","dtc":"2024-02-21","value":"37.4","unit":"C"},{"visit":"DAY 3","visitnum":"2.0","dtc":"2024-02-23","value":"37.6","unit":"C"},{"visit":"DAY 5","visitnum":"3.0","dtc":"2024-02-25","value":"37.3","unit":"C"},{"visit":"DAY 28","visitnum":"5.0","dtc":"2024-03-17","value":"37.3","unit":"C"}],"WEIGHT":[{"visit":"BASELINE","visitnum":"1.0","dtc":"2024-02-21","value":"82.1","unit":"kg"},{"visit":"DAY 3","visitnum":"2.0","dtc":"2024-02-23","value":"83.9","unit":"kg"},{"visit":"DAY 5","visitnum":"3.0","dtc":"2024-02-25","value":"82.9","unit":"kg"},{"visit":"DAY 14","visitnum":"4.0","dtc":"2024-03-04","value":"83.5","unit":"kg"},{"visit":"DAY 28","visitnum":"5.0","dtc":"2024-03-17","value":"83.1","unit":"kg"}]},"results":[{"seq":"1","testcd":"BMI","test":"BMI","cat":null,"orres":"30.5","orresu":"kg/m2","stresc":"30.5","stresn":"30.5","stresu":"kg/m2","stnrlo":null,"stnrhi":null,"nrind":null,"pos":null,"loc":null,"dtc":"2024-02-21","dy":"1","visit":"BASELINE","visitnum":"1.0","epoch":"TREATMENT"},{"seq":"2","testcd":"DIABP","test":"Diastolic Blood Pressure","cat":null,"orres":"87.3","orresu":"mmHg","stresc":"87.3","stresn":"87.3","stresu":"mmHg","stnrlo":null,"stnrhi":null,"nrind":null,"pos":null,"loc":null,"dtc":"2024-02-21","dy":"1","visit":"BASELINE","visitnum":"1.0","epoch":"TREATMENT"},{"seq":"3","testcd":"HEIGHT","test":"Height","cat":null,"orres":"164.0","orresu":"cm","stresc":"164.0","stresn":"164.0","stresu":"cm","stnrlo":null,"stnrhi":null,"nrind":null,"pos":null,"loc":null,"dtc":"2024-02-21","dy":"1","visit":"BASELINE","visitnum":"1.0","epoch":"TREATMENT"},{"seq":"4","testcd":"PULSE","test":"Pulse Rate","cat":null,"orres":"63.4","orresu":"beats/min","stresc":"63.4","stresn":"63.4","stresu":"beats/min","stnrlo":null,"stnrhi":null,"nrind":null,"pos":null,"loc":null,"dtc":"2024-02-21","dy":"1","visit":"BASELINE","visitnum":"1.0","epoch":"TREATMENT"},{"seq":"5","testcd":"RESP","test":"Respiratory Rate","cat":null,"orres":"10.4","orresu":"breaths/min","stresc":"10.4","stresn":"10.4","stresu":"breaths/min","stnrlo":null,"stnrhi":null,"nrind":null,"pos":null,"loc":null,"dtc":"2024-02-21","dy":"1","visit":"BASELINE","visitnum":"1.0","epoch":"TREATMENT"},{"seq":"6","testcd":"SYSBP","test":"Systolic Blood Pressure","cat":null,"orres":"121.7","orresu":"mmHg","stresc":"121.7","stresn":"121.7","stresu":"mmHg","stnrlo":null,"stnrhi":null,"nrind":null,"pos":null,"loc":null,"dtc":"2024-02-21","dy":"1","visit":"BASELINE","visitnum":"1.0","epoch":"TREATMENT"},{"seq":"7","testcd":"TEMP","test":"Temperature","cat":null,"orres":"37.4","orresu":"C","stresc":"37.4","stresn":"37.4","stresu":"C","stnrlo":null,"stnrhi":null,"nrind":null,"pos":null,"loc":null,"dtc":"2024-02-21","dy":"1","visit":"BASELINE","visitnum":"1.0","epoch":"TREATMENT"},{"seq":"8","testcd":"WEIGHT","test":"Weight","cat":null,"orres":"82.1","orresu":"kg","stresc":"82.1","stresn":"82.1","stresu":"kg","stnrlo":null,"stnrhi":null,"nrind":null,"pos":null,"loc":null,"dtc":"2024-02-21","dy":"1","visit":"BASELINE","visitnum":"1.0","epoch":"TREATMENT"},{"seq":"9","testcd":"BMI","test":"BMI","cat":null,"orres":"31.2","orresu":"kg/m2","stresc":"31.2","stresn":"31.2","stresu":"kg/m2","stnrlo":null,"stnrhi":null,"nrind":null,"pos":null,"loc":null,"dtc":"2024-02-23","dy":"3","visit":"DAY 3","visitnum":"2.0","epoch":"TREATMENT"},{"seq":"10","testcd":"DIABP","test":"Diastolic Blood Pressure","cat":null,"orres":"86.5","orresu":"mmHg","stresc":"86.5","stresn":"86.5","stresu":"mmHg","stnrlo":null,"stnrhi":null,"nrind":null,"pos":null,"loc":null,"dtc":"2024-02-23","dy":"3","visit":"DAY 3","visitnum":"2.0","epoch":"TREATMENT"},{"seq":"11","testcd":"HEIGHT","test":"Height","cat":null,"orres":"164.0","orresu":"cm","stresc":"164.0","stresn":"164.0","stresu":"cm","stnrlo":null,"stnrhi":null,"nrind":null,"pos":null,"loc":null,"dtc":"2024-02-23","dy":"3","visit":"DAY 3","visitnum":"2.0","epoch":"TREATMENT"},{"seq":"12","testcd":"PULSE","test":"Pulse Rate","cat":null,"orres":"60.8","orresu":"beats/min","stresc":"60.8","stresn":"60.8","stresu":"beats/min","stnrlo":null,"stnrhi":null,"nrind":null,"pos":null,"loc":null,"dtc":"2024-02-23","dy":"3","visit":"DAY 3","visitnum":"2.0","epoch":"TREATMENT"},{"seq":"13","testcd":"RESP","test":"Respiratory Rate","cat":null,"orres":"10.7","orresu":"breaths/min","stresc":"10.7","stresn":"10.7","stresu":"breaths/min","stnrlo":null,"stnrhi":null,"nrind":null,"pos":null,"loc":null,"dtc":"2024-02-23","dy":"3","visit":"DAY 3","visitnum":"2.0","epoch":"TREATMENT"},{"seq":"14","testcd":"SYSBP","test":"Systolic Blood Pressure","cat":null,"orres":"120.4","orresu":"mmHg","stresc":"120.4","stresn":"120.4","stresu":"mmHg","stnrlo":null,"stnrhi":null,"nrind":null,"pos":null,"loc":null,"dtc":"2024-02-23","dy":"3","visit":"DAY 3","visitnum":"2.0","epoch":"TREATMENT"},{"seq":"15","testcd":"TEMP","test":"Temperature","cat":null,"orres":"37.6","orresu":"C","stresc":"37.6","stresn":"37.6","stresu":"C","stnrlo":null,"stnrhi":null,"nrind":null,"pos":null,"loc":null,"dtc":"2024-02-23","dy":"3","visit":"DAY 3","visitnum":"2.0","epoch":"TREATMENT"},{"seq":"16","testcd":"WEIGHT","test":"Weight","cat":null,"orres":"83.9","orresu":"kg","stresc":"83.9","stresn":"83.9","stresu":"kg","stnrlo":null,"stnrhi":null,"nrind":null,"pos":null,"loc":null,"dtc":"2024-02-23","dy":"3","visit":"DAY 3","visitnum":"2.0","epoch":"TREATMENT"},{"seq":"17","testcd":"BMI","test":"BMI","cat":null,"orres":"30.9","orresu":"kg/m2","stresc":"30.9","stresn":"30.9","stresu":"kg/m2","stnrlo":null,"stnrhi":null,"nrind":null,"pos":null,"loc":null,"dtc":"2024-02-25","dy":"5","visit":"DAY 5","visitnum":"3.0","epoch":"TREATMENT"},{"seq":"18","testcd":"DIABP","test":"Diastolic Blood Pressure","cat":null,"orres":"84.5","orresu":"mmHg","stresc":"84.5","stresn":"84.5","stresu":"mmHg","stnrlo":null,"stnrhi":null,"nrind":null,"pos":null,"loc":null,"dtc":"2024-02-25","dy":"5","visit":"DAY 5","visitnum":"3.0","epoch":"TREATMENT"},{"seq":"19","testcd":"HEIGHT","test":"Height","cat":null,"orres":"163.7","orresu":"cm","stresc":"163.7","stresn":"163.7","stresu":"cm","stnrlo":null,"stnrhi":null,"nrind":null,"pos":null,"loc":null,"dtc":"2024-02-25","dy":"5","visit":"DAY 5","visitnum":"3.0","epoch":"TREATMENT"},{"seq":"20","testcd":"PULSE","test":"Pulse Rate","cat":null,"orres":"59.7","orresu":"beats/min","stresc":"59.7","stresn":"59.7","stresu":"beats/min","stnrlo":null,"stnrhi":null,"nrind":null,"pos":null,"loc":null,"dtc":"2024-02-25","dy":"5","visit":"DAY 5","visitnum":"3.0","epoch":"TREATMENT"},{"seq":"21","testcd":"RESP","test":"Respiratory Rate","cat":null,"orres":"11.7","orresu":"breaths/min","stresc":"11.7","stresn":"11.7","stresu":"breaths/min","stnrlo":null,"stnrhi":null,"nrind":null,"pos":null,"loc":null,"dtc":"2024-02-25","dy":"5","visit":"DAY 5","visitnum":"3.0","epoch":"TREATMENT"},{"seq":"22","testcd":"SYSBP","test":"Systolic Blood Pressure","cat":null,"orres":"119.5","orresu":"mmHg","stresc":"119.5","stresn":"119.5","stresu":"mmHg","stnrlo":null,"stnrhi":null,"nrind":null,"pos":null,"loc":null,"dtc":"2024-02-25","dy":"5","visit":"DAY 5","visitnum":"3.0","epoch":"TREATMENT"},{"seq":"23","testcd":"TEMP","test":"Temperature","cat":null,"orres":"37.3","orresu":"C","stresc":"37.3","stresn":"37.3","stresu":"C","stnrlo":null,"stnrhi":null,"nrind":null,"pos":null,"loc":null,"dtc":"2024-02-25","dy":"5","visit":"DAY 5","visitnum":"3.0","epoch":"TREATMENT"},{"seq":"24","testcd":"WEIGHT","test":"Weight","cat":null,"orres":"82.9","orresu":"kg","stresc":"82.9","stresn":"82.9","stresu":"kg","stnrlo":null,"stnrhi":null,"nrind":null,"pos":null,"loc":null,"dtc":"2024-02-25","dy":"5","visit":"DAY 5","visitnum":"3.0","epoch":"TREATMENT"},{"seq":"25","testcd":"BMI","test":"BMI","cat":null,"orres":"30.8","orresu":"kg/m2","stresc":"30.8","stresn":"30.8","stresu":"kg/m2","stnrlo":null,"stnrhi":null,"nrind":null,"pos":null,"loc":null,"dtc":"2024-03-04","dy":"13","visit":"DAY 14","visitnum":"4.0","epoch":"FOLLOW-UP"},{"seq":"26","testcd":"DIABP","test":"Diastolic Blood Pressure","cat":null,"orres":"84.5","orresu":"mmHg","stresc":"84.5","stresn":"84.5","stresu":"mmHg","stnrlo":null,"stnrhi":null,"nrind":null,"pos":null,"loc":null,"dtc":"2024-03-04","dy":"13","visit":"DAY 14","visitnum":"4.0","epoch":"FOLLOW-UP"},{"seq":"27","testcd":"HEIGHT","test":"Height","cat":null,"orres":"164.7","orresu":"cm","stresc":"164.7","stresn":"164.7","stresu":"cm","stnrlo":null,"stnrhi":null,"nrind":null,"pos":null,"loc":null,"dtc":"2024-03-04","dy":"13","visit":"DAY 14","visitnum":"4.0","epoch":"FOLLOW-UP"},{"seq":"28","testcd":"PULSE","test":"Pulse Rate","cat":null,"orres":"57.8","orresu":"beats/min","stresc":"57.8","stresn":"57.8","stresu":"beats/min","stnrlo":null,"stnrhi":null,"nrind":null,"pos":null,"loc":null,"dtc":"2024-03-04","dy":"13","visit":"DAY 14","visitnum":"4.0","epoch":"FOLLOW-UP"},{"seq":"29","testcd":"RESP","test":"Respiratory Rate","cat":null,"orres":"9.8","orresu":"breaths/min","stresc":"9.8","stresn":"9.8","stresu":"breaths/min","stnrlo":null,"stnrhi":null,"nrind":null,"pos":null,"loc":null,"dtc":"2024-03-04","dy":"13","visit":"DAY 14","visitnum":"4.0","epoch":"FOLLOW-UP"},{"seq":"30","testcd":"SYSBP","test":"Systolic Blood Pressure","cat":null,"orres":"118.9","orresu":"mmHg","stresc":"118.9","stresn":"118.9","stresu":"mmHg","stnrlo":null,"stnrhi":null,"nrind":null,"pos":null,"loc":null,"dtc":"2024-03-04","dy":"13","visit":"DAY 14","visitnum":"4.0","epoch":"FOLLOW-UP"},{"seq":"31","testcd":"TEMP","test":"Temperature","cat":null,"orres":null,"orresu":null,"stresc":null,"stresn":null,"stresu":null,"stnrlo":null,"stnrhi":null,"nrind":null,"pos":null,"loc":null,"dtc":"2024-03-04","dy":"13","visit":"DAY 14","visitnum":"4.0","epoch":"FOLLOW-UP"},{"seq":"32","testcd":"WEIGHT","test":"Weight","cat":null,"orres":"83.5","orresu":"kg","stresc":"83.5","stresn":"83.5","stresu":"kg","stnrlo":null,"stnrhi":null,"nrind":null,"pos":null,"loc":null,"dtc":"2024-03-04","dy":"13","visit":"DAY 14","visitnum":"4.0","epoch":"FOLLOW-UP"},{"seq":"33","testcd":"BMI","test":"BMI","cat":null,"orres":"30.7","orresu":"kg/m2","stresc":"30.7","stresn":"30.7","stresu":"kg/m2","stnrlo":null,"stnrhi":null,"nrind":null,"pos":null,"loc":null,"dtc":"2024-03-17","dy":"26","visit":"DAY 28","visitnum":"5.0","epoch":"FOLLOW-UP"},{"seq":"34","testcd":"DIABP","test":"Diastolic Blood Pressure","cat":null,"orres":"87.3","orresu":"mmHg","stresc":"87.3","stresn":"87.3","stresu":"mmHg","stnrlo":null,"stnrhi":null,"nrind":null,"pos":null,"loc":null,"dtc":"2024-03-17","dy":"26","visit":"DAY 28","visitnum":"5.0","epoch":"FOLLOW-UP"},{"seq":"35","testcd":"HEIGHT","test":"Height","cat":null,"orres":"164.5","orresu":"cm","stresc":"164.5","stresn":"164.5","stresu":"cm","stnrlo":null,"stnrhi":null,"nrind":null,"pos":null,"loc":null,"dtc":"2024-03-17","dy":"26","visit":"DAY 28","visitnum":"5.0","epoch":"FOLLOW-UP"},{"seq":"36","testcd":"PULSE","test":"Pulse Rate","cat":null,"orres":"57.6","orresu":"beats/min","stresc":"57.6","stresn":"57.6","stresu":"beats/min","stnrlo":null,"stnrhi":null,"nrind":null,"pos":null,"loc":null,"dtc":"2024-03-17","dy":"26","visit":"DAY 28","visitnum":"5.0","epoch":"FOLLOW-UP"},{"seq":"37","testcd":"RESP","test":"Respiratory Rate","cat":null,"orres":"9.7","orresu":"breaths/min","stresc":"9.7","stresn":"9.7","stresu":"breaths/min","stnrlo":null,"stnrhi":null,"nrind":null,"pos":null,"loc":null,"dtc":"2024-03-17","dy":"26","visit":"DAY 28","visitnum":"5.0","epoch":"FOLLOW-UP"},{"seq":"38","testcd":"SYSBP","test":"Systolic Blood Pressure","cat":null,"orres":"123.0","orresu":"mmHg","stresc":"123.0","stresn":"123.0","stresu":"mmHg","stnrlo":null,"stnrhi":null,"nrind":null,"pos":null,"loc":null,"dtc":"2024-03-17","dy":"26","visit":"DAY 28","visitnum":"5.0","epoch":"FOLLOW-UP"},{"seq":"39","testcd":"TEMP","test":"Temperature","cat":null,"orres":"37.3","orresu":"C","stresc":"37.3","stresn":"37.3","stresu":"C","stnrlo":null,"stnrhi":null,"nrind":null,"pos":null,"loc":null,"dtc":"2024-03-17","dy":"26","visit":"DAY 28","visitnum":"5.0","epoch":"FOLLOW-UP"},{"seq":"40","testcd":"WEIGHT","test":"Weight","cat":null,"orres":"83.1","orresu":"kg","stresc":"83.1","stresn":"83.1","stresu":"kg","stnrlo":null,"stnrhi":null,"nrind":null,"pos":null,"loc":null,"dtc":"2024-03-17","dy":"26","visit":"DAY 28","visitnum":"5.0","epoch":"FOLLOW-UP"}]},"section_10_questionnaires_and_scores":{"questionnaires":[],"findings_about":[]},"section_11_protocol_deviations":{"deviations":[{"seq":"1","term":"Missed PLACEBO dose on 2024-02-21","decod":"MISSED DOSE","cat":"MINOR","scat":"DOSING","start_dtc":"2024-02-21","end_dtc":null,"visit":null}],"total":1},"section_12_disposition":{"completion_status":"COMPLETED","disposition_records":[{"seq":"1","term":"INFORMED CONSENT OBTAINED","decod":"INFORMED CONSENT OBTAINED","cat":"PROTOCOL MILESTONE","scat":null,"dtc":"2024-01-19","dy":null,"visit":null,"epoch":"SCREENING"},{"seq":"2","term":"RANDOMIZED","decod":"RANDOMIZED","cat":"PROTOCOL MILESTONE","scat":null,"dtc":"2024-02-21","dy":null,"visit":null,"epoch":"TREATMENT"},{"seq":"3","term":"COMPLETED","decod":"COMPLETED","cat":"DISPOSITION EVENT","scat":null,"dtc":"2024-03-20","dy":null,"visit":null,"epoch":"FOLLOW-UP"}],"death":null},"section_13_hospitalizations":{"items":[],"total":0},"section_14_substance_use":{"items":[{"seq":"1","substance":"ALCOHOL","decod":"ALCOHOL","cat":"ALCOHOL","scat":null,"usage":"N","dose":null,"dosu":null,"freq":null,"start_dtc":null,"end_dtc":null},{"seq":"2","substance":"COFFEE","decod":"COFFEE","cat":"CAFFEINE","scat":null,"usage":"N","dose":null,"dosu":null,"freq":null,"start_dtc":null,"end_dtc":null},{"seq":"3","substance":"CIGARETTES","decod":"CIGARETTES","cat":"TOBACCO","scat":"CIGARETTES","usage":"N","dose":null,"dosu":null,"freq":null,"start_dtc":null,"end_dtc":null}],"total":3},"section_15_subject_status":{"items":[{"seq":"1","testcd":"SURVSTAT","test":"Survival Status","orres":"ALIVE","stresc":"ALIVE","dtc":"2024-03-05","visit":"DAY 14","epoch":"FOLLOW-UP"},{"seq":"2","testcd":"SURVSTAT","test":"Survival Status","orres":"ALIVE","stresc":"ALIVE","dtc":"2024-03-19","visit":"DAY 28","epoch":"FOLLOW-UP"}],"total":2}}