{"subject_id":"COVID-THER-301-SITE002-0359","study_id":"COVID-THER-301","generated_at":"2026-06-12T05:15:48.185676+00:00","sdtmig_version":"3.4","flags":{"has_serious_ae":true,"has_fatal_ae":false,"has_protocol_deviation":true,"n_protocol_deviations":1,"n_adverse_events":1,"n_concomitant_meds":2,"max_ae_severity":"SEVERE","screen_failure":false,"discontinued_early":false,"discontinuation_reason":null,"death":false,"exposure_days":2},"timeline":[{"dtc":"2018-02-08","dy":"-2204","event":"CM START: ATORVASTATIN","domain":"CM","category":"concomitant_med"},{"dtc":"2024-02-07","dy":"-14","event":"INFORMED CONSENT OBTAINED","domain":"DS","category":"milestone"},{"dtc":"2024-02-21","dy":"1","event":"RANDOMIZED","domain":"DS","category":"milestone"},{"dtc":"2024-02-21","dy":"1","event":"FIRST DOSE: ANTIVIRAL","domain":"EX","category":"exposure"},{"dtc":"2024-02-21","dy":"1","event":"VISIT: BASELINE","domain":"SV","category":"visit"},{"dtc":"2024-02-22","dy":"2","event":"AE: Rhinorrhoea (SEVERE) [SERIOUS]","domain":"AE","category":"adverse_event"},{"dtc":"2024-02-22","dy":"2","event":"CM START: IBUPROFEN","domain":"CM","category":"concomitant_med"},{"dtc":"2024-02-23","dy":"3","event":"LAST DOSE: ANTIVIRAL","domain":"EX","category":"exposure"},{"dtc":"2024-02-24","dy":"4","event":"VISIT: DAY 3","domain":"SV","category":"visit"},{"dtc":"2024-02-26","dy":"6","event":"VISIT: DAY 5","domain":"SV","category":"visit"},{"dtc":"2024-03-05","dy":"14","event":"VISIT: DAY 14","domain":"SV","category":"visit"},{"dtc":"2024-03-19","dy":"28","event":"DEVIATION: VISIT OCCURRED OUTSIDE VISIT WINDOW","domain":"DV","category":"deviation"},{"dtc":"2024-03-19","dy":"28","event":"VISIT: DAY 28","domain":"SV","category":"visit"},{"dtc":"2024-03-20","dy":"29","event":"COMPLETED","domain":"DS","category":"milestone"}],"section_1_demographics":{"usubjid":"COVID-THER-301-SITE002-0359","subjid":"0359","siteid":"SITE002","age":"37","ageu":"YEARS","sex":"M","race":"BLACK OR AFRICAN AMERICAN","ethnicity":"NOT HISPANIC OR LATINO","country":"USA","arm":"Antiviral 200mg BID","armcd":"AV200","actarm":"Antiviral 200mg BID","actarmcd":"AV200","randomization_date":null,"informed_consent_date":"2024-02-07","reference_start_date":"2024-02-21","reference_end_date":"2024-03-20","screen_failure":false,"death_flag":null,"death_date":null,"subject_characteristics":[{"testcd":"ALCUSE","test":"Alcohol Use","orres":"HEAVY DRINKER","stresc":"HEAVY DRINKER","visit":null,"dtc":"2024-02-07"},{"testcd":"BMI","test":"Body Mass Index","orres":"29.4","stresc":"29.4","visit":null,"dtc":"2024-02-07"},{"testcd":"DURDIS","test":"Duration of Disease","orres":"73 months","stresc":"73","visit":null,"dtc":"2024-02-07"},{"testcd":"TOBUSE","test":"Tobacco Use","orres":"NEVER SMOKED","stresc":"NEVER SMOKED","visit":null,"dtc":"2024-02-07"}]},"section_2_medical_history":{"items":[{"seq":"1","term":"DEPRESSION","decod":"DEPRESSION","cat":"PSYCHIATRIC","scat":null,"presp":null,"occur":null,"status":null,"onset_dtc":"2020-02-08","end_dtc":"2023-07-08","visit":null},{"seq":"2","term":"HYPERLIPIDEMIA","decod":"HYPERLIPIDEMIA","cat":"METABOLIC","scat":null,"presp":null,"occur":null,"status":null,"onset_dtc":"2018-02-08","end_dtc":null,"visit":null}]},"section_3_inclusion_exclusion":{"criteria":[]},"section_4_trial_participation":{"visits":[{"visitnum":"1.0","visit":"BASELINE","start_dtc":"2024-02-21","end_dtc":"2024-02-21","updes":null},{"visitnum":"2.0","visit":"DAY 3","start_dtc":"2024-02-24","end_dtc":"2024-02-24","updes":null},{"visitnum":"3.0","visit":"DAY 5","start_dtc":"2024-02-26","end_dtc":"2024-02-26","updes":null},{"visitnum":"4.0","visit":"DAY 14","start_dtc":"2024-03-05","end_dtc":"2024-03-05","updes":null},{"visitnum":"5.0","visit":"DAY 28","start_dtc":"2024-03-19","end_dtc":"2024-03-19","updes":null}],"epochs":[{"seq":"1","etcd":"SCRN","element":"Screening","start_dtc":"2024-02-20","end_dtc":"2024-02-21","updes":null},{"seq":"2","etcd":"TRT","element":"Treatment","start_dtc":"2024-02-21","end_dtc":"2024-02-26","updes":null},{"seq":"3","etcd":"FU","element":"Follow-up","start_dtc":"2024-02-26","end_dtc":"2024-03-19","updes":null}],"visit_count":5},"section_5_concomitant_medications":{"medications":[{"seq":"1","trt":"ATORVASTATIN","decod":"ATORVASTATIN","cat":"PRIOR","dose":"20","doseu":null,"dosef":"QD","route":"ORAL","indication":"HYPERLIPIDEMIA","start_dtc":"2018-02-08","end_dtc":"2024-03-20","ongoing":null,"visit":null},{"seq":"2","trt":"IBUPROFEN","decod":"IBUPROFEN","cat":"CONCOMITANT","dose":"400","doseu":null,"dosef":"PRN","route":"ORAL","indication":"RHINORRHOEA","start_dtc":"2024-02-22","end_dtc":"2024-03-20","ongoing":null,"visit":null}]},"section_6_exposure":{"exposure_as_administered":[{"seq":"1","trt":"ANTIVIRAL","dose":"200.0","doseu":null,"dosef":"BID","route":"ORAL","lot":null,"start_dtc":"2024-02-21","end_dtc":"2024-02-21","start_dy":"1","end_dy":"1","epoch":"TREATMENT","visit":null},{"seq":"2","trt":"ANTIVIRAL","dose":"200.0","doseu":null,"dosef":"BID","route":"ORAL","lot":null,"start_dtc":"2024-02-23","end_dtc":"2024-02-23","start_dy":"3","end_dy":"3","epoch":"TREATMENT","visit":null}],"exposure_as_collected":[{"seq":"1","trt":"ANTIVIRAL","dose":"200.0","doseu":null,"dosef":"BID","route":"ORAL","start_dtc":"2024-02-21","end_dtc":"2024-02-21","visit":"BASELINE"},{"seq":"2","trt":"ANTIVIRAL","dose":"200.0","doseu":null,"dosef":"BID","route":"ORAL","start_dtc":"2024-02-21","end_dtc":"2024-02-21","visit":"BASELINE"},{"seq":"3","trt":"ANTIVIRAL","dose":"200.0","doseu":null,"dosef":"BID","route":"ORAL","start_dtc":"2024-02-23","end_dtc":"2024-02-23","visit":"BASELINE"},{"seq":"4","trt":"ANTIVIRAL","dose":"200.0","doseu":null,"dosef":"BID","route":"ORAL","start_dtc":"2024-02-23","end_dtc":"2024-02-23","visit":"BASELINE"}]},"section_7_adverse_events":{"summary":{"total_aes":1,"serious_aes":1,"fatal_aes":0,"by_severity":{"SEVERE":1},"by_soc":{"Respiratory, thoracic and mediastinal disorders":1}},"events":[{"seq":"1","term":"RHINORRHOEA","decod":"Rhinorrhoea","llt":"Rhinorrhoea","hlt":"Nasal disorders NEC","hlgt":"Respiratory tract signs and symptoms","soc":"Respiratory, thoracic and mediastinal disorders","bodsys":"Respiratory, thoracic and mediastinal disorders","severity":"SEVERE","serious":"Y","causality":"RELATED","action_taken":"DRUG INTERRUPTED","outcome":"RECOVERED/RESOLVED","fatal":"N","hospitalization":"Y","life_threatening":"N","onset_dtc":"2024-02-22","end_dtc":"2024-03-03","onset_dy":"2","end_dy":"12","duration":null,"epoch":"TREATMENT","visit":null,"supplemental":{"AETRTEM":"Y"}}]},"section_8_laboratory_results":{"summary":{"total_records":35,"abnormal_count":0,"abnormal_pct":0.0},"shift_summary":[{"testcd":"ALT","baseline_value":23.53,"baseline_nrind":"NORMAL","worst_post_baseline_value":26.01,"worst_post_baseline_nrind":"NORMAL","worst_visit":"DAY 14"},{"testcd":"AST","baseline_value":20.84,"baseline_nrind":"NORMAL","worst_post_baseline_value":20.87,"worst_post_baseline_nrind":"NORMAL","worst_visit":"DAY 28"},{"testcd":"CREAT","baseline_value":73.69,"baseline_nrind":"NORMAL","worst_post_baseline_value":74.43,"worst_post_baseline_nrind":"NORMAL","worst_visit":"DAY 3"},{"testcd":"GLUC","baseline_value":4.56,"baseline_nrind":"NORMAL","worst_post_baseline_value":4.73,"worst_post_baseline_nrind":"NORMAL","worst_visit":"DAY 28"},{"testcd":"HGB","baseline_value":143.97,"baseline_nrind":"NORMAL","worst_post_baseline_value":143.25,"worst_post_baseline_nrind":"NORMAL","worst_visit":"DAY 14"},{"testcd":"PLAT","baseline_value":341.26,"baseline_nrind":"NORMAL","worst_post_baseline_value":326.34,"worst_post_baseline_nrind":"NORMAL","worst_visit":"DAY 3"},{"testcd":"WBC","baseline_value":7.95,"baseline_nrind":"NORMAL","worst_post_baseline_value":7.82,"worst_post_baseline_nrind":"NORMAL","worst_visit":"DAY 28"}],"results":[{"seq":"1","testcd":"ALT","test":"Alanine Aminotransferase","cat":"CHEMISTRY","orres":"23.53","orresu":"U/L","stresc":"23.53","stresn":"23.53","stresu":"U/L","stnrlo":"7","stnrhi":"56","nrind":"NORMAL","fast":null,"dtc":"2024-02-21","dy":"1","visit":"BASELINE","visitnum":"1.0","epoch":"TREATMENT","spec":null,"method":null},{"seq":"2","testcd":"AST","test":"Aspartate Aminotransferase","cat":"CHEMISTRY","orres":"20.84","orresu":"U/L","stresc":"20.84","stresn":"20.84","stresu":"U/L","stnrlo":"10","stnrhi":"40","nrind":"NORMAL","fast":null,"dtc":"2024-02-21","dy":"1","visit":"BASELINE","visitnum":"1.0","epoch":"TREATMENT","spec":null,"method":null},{"seq":"3","testcd":"CREAT","test":"Creatinine","cat":"CHEMISTRY","orres":"73.69","orresu":"umol/L","stresc":"73.69","stresn":"73.69","stresu":"umol/L","stnrlo":"62","stnrhi":"106","nrind":"NORMAL","fast":null,"dtc":"2024-02-21","dy":"1","visit":"BASELINE","visitnum":"1.0","epoch":"TREATMENT","spec":null,"method":null},{"seq":"4","testcd":"GLUC","test":"Glucose","cat":"CHEMISTRY","orres":"4.56","orresu":"mmol/L","stresc":"4.56","stresn":"4.56","stresu":"mmol/L","stnrlo":"3.9","stnrhi":"5.6","nrind":"NORMAL","fast":null,"dtc":"2024-02-21","dy":"1","visit":"BASELINE","visitnum":"1.0","epoch":"TREATMENT","spec":null,"method":null},{"seq":"5","testcd":"HGB","test":"Hemoglobin","cat":"HEMATOLOGY","orres":"143.97","orresu":"g/L","stresc":"143.97","stresn":"143.97","stresu":"g/L","stnrlo":"130","stnrhi":"175","nrind":"NORMAL","fast":null,"dtc":"2024-02-21","dy":"1","visit":"BASELINE","visitnum":"1.0","epoch":"TREATMENT","spec":null,"method":null},{"seq":"6","testcd":"PLAT","test":"Platelets","cat":"HEMATOLOGY","orres":"341.26","orresu":"10^9/L","stresc":"341.26","stresn":"341.26","stresu":"10^9/L","stnrlo":"150","stnrhi":"400","nrind":"NORMAL","fast":null,"dtc":"2024-02-21","dy":"1","visit":"BASELINE","visitnum":"1.0","epoch":"TREATMENT","spec":null,"method":null},{"seq":"7","testcd":"WBC","test":"Leukocytes","cat":"HEMATOLOGY","orres":"7.95","orresu":"10^9/L","stresc":"7.95","stresn":"7.95","stresu":"10^9/L","stnrlo":"4.0","stnrhi":"11.0","nrind":"NORMAL","fast":null,"dtc":"2024-02-21","dy":"1","visit":"BASELINE","visitnum":"1.0","epoch":"TREATMENT","spec":null,"method":null},{"seq":"8","testcd":"ALT","test":"Alanine Aminotransferase","cat":"CHEMISTRY","orres":"24.25","orresu":"U/L","stresc":"24.25","stresn":"24.25","stresu":"U/L","stnrlo":"7","stnrhi":"56","nrind":"NORMAL","fast":null,"dtc":"2024-02-24","dy":"4","visit":"DAY 3","visitnum":"2.0","epoch":"TREATMENT","spec":null,"method":null},{"seq":"9","testcd":"AST","test":"Aspartate Aminotransferase","cat":"CHEMISTRY","orres":"20.04","orresu":"U/L","stresc":"20.04","stresn":"20.04","stresu":"U/L","stnrlo":"10","stnrhi":"40","nrind":"NORMAL","fast":null,"dtc":"2024-02-24","dy":"4","visit":"DAY 3","visitnum":"2.0","epoch":"TREATMENT","spec":null,"method":null},{"seq":"10","testcd":"CREAT","test":"Creatinine","cat":"CHEMISTRY","orres":"74.43","orresu":"umol/L","stresc":"74.43","stresn":"74.43","stresu":"umol/L","stnrlo":"62","stnrhi":"106","nrind":"NORMAL","fast":null,"dtc":"2024-02-24","dy":"4","visit":"DAY 3","visitnum":"2.0","epoch":"TREATMENT","spec":null,"method":null},{"seq":"11","testcd":"GLUC","test":"Glucose","cat":"CHEMISTRY","orres":"4.67","orresu":"mmol/L","stresc":"4.67","stresn":"4.67","stresu":"mmol/L","stnrlo":"3.9","stnrhi":"5.6","nrind":"NORMAL","fast":null,"dtc":"2024-02-24","dy":"4","visit":"DAY 3","visitnum":"2.0","epoch":"TREATMENT","spec":null,"method":null},{"seq":"12","testcd":"HGB","test":"Hemoglobin","cat":"HEMATOLOGY","orres":"143.88","orresu":"g/L","stresc":"143.88","stresn":"143.88","stresu":"g/L","stnrlo":"130","stnrhi":"175","nrind":"NORMAL","fast":null,"dtc":"2024-02-24","dy":"4","visit":"DAY 3","visitnum":"2.0","epoch":"TREATMENT","spec":null,"method":null},{"seq":"13","testcd":"PLAT","test":"Platelets","cat":"HEMATOLOGY","orres":"326.34","orresu":"10^9/L","stresc":"326.34","stresn":"326.34","stresu":"10^9/L","stnrlo":"150","stnrhi":"400","nrind":"NORMAL","fast":null,"dtc":"2024-02-24","dy":"4","visit":"DAY 3","visitnum":"2.0","epoch":"TREATMENT","spec":null,"method":null},{"seq":"14","testcd":"WBC","test":"Leukocytes","cat":"HEMATOLOGY","orres":"7.63","orresu":"10^9/L","stresc":"7.63","stresn":"7.63","stresu":"10^9/L","stnrlo":"4.0","stnrhi":"11.0","nrind":"NORMAL","fast":null,"dtc":"2024-02-24","dy":"4","visit":"DAY 3","visitnum":"2.0","epoch":"TREATMENT","spec":null,"method":null},{"seq":"15","testcd":"ALT","test":"Alanine Aminotransferase","cat":"CHEMISTRY","orres":"24.87","orresu":"U/L","stresc":"24.87","stresn":"24.87","stresu":"U/L","stnrlo":"7","stnrhi":"56","nrind":"NORMAL","fast":null,"dtc":"2024-02-26","dy":"6","visit":"DAY 5","visitnum":"3.0","epoch":"TREATMENT","spec":null,"method":null},{"seq":"16","testcd":"AST","test":"Aspartate Aminotransferase","cat":"CHEMISTRY","orres":"19.07","orresu":"U/L","stresc":"19.07","stresn":"19.07","stresu":"U/L","stnrlo":"10","stnrhi":"40","nrind":"NORMAL","fast":null,"dtc":"2024-02-26","dy":"6","visit":"DAY 5","visitnum":"3.0","epoch":"TREATMENT","spec":null,"method":null},{"seq":"17","testcd":"CREAT","test":"Creatinine","cat":"CHEMISTRY","orres":"68.65","orresu":"umol/L","stresc":"68.65","stresn":"68.65","stresu":"umol/L","stnrlo":"62","stnrhi":"106","nrind":"NORMAL","fast":null,"dtc":"2024-02-26","dy":"6","visit":"DAY 5","visitnum":"3.0","epoch":"TREATMENT","spec":null,"method":null},{"seq":"18","testcd":"GLUC","test":"Glucose","cat":"CHEMISTRY","orres":"4.55","orresu":"mmol/L","stresc":"4.55","stresn":"4.55","stresu":"mmol/L","stnrlo":"3.9","stnrhi":"5.6","nrind":"NORMAL","fast":null,"dtc":"2024-02-26","dy":"6","visit":"DAY 5","visitnum":"3.0","epoch":"TREATMENT","spec":null,"method":null},{"seq":"19","testcd":"HGB","test":"Hemoglobin","cat":"HEMATOLOGY","orres":"144.03","orresu":"g/L","stresc":"144.03","stresn":"144.03","stresu":"g/L","stnrlo":"130","stnrhi":"175","nrind":"NORMAL","fast":null,"dtc":"2024-02-26","dy":"6","visit":"DAY 5","visitnum":"3.0","epoch":"TREATMENT","spec":null,"method":null},{"seq":"20","testcd":"PLAT","test":"Platelets","cat":"HEMATOLOGY","orres":null,"orresu":null,"stresc":null,"stresn":null,"stresu":null,"stnrlo":null,"stnrhi":null,"nrind":null,"fast":null,"dtc":"2024-02-26","dy":"6","visit":"DAY 5","visitnum":"3.0","epoch":"TREATMENT","spec":null,"method":null},{"seq":"21","testcd":"WBC","test":"Leukocytes","cat":"HEMATOLOGY","orres":"7.24","orresu":"10^9/L","stresc":"7.24","stresn":"7.24","stresu":"10^9/L","stnrlo":"4.0","stnrhi":"11.0","nrind":"NORMAL","fast":null,"dtc":"2024-02-26","dy":"6","visit":"DAY 5","visitnum":"3.0","epoch":"TREATMENT","spec":null,"method":null},{"seq":"22","testcd":"ALT","test":"Alanine Aminotransferase","cat":"CHEMISTRY","orres":"26.01","orresu":"U/L","stresc":"26.01","stresn":"26.01","stresu":"U/L","stnrlo":"7","stnrhi":"56","nrind":"NORMAL","fast":null,"dtc":"2024-03-05","dy":"14","visit":"DAY 14","visitnum":"4.0","epoch":"FOLLOW-UP","spec":null,"method":null},{"seq":"23","testcd":"AST","test":"Aspartate Aminotransferase","cat":"CHEMISTRY","orres":"19.16","orresu":"U/L","stresc":"19.16","stresn":"19.16","stresu":"U/L","stnrlo":"10","stnrhi":"40","nrind":"NORMAL","fast":null,"dtc":"2024-03-05","dy":"14","visit":"DAY 14","visitnum":"4.0","epoch":"FOLLOW-UP","spec":null,"method":null},{"seq":"24","testcd":"CREAT","test":"Creatinine","cat":"CHEMISTRY","orres":"68.86","orresu":"umol/L","stresc":"68.86","stresn":"68.86","stresu":"umol/L","stnrlo":"62","stnrhi":"106","nrind":"NORMAL","fast":null,"dtc":"2024-03-05","dy":"14","visit":"DAY 14","visitnum":"4.0","epoch":"FOLLOW-UP","spec":null,"method":null},{"seq":"25","testcd":"GLUC","test":"Glucose","cat":"CHEMISTRY","orres":"4.68","orresu":"mmol/L","stresc":"4.68","stresn":"4.68","stresu":"mmol/L","stnrlo":"3.9","stnrhi":"5.6","nrind":"NORMAL","fast":null,"dtc":"2024-03-05","dy":"14","visit":"DAY 14","visitnum":"4.0","epoch":"FOLLOW-UP","spec":null,"method":null},{"seq":"26","testcd":"HGB","test":"Hemoglobin","cat":"HEMATOLOGY","orres":"143.25","orresu":"g/L","stresc":"143.25","stresn":"143.25","stresu":"g/L","stnrlo":"130","stnrhi":"175","nrind":"NORMAL","fast":null,"dtc":"2024-03-05","dy":"14","visit":"DAY 14","visitnum":"4.0","epoch":"FOLLOW-UP","spec":null,"method":null},{"seq":"27","testcd":"PLAT","test":"Platelets","cat":"HEMATOLOGY","orres":null,"orresu":null,"stresc":null,"stresn":null,"stresu":null,"stnrlo":null,"stnrhi":null,"nrind":null,"fast":null,"dtc":"2024-03-05","dy":"14","visit":"DAY 14","visitnum":"4.0","epoch":"FOLLOW-UP","spec":null,"method":null},{"seq":"28","testcd":"WBC","test":"Leukocytes","cat":"HEMATOLOGY","orres":"7.09","orresu":"10^9/L","stresc":"7.09","stresn":"7.09","stresu":"10^9/L","stnrlo":"4.0","stnrhi":"11.0","nrind":"NORMAL","fast":null,"dtc":"2024-03-05","dy":"14","visit":"DAY 14","visitnum":"4.0","epoch":"FOLLOW-UP","spec":null,"method":null},{"seq":"29","testcd":"ALT","test":"Alanine Aminotransferase","cat":"CHEMISTRY","orres":"25.87","orresu":"U/L","stresc":"25.87","stresn":"25.87","stresu":"U/L","stnrlo":"7","stnrhi":"56","nrind":"NORMAL","fast":null,"dtc":"2024-03-19","dy":"28","visit":"DAY 28","visitnum":"5.0","epoch":"FOLLOW-UP","spec":null,"method":null},{"seq":"30","testcd":"AST","test":"Aspartate Aminotransferase","cat":"CHEMISTRY","orres":"20.87","orresu":"U/L","stresc":"20.87","stresn":"20.87","stresu":"U/L","stnrlo":"10","stnrhi":"40","nrind":"NORMAL","fast":null,"dtc":"2024-03-19","dy":"28","visit":"DAY 28","visitnum":"5.0","epoch":"FOLLOW-UP","spec":null,"method":null},{"seq":"31","testcd":"CREAT","test":"Creatinine","cat":"CHEMISTRY","orres":"66.98","orresu":"umol/L","stresc":"66.98","stresn":"66.98","stresu":"umol/L","stnrlo":"62","stnrhi":"106","nrind":"NORMAL","fast":null,"dtc":"2024-03-19","dy":"28","visit":"DAY 28","visitnum":"5.0","epoch":"FOLLOW-UP","spec":null,"method":null},{"seq":"32","testcd":"GLUC","test":"Glucose","cat":"CHEMISTRY","orres":"4.73","orresu":"mmol/L","stresc":"4.73","stresn":"4.73","stresu":"mmol/L","stnrlo":"3.9","stnrhi":"5.6","nrind":"NORMAL","fast":null,"dtc":"2024-03-19","dy":"28","visit":"DAY 28","visitnum":"5.0","epoch":"FOLLOW-UP","spec":null,"method":null},{"seq":"33","testcd":"HGB","test":"Hemoglobin","cat":"HEMATOLOGY","orres":"143.59","orresu":"g/L","stresc":"143.59","stresn":"143.59","stresu":"g/L","stnrlo":"130","stnrhi":"175","nrind":"NORMAL","fast":null,"dtc":"2024-03-19","dy":"28","visit":"DAY 28","visitnum":"5.0","epoch":"FOLLOW-UP","spec":null,"method":null},{"seq":"34","testcd":"PLAT","test":"Platelets","cat":"HEMATOLOGY","orres":"318.21","orresu":"10^9/L","stresc":"318.21","stresn":"318.21","stresu":"10^9/L","stnrlo":"150","stnrhi":"400","nrind":"NORMAL","fast":null,"dtc":"2024-03-19","dy":"28","visit":"DAY 28","visitnum":"5.0","epoch":"FOLLOW-UP","spec":null,"method":null},{"seq":"35","testcd":"WBC","test":"Leukocytes","cat":"HEMATOLOGY","orres":"7.82","orresu":"10^9/L","stresc":"7.82","stresn":"7.82","stresu":"10^9/L","stnrlo":"4.0","stnrhi":"11.0","nrind":"NORMAL","fast":null,"dtc":"2024-03-19","dy":"28","visit":"DAY 28","visitnum":"5.0","epoch":"FOLLOW-UP","spec":null,"method":null}]},"section_9_vital_signs":{"summary":{"total_records":40},"trends":{"BMI":[{"visit":"BASELINE","visitnum":"1.0","dtc":"2024-02-21","value":"29.4","unit":"kg/m2"},{"visit":"DAY 3","visitnum":"2.0","dtc":"2024-02-24","value":"29.4","unit":"kg/m2"},{"visit":"DAY 5","visitnum":"3.0","dtc":"2024-02-26","value":"29.4","unit":"kg/m2"},{"visit":"DAY 14","visitnum":"4.0","dtc":"2024-03-05","value":"28.9","unit":"kg/m2"},{"visit":"DAY 28","visitnum":"5.0","dtc":"2024-03-19","value":"29.0","unit":"kg/m2"}],"DIABP":[{"visit":"BASELINE","visitnum":"1.0","dtc":"2024-02-21","value":"68.0","unit":"mmHg"},{"visit":"DAY 3","visitnum":"2.0","dtc":"2024-02-24","value":"70.4","unit":"mmHg"},{"visit":"DAY 5","visitnum":"3.0","dtc":"2024-02-26","value":"71.0","unit":"mmHg"},{"visit":"DAY 14","visitnum":"4.0","dtc":"2024-03-05","value":"72.3","unit":"mmHg"},{"visit":"DAY 28","visitnum":"5.0","dtc":"2024-03-19","value":"71.9","unit":"mmHg"}],"HEIGHT":[{"visit":"BASELINE","visitnum":"1.0","dtc":"2024-02-21","value":"171.7","unit":"cm"},{"visit":"DAY 3","visitnum":"2.0","dtc":"2024-02-24","value":"172.5","unit":"cm"},{"visit":"DAY 5","visitnum":"3.0","dtc":"2024-02-26","value":"172.2","unit":"cm"},{"visit":"DAY 14","visitnum":"4.0","dtc":"2024-03-05","value":"172.4","unit":"cm"},{"visit":"DAY 28","visitnum":"5.0","dtc":"2024-03-19","value":"172.0","unit":"cm"}],"PULSE":[{"visit":"BASELINE","visitnum":"1.0","dtc":"2024-02-21","value":"87.2","unit":"beats/min"},{"visit":"DAY 3","visitnum":"2.0","dtc":"2024-02-24","value":"84.3","unit":"beats/min"},{"visit":"DAY 5","visitnum":"3.0","dtc":"2024-02-26","value":"86.7","unit":"beats/min"},{"visit":"DAY 14","visitnum":"4.0","dtc":"2024-03-05","value":"82.8","unit":"beats/min"},{"visit":"DAY 28","visitnum":"5.0","dtc":"2024-03-19","value":"81.1","unit":"beats/min"}],"RESP":[{"visit":"BASELINE","visitnum":"1.0","dtc":"2024-02-21","value":"18.6","unit":"breaths/min"},{"visit":"DAY 3","visitnum":"2.0","dtc":"2024-02-24","value":"19.8","unit":"breaths/min"},{"visit":"DAY 5","visitnum":"3.0","dtc":"2024-02-26","value":"18.5","unit":"breaths/min"},{"visit":"DAY 14","visitnum":"4.0","dtc":"2024-03-05","value":"19.9","unit":"breaths/min"},{"visit":"DAY 28","visitnum":"5.0","dtc":"2024-03-19","value":"18.6","unit":"breaths/min"}],"SYSBP":[{"visit":"BASELINE","visitnum":"1.0","dtc":"2024-02-21","value":"108.6","unit":"mmHg"},{"visit":"DAY 3","visitnum":"2.0","dtc":"2024-02-24","value":"112.9","unit":"mmHg"},{"visit":"DAY 5","visitnum":"3.0","dtc":"2024-02-26","value":"114.4","unit":"mmHg"},{"visit":"DAY 14","visitnum":"4.0","dtc":"2024-03-05","value":"113.2","unit":"mmHg"},{"visit":"DAY 28","visitnum":"5.0","dtc":"2024-03-19","value":"112.2","unit":"mmHg"}],"TEMP":[{"visit":"BASELINE","visitnum":"1.0","dtc":"2024-02-21","value":"36.8","unit":"C"},{"visit":"DAY 3","visitnum":"2.0","dtc":"2024-02-24","value":"36.9","unit":"C"},{"visit":"DAY 5","visitnum":"3.0","dtc":"2024-02-26","value":"37.0","unit":"C"},{"visit":"DAY 14","visitnum":"4.0","dtc":"2024-03-05","value":"37.1","unit":"C"},{"visit":"DAY 28","visitnum":"5.0","dtc":"2024-03-19","value":"37.1","unit":"C"}],"WEIGHT":[{"visit":"BASELINE","visitnum":"1.0","dtc":"2024-02-21","value":"86.7","unit":"kg"},{"visit":"DAY 3","visitnum":"2.0","dtc":"2024-02-24","value":"87.4","unit":"kg"},{"visit":"DAY 5","visitnum":"3.0","dtc":"2024-02-26","value":"87.2","unit":"kg"},{"visit":"DAY 14","visitnum":"4.0","dtc":"2024-03-05","value":"85.8","unit":"kg"},{"visit":"DAY 28","visitnum":"5.0","dtc":"2024-03-19","value":"85.7","unit":"kg"}]},"results":[{"seq":"1","testcd":"BMI","test":"BMI","cat":null,"orres":"29.4","orresu":"kg/m2","stresc":"29.4","stresn":"29.4","stresu":"kg/m2","stnrlo":null,"stnrhi":null,"nrind":null,"pos":null,"loc":null,"dtc":"2024-02-21","dy":"1","visit":"BASELINE","visitnum":"1.0","epoch":"TREATMENT"},{"seq":"2","testcd":"DIABP","test":"Diastolic Blood Pressure","cat":null,"orres":"68.0","orresu":"mmHg","stresc":"68.0","stresn":"68.0","stresu":"mmHg","stnrlo":null,"stnrhi":null,"nrind":null,"pos":null,"loc":null,"dtc":"2024-02-21","dy":"1","visit":"BASELINE","visitnum":"1.0","epoch":"TREATMENT"},{"seq":"3","testcd":"HEIGHT","test":"Height","cat":null,"orres":"171.7","orresu":"cm","stresc":"171.7","stresn":"171.7","stresu":"cm","stnrlo":null,"stnrhi":null,"nrind":null,"pos":null,"loc":null,"dtc":"2024-02-21","dy":"1","visit":"BASELINE","visitnum":"1.0","epoch":"TREATMENT"},{"seq":"4","testcd":"PULSE","test":"Pulse Rate","cat":null,"orres":"87.2","orresu":"beats/min","stresc":"87.2","stresn":"87.2","stresu":"beats/min","stnrlo":null,"stnrhi":null,"nrind":null,"pos":null,"loc":null,"dtc":"2024-02-21","dy":"1","visit":"BASELINE","visitnum":"1.0","epoch":"TREATMENT"},{"seq":"5","testcd":"RESP","test":"Respiratory Rate","cat":null,"orres":"18.6","orresu":"breaths/min","stresc":"18.6","stresn":"18.6","stresu":"breaths/min","stnrlo":null,"stnrhi":null,"nrind":null,"pos":null,"loc":null,"dtc":"2024-02-21","dy":"1","visit":"BASELINE","visitnum":"1.0","epoch":"TREATMENT"},{"seq":"6","testcd":"SYSBP","test":"Systolic Blood Pressure","cat":null,"orres":"108.6","orresu":"mmHg","stresc":"108.6","stresn":"108.6","stresu":"mmHg","stnrlo":null,"stnrhi":null,"nrind":null,"pos":null,"loc":null,"dtc":"2024-02-21","dy":"1","visit":"BASELINE","visitnum":"1.0","epoch":"TREATMENT"},{"seq":"7","testcd":"TEMP","test":"Temperature","cat":null,"orres":"36.8","orresu":"C","stresc":"36.8","stresn":"36.8","stresu":"C","stnrlo":null,"stnrhi":null,"nrind":null,"pos":null,"loc":null,"dtc":"2024-02-21","dy":"1","visit":"BASELINE","visitnum":"1.0","epoch":"TREATMENT"},{"seq":"8","testcd":"WEIGHT","test":"Weight","cat":null,"orres":"86.7","orresu":"kg","stresc":"86.7","stresn":"86.7","stresu":"kg","stnrlo":null,"stnrhi":null,"nrind":null,"pos":null,"loc":null,"dtc":"2024-02-21","dy":"1","visit":"BASELINE","visitnum":"1.0","epoch":"TREATMENT"},{"seq":"9","testcd":"BMI","test":"BMI","cat":null,"orres":"29.4","orresu":"kg/m2","stresc":"29.4","stresn":"29.4","stresu":"kg/m2","stnrlo":null,"stnrhi":null,"nrind":null,"pos":null,"loc":null,"dtc":"2024-02-24","dy":"4","visit":"DAY 3","visitnum":"2.0","epoch":"TREATMENT"},{"seq":"10","testcd":"DIABP","test":"Diastolic Blood Pressure","cat":null,"orres":"70.4","orresu":"mmHg","stresc":"70.4","stresn":"70.4","stresu":"mmHg","stnrlo":null,"stnrhi":null,"nrind":null,"pos":null,"loc":null,"dtc":"2024-02-24","dy":"4","visit":"DAY 3","visitnum":"2.0","epoch":"TREATMENT"},{"seq":"11","testcd":"HEIGHT","test":"Height","cat":null,"orres":"172.5","orresu":"cm","stresc":"172.5","stresn":"172.5","stresu":"cm","stnrlo":null,"stnrhi":null,"nrind":null,"pos":null,"loc":null,"dtc":"2024-02-24","dy":"4","visit":"DAY 3","visitnum":"2.0","epoch":"TREATMENT"},{"seq":"12","testcd":"PULSE","test":"Pulse Rate","cat":null,"orres":"84.3","orresu":"beats/min","stresc":"84.3","stresn":"84.3","stresu":"beats/min","stnrlo":null,"stnrhi":null,"nrind":null,"pos":null,"loc":null,"dtc":"2024-02-24","dy":"4","visit":"DAY 3","visitnum":"2.0","epoch":"TREATMENT"},{"seq":"13","testcd":"RESP","test":"Respiratory Rate","cat":null,"orres":"19.8","orresu":"breaths/min","stresc":"19.8","stresn":"19.8","stresu":"breaths/min","stnrlo":null,"stnrhi":null,"nrind":null,"pos":null,"loc":null,"dtc":"2024-02-24","dy":"4","visit":"DAY 3","visitnum":"2.0","epoch":"TREATMENT"},{"seq":"14","testcd":"SYSBP","test":"Systolic Blood Pressure","cat":null,"orres":"112.9","orresu":"mmHg","stresc":"112.9","stresn":"112.9","stresu":"mmHg","stnrlo":null,"stnrhi":null,"nrind":null,"pos":null,"loc":null,"dtc":"2024-02-24","dy":"4","visit":"DAY 3","visitnum":"2.0","epoch":"TREATMENT"},{"seq":"15","testcd":"TEMP","test":"Temperature","cat":null,"orres":"36.9","orresu":"C","stresc":"36.9","stresn":"36.9","stresu":"C","stnrlo":null,"stnrhi":null,"nrind":null,"pos":null,"loc":null,"dtc":"2024-02-24","dy":"4","visit":"DAY 3","visitnum":"2.0","epoch":"TREATMENT"},{"seq":"16","testcd":"WEIGHT","test":"Weight","cat":null,"orres":"87.4","orresu":"kg","stresc":"87.4","stresn":"87.4","stresu":"kg","stnrlo":null,"stnrhi":null,"nrind":null,"pos":null,"loc":null,"dtc":"2024-02-24","dy":"4","visit":"DAY 3","visitnum":"2.0","epoch":"TREATMENT"},{"seq":"17","testcd":"BMI","test":"BMI","cat":null,"orres":"29.4","orresu":"kg/m2","stresc":"29.4","stresn":"29.4","stresu":"kg/m2","stnrlo":null,"stnrhi":null,"nrind":null,"pos":null,"loc":null,"dtc":"2024-02-26","dy":"6","visit":"DAY 5","visitnum":"3.0","epoch":"TREATMENT"},{"seq":"18","testcd":"DIABP","test":"Diastolic Blood Pressure","cat":null,"orres":"71.0","orresu":"mmHg","stresc":"71.0","stresn":"71.0","stresu":"mmHg","stnrlo":null,"stnrhi":null,"nrind":null,"pos":null,"loc":null,"dtc":"2024-02-26","dy":"6","visit":"DAY 5","visitnum":"3.0","epoch":"TREATMENT"},{"seq":"19","testcd":"HEIGHT","test":"Height","cat":null,"orres":"172.2","orresu":"cm","stresc":"172.2","stresn":"172.2","stresu":"cm","stnrlo":null,"stnrhi":null,"nrind":null,"pos":null,"loc":null,"dtc":"2024-02-26","dy":"6","visit":"DAY 5","visitnum":"3.0","epoch":"TREATMENT"},{"seq":"20","testcd":"PULSE","test":"Pulse Rate","cat":null,"orres":"86.7","orresu":"beats/min","stresc":"86.7","stresn":"86.7","stresu":"beats/min","stnrlo":null,"stnrhi":null,"nrind":null,"pos":null,"loc":null,"dtc":"2024-02-26","dy":"6","visit":"DAY 5","visitnum":"3.0","epoch":"TREATMENT"},{"seq":"21","testcd":"RESP","test":"Respiratory Rate","cat":null,"orres":"18.5","orresu":"breaths/min","stresc":"18.5","stresn":"18.5","stresu":"breaths/min","stnrlo":null,"stnrhi":null,"nrind":null,"pos":null,"loc":null,"dtc":"2024-02-26","dy":"6","visit":"DAY 5","visitnum":"3.0","epoch":"TREATMENT"},{"seq":"22","testcd":"SYSBP","test":"Systolic Blood Pressure","cat":null,"orres":"114.4","orresu":"mmHg","stresc":"114.4","stresn":"114.4","stresu":"mmHg","stnrlo":null,"stnrhi":null,"nrind":null,"pos":null,"loc":null,"dtc":"2024-02-26","dy":"6","visit":"DAY 5","visitnum":"3.0","epoch":"TREATMENT"},{"seq":"23","testcd":"TEMP","test":"Temperature","cat":null,"orres":"37.0","orresu":"C","stresc":"37.0","stresn":"37.0","stresu":"C","stnrlo":null,"stnrhi":null,"nrind":null,"pos":null,"loc":null,"dtc":"2024-02-26","dy":"6","visit":"DAY 5","visitnum":"3.0","epoch":"TREATMENT"},{"seq":"24","testcd":"WEIGHT","test":"Weight","cat":null,"orres":"87.2","orresu":"kg","stresc":"87.2","stresn":"87.2","stresu":"kg","stnrlo":null,"stnrhi":null,"nrind":null,"pos":null,"loc":null,"dtc":"2024-02-26","dy":"6","visit":"DAY 5","visitnum":"3.0","epoch":"TREATMENT"},{"seq":"25","testcd":"BMI","test":"BMI","cat":null,"orres":"28.9","orresu":"kg/m2","stresc":"28.9","stresn":"28.9","stresu":"kg/m2","stnrlo":null,"stnrhi":null,"nrind":null,"pos":null,"loc":null,"dtc":"2024-03-05","dy":"14","visit":"DAY 14","visitnum":"4.0","epoch":"FOLLOW-UP"},{"seq":"26","testcd":"DIABP","test":"Diastolic Blood Pressure","cat":null,"orres":"72.3","orresu":"mmHg","stresc":"72.3","stresn":"72.3","stresu":"mmHg","stnrlo":null,"stnrhi":null,"nrind":null,"pos":null,"loc":null,"dtc":"2024-03-05","dy":"14","visit":"DAY 14","visitnum":"4.0","epoch":"FOLLOW-UP"},{"seq":"27","testcd":"HEIGHT","test":"Height","cat":null,"orres":"172.4","orresu":"cm","stresc":"172.4","stresn":"172.4","stresu":"cm","stnrlo":null,"stnrhi":null,"nrind":null,"pos":null,"loc":null,"dtc":"2024-03-05","dy":"14","visit":"DAY 14","visitnum":"4.0","epoch":"FOLLOW-UP"},{"seq":"28","testcd":"PULSE","test":"Pulse Rate","cat":null,"orres":"82.8","orresu":"beats/min","stresc":"82.8","stresn":"82.8","stresu":"beats/min","stnrlo":null,"stnrhi":null,"nrind":null,"pos":null,"loc":null,"dtc":"2024-03-05","dy":"14","visit":"DAY 14","visitnum":"4.0","epoch":"FOLLOW-UP"},{"seq":"29","testcd":"RESP","test":"Respiratory Rate","cat":null,"orres":"19.9","orresu":"breaths/min","stresc":"19.9","stresn":"19.9","stresu":"breaths/min","stnrlo":null,"stnrhi":null,"nrind":null,"pos":null,"loc":null,"dtc":"2024-03-05","dy":"14","visit":"DAY 14","visitnum":"4.0","epoch":"FOLLOW-UP"},{"seq":"30","testcd":"SYSBP","test":"Systolic Blood Pressure","cat":null,"orres":"113.2","orresu":"mmHg","stresc":"113.2","stresn":"113.2","stresu":"mmHg","stnrlo":null,"stnrhi":null,"nrind":null,"pos":null,"loc":null,"dtc":"2024-03-05","dy":"14","visit":"DAY 14","visitnum":"4.0","epoch":"FOLLOW-UP"},{"seq":"31","testcd":"TEMP","test":"Temperature","cat":null,"orres":"37.1","orresu":"C","stresc":"37.1","stresn":"37.1","stresu":"C","stnrlo":null,"stnrhi":null,"nrind":null,"pos":null,"loc":null,"dtc":"2024-03-05","dy":"14","visit":"DAY 14","visitnum":"4.0","epoch":"FOLLOW-UP"},{"seq":"32","testcd":"WEIGHT","test":"Weight","cat":null,"orres":"85.8","orresu":"kg","stresc":"85.8","stresn":"85.8","stresu":"kg","stnrlo":null,"stnrhi":null,"nrind":null,"pos":null,"loc":null,"dtc":"2024-03-05","dy":"14","visit":"DAY 14","visitnum":"4.0","epoch":"FOLLOW-UP"},{"seq":"33","testcd":"BMI","test":"BMI","cat":null,"orres":"29.0","orresu":"kg/m2","stresc":"29.0","stresn":"29.0","stresu":"kg/m2","stnrlo":null,"stnrhi":null,"nrind":null,"pos":null,"loc":null,"dtc":"2024-03-19","dy":"28","visit":"DAY 28","visitnum":"5.0","epoch":"FOLLOW-UP"},{"seq":"34","testcd":"DIABP","test":"Diastolic Blood Pressure","cat":null,"orres":"71.9","orresu":"mmHg","stresc":"71.9","stresn":"71.9","stresu":"mmHg","stnrlo":null,"stnrhi":null,"nrind":null,"pos":null,"loc":null,"dtc":"2024-03-19","dy":"28","visit":"DAY 28","visitnum":"5.0","epoch":"FOLLOW-UP"},{"seq":"35","testcd":"HEIGHT","test":"Height","cat":null,"orres":"172.0","orresu":"cm","stresc":"172.0","stresn":"172.0","stresu":"cm","stnrlo":null,"stnrhi":null,"nrind":null,"pos":null,"loc":null,"dtc":"2024-03-19","dy":"28","visit":"DAY 28","visitnum":"5.0","epoch":"FOLLOW-UP"},{"seq":"36","testcd":"PULSE","test":"Pulse Rate","cat":null,"orres":"81.1","orresu":"beats/min","stresc":"81.1","stresn":"81.1","stresu":"beats/min","stnrlo":null,"stnrhi":null,"nrind":null,"pos":null,"loc":null,"dtc":"2024-03-19","dy":"28","visit":"DAY 28","visitnum":"5.0","epoch":"FOLLOW-UP"},{"seq":"37","testcd":"RESP","test":"Respiratory Rate","cat":null,"orres":"18.6","orresu":"breaths/min","stresc":"18.6","stresn":"18.6","stresu":"breaths/min","stnrlo":null,"stnrhi":null,"nrind":null,"pos":null,"loc":null,"dtc":"2024-03-19","dy":"28","visit":"DAY 28","visitnum":"5.0","epoch":"FOLLOW-UP"},{"seq":"38","testcd":"SYSBP","test":"Systolic Blood Pressure","cat":null,"orres":"112.2","orresu":"mmHg","stresc":"112.2","stresn":"112.2","stresu":"mmHg","stnrlo":null,"stnrhi":null,"nrind":null,"pos":null,"loc":null,"dtc":"2024-03-19","dy":"28","visit":"DAY 28","visitnum":"5.0","epoch":"FOLLOW-UP"},{"seq":"39","testcd":"TEMP","test":"Temperature","cat":null,"orres":"37.1","orresu":"C","stresc":"37.1","stresn":"37.1","stresu":"C","stnrlo":null,"stnrhi":null,"nrind":null,"pos":null,"loc":null,"dtc":"2024-03-19","dy":"28","visit":"DAY 28","visitnum":"5.0","epoch":"FOLLOW-UP"},{"seq":"40","testcd":"WEIGHT","test":"Weight","cat":null,"orres":"85.7","orresu":"kg","stresc":"85.7","stresn":"85.7","stresu":"kg","stnrlo":null,"stnrhi":null,"nrind":null,"pos":null,"loc":null,"dtc":"2024-03-19","dy":"28","visit":"DAY 28","visitnum":"5.0","epoch":"FOLLOW-UP"}]},"section_10_questionnaires_and_scores":{"questionnaires":[],"findings_about":[]},"section_11_protocol_deviations":{"deviations":[{"seq":"1","term":"Visit DAY 28 occurred 0 days late (Day 28 vs planned Day 28)","decod":"VISIT OCCURRED OUTSIDE VISIT WINDOW","cat":"MINOR","scat":"VISIT WINDOW","start_dtc":"2024-03-19","end_dtc":null,"visit":null}],"total":1},"section_12_disposition":{"completion_status":"COMPLETED","disposition_records":[{"seq":"1","term":"INFORMED CONSENT OBTAINED","decod":"INFORMED CONSENT OBTAINED","cat":"PROTOCOL MILESTONE","scat":null,"dtc":"2024-02-07","dy":null,"visit":null,"epoch":"SCREENING"},{"seq":"2","term":"RANDOMIZED","decod":"RANDOMIZED","cat":"PROTOCOL MILESTONE","scat":null,"dtc":"2024-02-21","dy":null,"visit":null,"epoch":"TREATMENT"},{"seq":"3","term":"COMPLETED","decod":"COMPLETED","cat":"DISPOSITION EVENT","scat":null,"dtc":"2024-03-20","dy":null,"visit":null,"epoch":"FOLLOW-UP"}],"death":null},"section_13_hospitalizations":{"items":[{"seq":"1","term":"Rhinorrhoea","decod":"Rhinorrhoea","cat":"EMERGENCY ROOM VISIT","start_dtc":"2024-02-22","end_dtc":"2024-03-10","epoch":"TREATMENT"}],"total":1},"section_14_substance_use":{"items":[{"seq":"1","substance":"ALCOHOL","decod":"ALCOHOL","cat":"ALCOHOL","scat":null,"usage":"Y","dose":"8.0","dosu":"DRINKS/WEEK","freq":"QW","start_dtc":"2004-02-12","end_dtc":null},{"seq":"2","substance":"COFFEE","decod":"COFFEE","cat":"CAFFEINE","scat":null,"usage":"Y","dose":"3.0","dosu":"CUPS/DAY","freq":"QD","start_dtc":"2020-02-08","end_dtc":null},{"seq":"3","substance":"CIGARETTES","decod":"CIGARETTES","cat":"TOBACCO","scat":"CIGARETTES","usage":"N","dose":null,"dosu":null,"freq":null,"start_dtc":null,"end_dtc":null}],"total":3},"section_15_subject_status":{"items":[{"seq":"1","testcd":"SURVSTAT","test":"Survival Status","orres":"ALIVE","stresc":"ALIVE","dtc":"2024-03-05","visit":"DAY 14","epoch":"FOLLOW-UP"},{"seq":"2","testcd":"SURVSTAT","test":"Survival Status","orres":"ALIVE","stresc":"ALIVE","dtc":"2024-03-19","visit":"DAY 28","epoch":"FOLLOW-UP"}],"total":2}}