{"subject_id":"COVID-THER-301-SITE003-0495","study_id":"COVID-THER-301","generated_at":"2026-06-12T05:16:06.222391+00:00","sdtmig_version":"3.4","flags":{"has_serious_ae":false,"has_fatal_ae":false,"has_protocol_deviation":true,"n_protocol_deviations":1,"n_adverse_events":0,"n_concomitant_meds":2,"max_ae_severity":null,"screen_failure":false,"discontinued_early":false,"discontinuation_reason":null,"death":false,"exposure_days":3},"timeline":[{"dtc":"2021-01-26","dy":"-1103","event":"CM START: SERTRALINE","domain":"CM","category":"concomitant_med"},{"dtc":"2024-01-26","dy":"-8","event":"INFORMED CONSENT OBTAINED","domain":"DS","category":"milestone"},{"dtc":"2024-02-03","dy":"1","event":"RANDOMIZED","domain":"DS","category":"milestone"},{"dtc":"2024-02-03","dy":"1","event":"FIRST DOSE: ANTIVIRAL","domain":"EX","category":"exposure"},{"dtc":"2024-02-03","dy":"1","event":"VISIT: BASELINE","domain":"SV","category":"visit"},{"dtc":"2024-02-06","dy":"4","event":"DEVIATION: MISSED DOSE","domain":"DV","category":"deviation"},{"dtc":"2024-02-06","dy":"4","event":"VISIT: DAY 3","domain":"SV","category":"visit"},{"dtc":"2024-02-08","dy":"6","event":"VISIT: DAY 5","domain":"SV","category":"visit"},{"dtc":"2024-02-14","dy":"12","event":"CM START: ASPIRIN","domain":"CM","category":"concomitant_med"},{"dtc":"2024-02-15","dy":"13","event":"VISIT: DAY 14","domain":"SV","category":"visit"},{"dtc":"2024-03-02","dy":"29","event":"COMPLETED","domain":"DS","category":"milestone"}],"section_1_demographics":{"usubjid":"COVID-THER-301-SITE003-0495","subjid":"0495","siteid":"SITE003","age":"38","ageu":"YEARS","sex":"F","race":"WHITE","ethnicity":"NOT HISPANIC OR LATINO","country":"USA","arm":"Antiviral 200mg BID","armcd":"AV200","actarm":"Antiviral 200mg BID","actarmcd":"AV200","randomization_date":null,"informed_consent_date":"2024-01-26","reference_start_date":"2024-02-03","reference_end_date":"2024-03-02","screen_failure":false,"death_flag":null,"death_date":null,"subject_characteristics":[{"testcd":"ALCUSE","test":"Alcohol Use","orres":"CURRENT DRINKER","stresc":"CURRENT DRINKER","visit":null,"dtc":"2024-01-26"},{"testcd":"BMI","test":"Body Mass Index","orres":"31.7","stresc":"31.7","visit":null,"dtc":"2024-01-26"},{"testcd":"DURDIS","test":"Duration of Disease","orres":"60 months","stresc":"60","visit":null,"dtc":"2024-01-26"},{"testcd":"TOBPKYR","test":"Tobacco Pack-Years","orres":"7","stresc":"7","visit":null,"dtc":"2024-01-26"},{"testcd":"TOBUSE","test":"Tobacco Use","orres":"FORMER SMOKER","stresc":"FORMER SMOKER","visit":null,"dtc":"2024-01-26"}]},"section_2_medical_history":{"items":[{"seq":"1","term":"ASTHMA","decod":"ASTHMA","cat":"RESPIRATORY","scat":null,"presp":null,"occur":null,"status":null,"onset_dtc":"2023-01","end_dtc":"2023-05-21","visit":null},{"seq":"2","term":"DEPRESSION","decod":"DEPRESSION","cat":"PSYCHIATRIC","scat":null,"presp":null,"occur":null,"status":null,"onset_dtc":"2021-01-26","end_dtc":null,"visit":null},{"seq":"3","term":"DIABETES MELLITUS TYPE 2","decod":"DIABETES MELLITUS TYPE 2","cat":"ENDOCRINE","scat":null,"presp":null,"occur":null,"status":null,"onset_dtc":"2022-01-26","end_dtc":"2022-06-14","visit":null},{"seq":"4","term":"GASTROESOPHAGEAL REFLUX DISEASE","decod":"GASTROESOPHAGEAL REFLUX DISEASE","cat":"GASTROINTESTINAL","scat":null,"presp":null,"occur":null,"status":null,"onset_dtc":"2021-01-26","end_dtc":"2021-06-30","visit":null},{"seq":"5","term":"HYPERLIPIDEMIA","decod":"HYPERLIPIDEMIA","cat":"METABOLIC","scat":null,"presp":null,"occur":null,"status":null,"onset_dtc":"2019-01-27","end_dtc":"2022-11-07","visit":null}]},"section_3_inclusion_exclusion":{"criteria":[]},"section_4_trial_participation":{"visits":[{"visitnum":"1.0","visit":"BASELINE","start_dtc":"2024-02-03","end_dtc":"2024-02-03","updes":null},{"visitnum":"2.0","visit":"DAY 3","start_dtc":"2024-02-06","end_dtc":"2024-02-06","updes":null},{"visitnum":"3.0","visit":"DAY 5","start_dtc":"2024-02-08","end_dtc":"2024-02-08","updes":null},{"visitnum":"4.0","visit":"DAY 14","start_dtc":"2024-02-15","end_dtc":"2024-02-15","updes":null}],"epochs":[{"seq":"1","etcd":"SCRN","element":"Screening","start_dtc":"2024-02-02","end_dtc":"2024-02-03","updes":null},{"seq":"2","etcd":"TRT","element":"Treatment","start_dtc":"2024-02-03","end_dtc":"2024-02-08","updes":null},{"seq":"3","etcd":"FU","element":"Follow-up","start_dtc":"2024-02-08","end_dtc":"2024-03-01","updes":null}],"visit_count":4},"section_5_concomitant_medications":{"medications":[{"seq":"1","trt":"SERTRALINE","decod":"SERTRALINE","cat":"PRIOR","dose":"50","doseu":null,"dosef":"QD","route":"ORAL","indication":"DEPRESSION","start_dtc":"2021-01-26","end_dtc":"2024-03-02","ongoing":null,"visit":null},{"seq":"2","trt":"ASPIRIN","decod":"ASPIRIN","cat":"CONCOMITANT","dose":null,"doseu":null,"dosef":"QD","route":"ORAL","indication":null,"start_dtc":"2024-02-14","end_dtc":"2024-03-02","ongoing":null,"visit":null}]},"section_6_exposure":{"exposure_as_administered":[{"seq":"1","trt":"ANTIVIRAL","dose":"200.0","doseu":null,"dosef":"BID","route":"ORAL","lot":null,"start_dtc":"2024-02-03","end_dtc":"2024-02-06","start_dy":"1","end_dy":"4","epoch":"TREATMENT","visit":null}],"exposure_as_collected":[{"seq":"1","trt":"ANTIVIRAL","dose":"200.0","doseu":null,"dosef":"BID","route":"ORAL","start_dtc":"2024-02-03","end_dtc":"2024-02-03","visit":"BASELINE"},{"seq":"2","trt":"ANTIVIRAL","dose":"200.0","doseu":null,"dosef":"BID","route":"ORAL","start_dtc":"2024-02-03","end_dtc":"2024-02-03","visit":"BASELINE"},{"seq":"3","trt":"ANTIVIRAL","dose":"200.0","doseu":null,"dosef":"BID","route":"ORAL","start_dtc":"2024-02-04","end_dtc":"2024-02-04","visit":"BASELINE"},{"seq":"4","trt":"ANTIVIRAL","dose":"200.0","doseu":null,"dosef":"BID","route":"ORAL","start_dtc":"2024-02-04","end_dtc":"2024-02-04","visit":"BASELINE"},{"seq":"5","trt":"ANTIVIRAL","dose":"200.0","doseu":null,"dosef":"BID","route":"ORAL","start_dtc":"2024-02-05","end_dtc":"2024-02-05","visit":"BASELINE"},{"seq":"6","trt":"ANTIVIRAL","dose":"200.0","doseu":null,"dosef":"BID","route":"ORAL","start_dtc":"2024-02-05","end_dtc":"2024-02-05","visit":"BASELINE"},{"seq":"7","trt":"ANTIVIRAL","dose":null,"doseu":null,"dosef":"BID","route":"ORAL","start_dtc":"2024-02-06","end_dtc":"2024-02-06","visit":"BASELINE"},{"seq":"8","trt":"ANTIVIRAL","dose":"200.0","doseu":null,"dosef":"BID","route":"ORAL","start_dtc":"2024-02-06","end_dtc":"2024-02-06","visit":"BASELINE"}]},"section_7_adverse_events":{"summary":{"total_aes":0,"serious_aes":0,"fatal_aes":0,"by_severity":{},"by_soc":{}},"events":[]},"section_8_laboratory_results":{"summary":{"total_records":28,"abnormal_count":3,"abnormal_pct":10.7},"shift_summary":[{"testcd":"ALT","baseline_value":31.22,"baseline_nrind":"NORMAL","worst_post_baseline_value":32.76,"worst_post_baseline_nrind":"NORMAL","worst_visit":"DAY 5"},{"testcd":"AST","baseline_value":25.71,"baseline_nrind":"NORMAL","worst_post_baseline_value":26.59,"worst_post_baseline_nrind":"NORMAL","worst_visit":"DAY 3"},{"testcd":"CREAT","baseline_value":76.26,"baseline_nrind":"NORMAL","worst_post_baseline_value":79.77,"worst_post_baseline_nrind":"NORMAL","worst_visit":"DAY 14"},{"testcd":"GLUC","baseline_value":7.0,"baseline_nrind":"HIGH","worst_post_baseline_value":7.11,"worst_post_baseline_nrind":"HIGH","worst_visit":"DAY 3"},{"testcd":"HGB","baseline_value":138.56,"baseline_nrind":"NORMAL","worst_post_baseline_value":136.74,"worst_post_baseline_nrind":"NORMAL","worst_visit":"DAY 14"},{"testcd":"PLAT","baseline_value":185.35,"baseline_nrind":"NORMAL","worst_post_baseline_value":184.19,"worst_post_baseline_nrind":"NORMAL","worst_visit":"DAY 3"},{"testcd":"WBC","baseline_value":5.94,"baseline_nrind":"NORMAL","worst_post_baseline_value":5.54,"worst_post_baseline_nrind":"NORMAL","worst_visit":"DAY 5"}],"results":[{"seq":"1","testcd":"ALT","test":"Alanine Aminotransferase","cat":"CHEMISTRY","orres":"31.22","orresu":"U/L","stresc":"31.22","stresn":"31.22","stresu":"U/L","stnrlo":"7","stnrhi":"56","nrind":"NORMAL","fast":null,"dtc":"2024-02-03","dy":"1","visit":"BASELINE","visitnum":"1.0","epoch":"TREATMENT","spec":null,"method":null},{"seq":"2","testcd":"AST","test":"Aspartate Aminotransferase","cat":"CHEMISTRY","orres":"25.71","orresu":"U/L","stresc":"25.71","stresn":"25.71","stresu":"U/L","stnrlo":"10","stnrhi":"40","nrind":"NORMAL","fast":null,"dtc":"2024-02-03","dy":"1","visit":"BASELINE","visitnum":"1.0","epoch":"TREATMENT","spec":null,"method":null},{"seq":"3","testcd":"CREAT","test":"Creatinine","cat":"CHEMISTRY","orres":"76.26","orresu":"umol/L","stresc":"76.26","stresn":"76.26","stresu":"umol/L","stnrlo":"44","stnrhi":"80","nrind":"NORMAL","fast":null,"dtc":"2024-02-03","dy":"1","visit":"BASELINE","visitnum":"1.0","epoch":"TREATMENT","spec":null,"method":null},{"seq":"4","testcd":"GLUC","test":"Glucose","cat":"CHEMISTRY","orres":"7.0","orresu":"mmol/L","stresc":"7.0","stresn":"7.0","stresu":"mmol/L","stnrlo":"3.9","stnrhi":"5.6","nrind":"HIGH","fast":null,"dtc":"2024-02-03","dy":"1","visit":"BASELINE","visitnum":"1.0","epoch":"TREATMENT","spec":null,"method":null},{"seq":"5","testcd":"HGB","test":"Hemoglobin","cat":"HEMATOLOGY","orres":"138.56","orresu":"g/L","stresc":"138.56","stresn":"138.56","stresu":"g/L","stnrlo":"120","stnrhi":"155","nrind":"NORMAL","fast":null,"dtc":"2024-02-03","dy":"1","visit":"BASELINE","visitnum":"1.0","epoch":"TREATMENT","spec":null,"method":null},{"seq":"6","testcd":"PLAT","test":"Platelets","cat":"HEMATOLOGY","orres":"185.35","orresu":"10^9/L","stresc":"185.35","stresn":"185.35","stresu":"10^9/L","stnrlo":"150","stnrhi":"400","nrind":"NORMAL","fast":null,"dtc":"2024-02-03","dy":"1","visit":"BASELINE","visitnum":"1.0","epoch":"TREATMENT","spec":null,"method":null},{"seq":"7","testcd":"WBC","test":"Leukocytes","cat":"HEMATOLOGY","orres":"5.94","orresu":"10^9/L","stresc":"5.94","stresn":"5.94","stresu":"10^9/L","stnrlo":"4.0","stnrhi":"11.0","nrind":"NORMAL","fast":null,"dtc":"2024-02-03","dy":"1","visit":"BASELINE","visitnum":"1.0","epoch":"TREATMENT","spec":null,"method":null},{"seq":"8","testcd":"ALT","test":"Alanine Aminotransferase","cat":"CHEMISTRY","orres":"30.48","orresu":"U/L","stresc":"30.48","stresn":"30.48","stresu":"U/L","stnrlo":"7","stnrhi":"56","nrind":"NORMAL","fast":null,"dtc":"2024-02-06","dy":"4","visit":"DAY 3","visitnum":"2.0","epoch":"TREATMENT","spec":null,"method":null},{"seq":"9","testcd":"AST","test":"Aspartate Aminotransferase","cat":"CHEMISTRY","orres":"26.59","orresu":"U/L","stresc":"26.59","stresn":"26.59","stresu":"U/L","stnrlo":"10","stnrhi":"40","nrind":"NORMAL","fast":null,"dtc":"2024-02-06","dy":"4","visit":"DAY 3","visitnum":"2.0","epoch":"TREATMENT","spec":null,"method":null},{"seq":"10","testcd":"CREAT","test":"Creatinine","cat":"CHEMISTRY","orres":"75.03","orresu":"umol/L","stresc":"75.03","stresn":"75.03","stresu":"umol/L","stnrlo":"44","stnrhi":"80","nrind":"NORMAL","fast":null,"dtc":"2024-02-06","dy":"4","visit":"DAY 3","visitnum":"2.0","epoch":"TREATMENT","spec":null,"method":null},{"seq":"11","testcd":"GLUC","test":"Glucose","cat":"CHEMISTRY","orres":"7.11","orresu":"mmol/L","stresc":"7.11","stresn":"7.11","stresu":"mmol/L","stnrlo":"3.9","stnrhi":"5.6","nrind":"HIGH","fast":null,"dtc":"2024-02-06","dy":"4","visit":"DAY 3","visitnum":"2.0","epoch":"TREATMENT","spec":null,"method":null},{"seq":"12","testcd":"HGB","test":"Hemoglobin","cat":"HEMATOLOGY","orres":"138.01","orresu":"g/L","stresc":"138.01","stresn":"138.01","stresu":"g/L","stnrlo":"120","stnrhi":"155","nrind":"NORMAL","fast":null,"dtc":"2024-02-06","dy":"4","visit":"DAY 3","visitnum":"2.0","epoch":"TREATMENT","spec":null,"method":null},{"seq":"13","testcd":"PLAT","test":"Platelets","cat":"HEMATOLOGY","orres":"184.19","orresu":"10^9/L","stresc":"184.19","stresn":"184.19","stresu":"10^9/L","stnrlo":"150","stnrhi":"400","nrind":"NORMAL","fast":null,"dtc":"2024-02-06","dy":"4","visit":"DAY 3","visitnum":"2.0","epoch":"TREATMENT","spec":null,"method":null},{"seq":"14","testcd":"WBC","test":"Leukocytes","cat":"HEMATOLOGY","orres":"5.31","orresu":"10^9/L","stresc":"5.31","stresn":"5.31","stresu":"10^9/L","stnrlo":"4.0","stnrhi":"11.0","nrind":"NORMAL","fast":null,"dtc":"2024-02-06","dy":"4","visit":"DAY 3","visitnum":"2.0","epoch":"TREATMENT","spec":null,"method":null},{"seq":"15","testcd":"ALT","test":"Alanine Aminotransferase","cat":"CHEMISTRY","orres":"32.76","orresu":"U/L","stresc":"32.76","stresn":"32.76","stresu":"U/L","stnrlo":"7","stnrhi":"56","nrind":"NORMAL","fast":null,"dtc":"2024-02-08","dy":"6","visit":"DAY 5","visitnum":"3.0","epoch":"TREATMENT","spec":null,"method":null},{"seq":"16","testcd":"AST","test":"Aspartate Aminotransferase","cat":"CHEMISTRY","orres":"25.95","orresu":"U/L","stresc":"25.95","stresn":"25.95","stresu":"U/L","stnrlo":"10","stnrhi":"40","nrind":"NORMAL","fast":null,"dtc":"2024-02-08","dy":"6","visit":"DAY 5","visitnum":"3.0","epoch":"TREATMENT","spec":null,"method":null},{"seq":"17","testcd":"CREAT","test":"Creatinine","cat":"CHEMISTRY","orres":"78.29","orresu":"umol/L","stresc":"78.29","stresn":"78.29","stresu":"umol/L","stnrlo":"44","stnrhi":"80","nrind":"NORMAL","fast":null,"dtc":"2024-02-08","dy":"6","visit":"DAY 5","visitnum":"3.0","epoch":"TREATMENT","spec":null,"method":null},{"seq":"18","testcd":"GLUC","test":"Glucose","cat":"CHEMISTRY","orres":"7.02","orresu":"mmol/L","stresc":"7.02","stresn":"7.02","stresu":"mmol/L","stnrlo":"3.9","stnrhi":"5.6","nrind":"HIGH","fast":null,"dtc":"2024-02-08","dy":"6","visit":"DAY 5","visitnum":"3.0","epoch":"TREATMENT","spec":null,"method":null},{"seq":"19","testcd":"HGB","test":"Hemoglobin","cat":"HEMATOLOGY","orres":"137.79","orresu":"g/L","stresc":"137.79","stresn":"137.79","stresu":"g/L","stnrlo":"120","stnrhi":"155","nrind":"NORMAL","fast":null,"dtc":"2024-02-08","dy":"6","visit":"DAY 5","visitnum":"3.0","epoch":"TREATMENT","spec":null,"method":null},{"seq":"20","testcd":"PLAT","test":"Platelets","cat":"HEMATOLOGY","orres":"164.12","orresu":"10^9/L","stresc":"164.12","stresn":"164.12","stresu":"10^9/L","stnrlo":"150","stnrhi":"400","nrind":"NORMAL","fast":null,"dtc":"2024-02-08","dy":"6","visit":"DAY 5","visitnum":"3.0","epoch":"TREATMENT","spec":null,"method":null},{"seq":"21","testcd":"WBC","test":"Leukocytes","cat":"HEMATOLOGY","orres":"5.54","orresu":"10^9/L","stresc":"5.54","stresn":"5.54","stresu":"10^9/L","stnrlo":"4.0","stnrhi":"11.0","nrind":"NORMAL","fast":null,"dtc":"2024-02-08","dy":"6","visit":"DAY 5","visitnum":"3.0","epoch":"TREATMENT","spec":null,"method":null},{"seq":"22","testcd":"ALT","test":"Alanine Aminotransferase","cat":"CHEMISTRY","orres":"30.5","orresu":"U/L","stresc":"30.5","stresn":"30.5","stresu":"U/L","stnrlo":"7","stnrhi":"56","nrind":"NORMAL","fast":null,"dtc":"2024-02-15","dy":"13","visit":"DAY 14","visitnum":"4.0","epoch":"FOLLOW-UP","spec":null,"method":null},{"seq":"23","testcd":"AST","test":"Aspartate Aminotransferase","cat":"CHEMISTRY","orres":"25.04","orresu":"U/L","stresc":"25.04","stresn":"25.04","stresu":"U/L","stnrlo":"10","stnrhi":"40","nrind":"NORMAL","fast":null,"dtc":"2024-02-15","dy":"13","visit":"DAY 14","visitnum":"4.0","epoch":"FOLLOW-UP","spec":null,"method":null},{"seq":"24","testcd":"CREAT","test":"Creatinine","cat":"CHEMISTRY","orres":"79.77","orresu":"umol/L","stresc":"79.77","stresn":"79.77","stresu":"umol/L","stnrlo":"44","stnrhi":"80","nrind":"NORMAL","fast":null,"dtc":"2024-02-15","dy":"13","visit":"DAY 14","visitnum":"4.0","epoch":"FOLLOW-UP","spec":null,"method":null},{"seq":"25","testcd":"GLUC","test":"Glucose","cat":"CHEMISTRY","orres":null,"orresu":null,"stresc":null,"stresn":null,"stresu":null,"stnrlo":null,"stnrhi":null,"nrind":null,"fast":null,"dtc":"2024-02-15","dy":"13","visit":"DAY 14","visitnum":"4.0","epoch":"FOLLOW-UP","spec":null,"method":null},{"seq":"26","testcd":"HGB","test":"Hemoglobin","cat":"HEMATOLOGY","orres":"136.74","orresu":"g/L","stresc":"136.74","stresn":"136.74","stresu":"g/L","stnrlo":"120","stnrhi":"155","nrind":"NORMAL","fast":null,"dtc":"2024-02-15","dy":"13","visit":"DAY 14","visitnum":"4.0","epoch":"FOLLOW-UP","spec":null,"method":null},{"seq":"27","testcd":"PLAT","test":"Platelets","cat":"HEMATOLOGY","orres":"157.36","orresu":"10^9/L","stresc":"157.36","stresn":"157.36","stresu":"10^9/L","stnrlo":"150","stnrhi":"400","nrind":"NORMAL","fast":null,"dtc":"2024-02-15","dy":"13","visit":"DAY 14","visitnum":"4.0","epoch":"FOLLOW-UP","spec":null,"method":null},{"seq":"28","testcd":"WBC","test":"Leukocytes","cat":"HEMATOLOGY","orres":"4.93","orresu":"10^9/L","stresc":"4.93","stresn":"4.93","stresu":"10^9/L","stnrlo":"4.0","stnrhi":"11.0","nrind":"NORMAL","fast":null,"dtc":"2024-02-15","dy":"13","visit":"DAY 14","visitnum":"4.0","epoch":"FOLLOW-UP","spec":null,"method":null}]},"section_9_vital_signs":{"summary":{"total_records":32},"trends":{"BMI":[{"visit":"BASELINE","visitnum":"1.0","dtc":"2024-02-03","value":"31.7","unit":"kg/m2"},{"visit":"DAY 3","visitnum":"2.0","dtc":"2024-02-06","value":"32.4","unit":"kg/m2"},{"visit":"DAY 5","visitnum":"3.0","dtc":"2024-02-08","value":"33.8","unit":"kg/m2"},{"visit":"DAY 14","visitnum":"4.0","dtc":"2024-02-15","value":"33.3","unit":"kg/m2"}],"DIABP":[{"visit":"BASELINE","visitnum":"1.0","dtc":"2024-02-03","value":"68.3","unit":"mmHg"},{"visit":"DAY 3","visitnum":"2.0","dtc":"2024-02-06","value":"69.3","unit":"mmHg"},{"visit":"DAY 5","visitnum":"3.0","dtc":"2024-02-08","value":"69.1","unit":"mmHg"},{"visit":"DAY 14","visitnum":"4.0","dtc":"2024-02-15","value":"68.4","unit":"mmHg"}],"HEIGHT":[{"visit":"BASELINE","visitnum":"1.0","dtc":"2024-02-03","value":"152.0","unit":"cm"},{"visit":"DAY 3","visitnum":"2.0","dtc":"2024-02-06","value":"152.3","unit":"cm"},{"visit":"DAY 5","visitnum":"3.0","dtc":"2024-02-08","value":"151.9","unit":"cm"},{"visit":"DAY 14","visitnum":"4.0","dtc":"2024-02-15","value":"152.3","unit":"cm"}],"PULSE":[{"visit":"BASELINE","visitnum":"1.0","dtc":"2024-02-03","value":"75.6","unit":"beats/min"},{"visit":"DAY 3","visitnum":"2.0","dtc":"2024-02-06","value":"73.9","unit":"beats/min"},{"visit":"DAY 5","visitnum":"3.0","dtc":"2024-02-08","value":"68.9","unit":"beats/min"},{"visit":"DAY 14","visitnum":"4.0","dtc":"2024-02-15","value":"69.1","unit":"beats/min"}],"RESP":[{"visit":"BASELINE","visitnum":"1.0","dtc":"2024-02-03","value":"15.8","unit":"breaths/min"},{"visit":"DAY 3","visitnum":"2.0","dtc":"2024-02-06","value":"16.2","unit":"breaths/min"},{"visit":"DAY 5","visitnum":"3.0","dtc":"2024-02-08","value":"17.9","unit":"breaths/min"},{"visit":"DAY 14","visitnum":"4.0","dtc":"2024-02-15","value":"18.3","unit":"breaths/min"}],"SYSBP":[{"visit":"BASELINE","visitnum":"1.0","dtc":"2024-02-03","value":"125.2","unit":"mmHg"},{"visit":"DAY 3","visitnum":"2.0","dtc":"2024-02-06","value":"128.1","unit":"mmHg"},{"visit":"DAY 5","visitnum":"3.0","dtc":"2024-02-08","value":"127.0","unit":"mmHg"},{"visit":"DAY 14","visitnum":"4.0","dtc":"2024-02-15","value":"125.4","unit":"mmHg"}],"TEMP":[{"visit":"BASELINE","visitnum":"1.0","dtc":"2024-02-03","value":"36.0","unit":"C"},{"visit":"DAY 3","visitnum":"2.0","dtc":"2024-02-06","value":"36.2","unit":"C"},{"visit":"DAY 5","visitnum":"3.0","dtc":"2024-02-08","value":"36.0","unit":"C"},{"visit":"DAY 14","visitnum":"4.0","dtc":"2024-02-15","value":"36.3","unit":"C"}],"WEIGHT":[{"visit":"BASELINE","visitnum":"1.0","dtc":"2024-02-03","value":"73.2","unit":"kg"},{"visit":"DAY 3","visitnum":"2.0","dtc":"2024-02-06","value":"75.1","unit":"kg"},{"visit":"DAY 5","visitnum":"3.0","dtc":"2024-02-08","value":"78.1","unit":"kg"},{"visit":"DAY 14","visitnum":"4.0","dtc":"2024-02-15","value":"77.3","unit":"kg"}]},"results":[{"seq":"1","testcd":"BMI","test":"BMI","cat":null,"orres":"31.7","orresu":"kg/m2","stresc":"31.7","stresn":"31.7","stresu":"kg/m2","stnrlo":null,"stnrhi":null,"nrind":null,"pos":null,"loc":null,"dtc":"2024-02-03","dy":"1","visit":"BASELINE","visitnum":"1.0","epoch":"TREATMENT"},{"seq":"2","testcd":"DIABP","test":"Diastolic Blood Pressure","cat":null,"orres":"68.3","orresu":"mmHg","stresc":"68.3","stresn":"68.3","stresu":"mmHg","stnrlo":null,"stnrhi":null,"nrind":null,"pos":null,"loc":null,"dtc":"2024-02-03","dy":"1","visit":"BASELINE","visitnum":"1.0","epoch":"TREATMENT"},{"seq":"3","testcd":"HEIGHT","test":"Height","cat":null,"orres":"152.0","orresu":"cm","stresc":"152.0","stresn":"152.0","stresu":"cm","stnrlo":null,"stnrhi":null,"nrind":null,"pos":null,"loc":null,"dtc":"2024-02-03","dy":"1","visit":"BASELINE","visitnum":"1.0","epoch":"TREATMENT"},{"seq":"4","testcd":"PULSE","test":"Pulse Rate","cat":null,"orres":"75.6","orresu":"beats/min","stresc":"75.6","stresn":"75.6","stresu":"beats/min","stnrlo":null,"stnrhi":null,"nrind":null,"pos":null,"loc":null,"dtc":"2024-02-03","dy":"1","visit":"BASELINE","visitnum":"1.0","epoch":"TREATMENT"},{"seq":"5","testcd":"RESP","test":"Respiratory Rate","cat":null,"orres":"15.8","orresu":"breaths/min","stresc":"15.8","stresn":"15.8","stresu":"breaths/min","stnrlo":null,"stnrhi":null,"nrind":null,"pos":null,"loc":null,"dtc":"2024-02-03","dy":"1","visit":"BASELINE","visitnum":"1.0","epoch":"TREATMENT"},{"seq":"6","testcd":"SYSBP","test":"Systolic Blood Pressure","cat":null,"orres":"125.2","orresu":"mmHg","stresc":"125.2","stresn":"125.2","stresu":"mmHg","stnrlo":null,"stnrhi":null,"nrind":null,"pos":null,"loc":null,"dtc":"2024-02-03","dy":"1","visit":"BASELINE","visitnum":"1.0","epoch":"TREATMENT"},{"seq":"7","testcd":"TEMP","test":"Temperature","cat":null,"orres":"36.0","orresu":"C","stresc":"36.0","stresn":"36.0","stresu":"C","stnrlo":null,"stnrhi":null,"nrind":null,"pos":null,"loc":null,"dtc":"2024-02-03","dy":"1","visit":"BASELINE","visitnum":"1.0","epoch":"TREATMENT"},{"seq":"8","testcd":"WEIGHT","test":"Weight","cat":null,"orres":"73.2","orresu":"kg","stresc":"73.2","stresn":"73.2","stresu":"kg","stnrlo":null,"stnrhi":null,"nrind":null,"pos":null,"loc":null,"dtc":"2024-02-03","dy":"1","visit":"BASELINE","visitnum":"1.0","epoch":"TREATMENT"},{"seq":"9","testcd":"BMI","test":"BMI","cat":null,"orres":"32.4","orresu":"kg/m2","stresc":"32.4","stresn":"32.4","stresu":"kg/m2","stnrlo":null,"stnrhi":null,"nrind":null,"pos":null,"loc":null,"dtc":"2024-02-06","dy":"4","visit":"DAY 3","visitnum":"2.0","epoch":"TREATMENT"},{"seq":"10","testcd":"DIABP","test":"Diastolic Blood Pressure","cat":null,"orres":"69.3","orresu":"mmHg","stresc":"69.3","stresn":"69.3","stresu":"mmHg","stnrlo":null,"stnrhi":null,"nrind":null,"pos":null,"loc":null,"dtc":"2024-02-06","dy":"4","visit":"DAY 3","visitnum":"2.0","epoch":"TREATMENT"},{"seq":"11","testcd":"HEIGHT","test":"Height","cat":null,"orres":"152.3","orresu":"cm","stresc":"152.3","stresn":"152.3","stresu":"cm","stnrlo":null,"stnrhi":null,"nrind":null,"pos":null,"loc":null,"dtc":"2024-02-06","dy":"4","visit":"DAY 3","visitnum":"2.0","epoch":"TREATMENT"},{"seq":"12","testcd":"PULSE","test":"Pulse Rate","cat":null,"orres":"73.9","orresu":"beats/min","stresc":"73.9","stresn":"73.9","stresu":"beats/min","stnrlo":null,"stnrhi":null,"nrind":null,"pos":null,"loc":null,"dtc":"2024-02-06","dy":"4","visit":"DAY 3","visitnum":"2.0","epoch":"TREATMENT"},{"seq":"13","testcd":"RESP","test":"Respiratory Rate","cat":null,"orres":"16.2","orresu":"breaths/min","stresc":"16.2","stresn":"16.2","stresu":"breaths/min","stnrlo":null,"stnrhi":null,"nrind":null,"pos":null,"loc":null,"dtc":"2024-02-06","dy":"4","visit":"DAY 3","visitnum":"2.0","epoch":"TREATMENT"},{"seq":"14","testcd":"SYSBP","test":"Systolic Blood Pressure","cat":null,"orres":"128.1","orresu":"mmHg","stresc":"128.1","stresn":"128.1","stresu":"mmHg","stnrlo":null,"stnrhi":null,"nrind":null,"pos":null,"loc":null,"dtc":"2024-02-06","dy":"4","visit":"DAY 3","visitnum":"2.0","epoch":"TREATMENT"},{"seq":"15","testcd":"TEMP","test":"Temperature","cat":null,"orres":"36.2","orresu":"C","stresc":"36.2","stresn":"36.2","stresu":"C","stnrlo":null,"stnrhi":null,"nrind":null,"pos":null,"loc":null,"dtc":"2024-02-06","dy":"4","visit":"DAY 3","visitnum":"2.0","epoch":"TREATMENT"},{"seq":"16","testcd":"WEIGHT","test":"Weight","cat":null,"orres":"75.1","orresu":"kg","stresc":"75.1","stresn":"75.1","stresu":"kg","stnrlo":null,"stnrhi":null,"nrind":null,"pos":null,"loc":null,"dtc":"2024-02-06","dy":"4","visit":"DAY 3","visitnum":"2.0","epoch":"TREATMENT"},{"seq":"17","testcd":"BMI","test":"BMI","cat":null,"orres":"33.8","orresu":"kg/m2","stresc":"33.8","stresn":"33.8","stresu":"kg/m2","stnrlo":null,"stnrhi":null,"nrind":null,"pos":null,"loc":null,"dtc":"2024-02-08","dy":"6","visit":"DAY 5","visitnum":"3.0","epoch":"TREATMENT"},{"seq":"18","testcd":"DIABP","test":"Diastolic Blood Pressure","cat":null,"orres":"69.1","orresu":"mmHg","stresc":"69.1","stresn":"69.1","stresu":"mmHg","stnrlo":null,"stnrhi":null,"nrind":null,"pos":null,"loc":null,"dtc":"2024-02-08","dy":"6","visit":"DAY 5","visitnum":"3.0","epoch":"TREATMENT"},{"seq":"19","testcd":"HEIGHT","test":"Height","cat":null,"orres":"151.9","orresu":"cm","stresc":"151.9","stresn":"151.9","stresu":"cm","stnrlo":null,"stnrhi":null,"nrind":null,"pos":null,"loc":null,"dtc":"2024-02-08","dy":"6","visit":"DAY 5","visitnum":"3.0","epoch":"TREATMENT"},{"seq":"20","testcd":"PULSE","test":"Pulse Rate","cat":null,"orres":"68.9","orresu":"beats/min","stresc":"68.9","stresn":"68.9","stresu":"beats/min","stnrlo":null,"stnrhi":null,"nrind":null,"pos":null,"loc":null,"dtc":"2024-02-08","dy":"6","visit":"DAY 5","visitnum":"3.0","epoch":"TREATMENT"},{"seq":"21","testcd":"RESP","test":"Respiratory Rate","cat":null,"orres":"17.9","orresu":"breaths/min","stresc":"17.9","stresn":"17.9","stresu":"breaths/min","stnrlo":null,"stnrhi":null,"nrind":null,"pos":null,"loc":null,"dtc":"2024-02-08","dy":"6","visit":"DAY 5","visitnum":"3.0","epoch":"TREATMENT"},{"seq":"22","testcd":"SYSBP","test":"Systolic Blood Pressure","cat":null,"orres":"127.0","orresu":"mmHg","stresc":"127.0","stresn":"127.0","stresu":"mmHg","stnrlo":null,"stnrhi":null,"nrind":null,"pos":null,"loc":null,"dtc":"2024-02-08","dy":"6","visit":"DAY 5","visitnum":"3.0","epoch":"TREATMENT"},{"seq":"23","testcd":"TEMP","test":"Temperature","cat":null,"orres":"36.0","orresu":"C","stresc":"36.0","stresn":"36.0","stresu":"C","stnrlo":null,"stnrhi":null,"nrind":null,"pos":null,"loc":null,"dtc":"2024-02-08","dy":"6","visit":"DAY 5","visitnum":"3.0","epoch":"TREATMENT"},{"seq":"24","testcd":"WEIGHT","test":"Weight","cat":null,"orres":"78.1","orresu":"kg","stresc":"78.1","stresn":"78.1","stresu":"kg","stnrlo":null,"stnrhi":null,"nrind":null,"pos":null,"loc":null,"dtc":"2024-02-08","dy":"6","visit":"DAY 5","visitnum":"3.0","epoch":"TREATMENT"},{"seq":"25","testcd":"BMI","test":"BMI","cat":null,"orres":"33.3","orresu":"kg/m2","stresc":"33.3","stresn":"33.3","stresu":"kg/m2","stnrlo":null,"stnrhi":null,"nrind":null,"pos":null,"loc":null,"dtc":"2024-02-15","dy":"13","visit":"DAY 14","visitnum":"4.0","epoch":"FOLLOW-UP"},{"seq":"26","testcd":"DIABP","test":"Diastolic Blood Pressure","cat":null,"orres":"68.4","orresu":"mmHg","stresc":"68.4","stresn":"68.4","stresu":"mmHg","stnrlo":null,"stnrhi":null,"nrind":null,"pos":null,"loc":null,"dtc":"2024-02-15","dy":"13","visit":"DAY 14","visitnum":"4.0","epoch":"FOLLOW-UP"},{"seq":"27","testcd":"HEIGHT","test":"Height","cat":null,"orres":"152.3","orresu":"cm","stresc":"152.3","stresn":"152.3","stresu":"cm","stnrlo":null,"stnrhi":null,"nrind":null,"pos":null,"loc":null,"dtc":"2024-02-15","dy":"13","visit":"DAY 14","visitnum":"4.0","epoch":"FOLLOW-UP"},{"seq":"28","testcd":"PULSE","test":"Pulse Rate","cat":null,"orres":"69.1","orresu":"beats/min","stresc":"69.1","stresn":"69.1","stresu":"beats/min","stnrlo":null,"stnrhi":null,"nrind":null,"pos":null,"loc":null,"dtc":"2024-02-15","dy":"13","visit":"DAY 14","visitnum":"4.0","epoch":"FOLLOW-UP"},{"seq":"29","testcd":"RESP","test":"Respiratory Rate","cat":null,"orres":"18.3","orresu":"breaths/min","stresc":"18.3","stresn":"18.3","stresu":"breaths/min","stnrlo":null,"stnrhi":null,"nrind":null,"pos":null,"loc":null,"dtc":"2024-02-15","dy":"13","visit":"DAY 14","visitnum":"4.0","epoch":"FOLLOW-UP"},{"seq":"30","testcd":"SYSBP","test":"Systolic Blood Pressure","cat":null,"orres":"125.4","orresu":"mmHg","stresc":"125.4","stresn":"125.4","stresu":"mmHg","stnrlo":null,"stnrhi":null,"nrind":null,"pos":null,"loc":null,"dtc":"2024-02-15","dy":"13","visit":"DAY 14","visitnum":"4.0","epoch":"FOLLOW-UP"},{"seq":"31","testcd":"TEMP","test":"Temperature","cat":null,"orres":"36.3","orresu":"C","stresc":"36.3","stresn":"36.3","stresu":"C","stnrlo":null,"stnrhi":null,"nrind":null,"pos":null,"loc":null,"dtc":"2024-02-15","dy":"13","visit":"DAY 14","visitnum":"4.0","epoch":"FOLLOW-UP"},{"seq":"32","testcd":"WEIGHT","test":"Weight","cat":null,"orres":"77.3","orresu":"kg","stresc":"77.3","stresn":"77.3","stresu":"kg","stnrlo":null,"stnrhi":null,"nrind":null,"pos":null,"loc":null,"dtc":"2024-02-15","dy":"13","visit":"DAY 14","visitnum":"4.0","epoch":"FOLLOW-UP"}]},"section_10_questionnaires_and_scores":{"questionnaires":[],"findings_about":[]},"section_11_protocol_deviations":{"deviations":[{"seq":"1","term":"Missed ANTIVIRAL dose on 2024-02-06","decod":"MISSED DOSE","cat":"MINOR","scat":"DOSING","start_dtc":"2024-02-06","end_dtc":null,"visit":null}],"total":1},"section_12_disposition":{"completion_status":"COMPLETED","disposition_records":[{"seq":"1","term":"INFORMED CONSENT OBTAINED","decod":"INFORMED CONSENT OBTAINED","cat":"PROTOCOL MILESTONE","scat":null,"dtc":"2024-01-26","dy":null,"visit":null,"epoch":"SCREENING"},{"seq":"2","term":"RANDOMIZED","decod":"RANDOMIZED","cat":"PROTOCOL MILESTONE","scat":null,"dtc":"2024-02-03","dy":null,"visit":null,"epoch":"TREATMENT"},{"seq":"3","term":"COMPLETED","decod":"COMPLETED","cat":"DISPOSITION EVENT","scat":null,"dtc":"2024-03-02","dy":null,"visit":null,"epoch":"FOLLOW-UP"}],"death":null},"section_13_hospitalizations":{"items":[],"total":0},"section_14_substance_use":{"items":[{"seq":"1","substance":"ALCOHOL","decod":"ALCOHOL","cat":"ALCOHOL","scat":null,"usage":"Y","dose":null,"dosu":null,"freq":null,"start_dtc":"2014-01-28","end_dtc":"2023-01-26"},{"seq":"2","substance":"COFFEE","decod":"COFFEE","cat":"CAFFEINE","scat":null,"usage":"Y","dose":"2.0","dosu":"CUPS/DAY","freq":"QD","start_dtc":"2003-01-31","end_dtc":null},{"seq":"3","substance":"CIGARETTES","decod":"CIGARETTES","cat":"TOBACCO","scat":"CIGARETTES","usage":"Y","dose":null,"dosu":null,"freq":null,"start_dtc":"2013-01-28","end_dtc":"2020-01-27"}],"total":3},"section_15_subject_status":{"items":[{"seq":"1","testcd":"SURVSTAT","test":"Survival Status","orres":"ALIVE","stresc":"ALIVE","dtc":"2024-02-16","visit":"DAY 14","epoch":"FOLLOW-UP"},{"seq":"2","testcd":"SURVSTAT","test":"Survival Status","orres":"ALIVE","stresc":"ALIVE","dtc":"2024-03-01","visit":"DAY 28","epoch":"FOLLOW-UP"}],"total":2}}