{"subject_id":"COVID-THER-301-SITE003-0048","study_id":"COVID-THER-301","generated_at":"2026-06-12T05:15:54.118434+00:00","sdtmig_version":"3.4","flags":{"has_serious_ae":true,"has_fatal_ae":false,"has_protocol_deviation":false,"n_protocol_deviations":0,"n_adverse_events":1,"n_concomitant_meds":2,"max_ae_severity":"SEVERE","screen_failure":false,"discontinued_early":true,"discontinuation_reason":"PHYSICIAN DECISION","death":false,"exposure_days":1},"timeline":[{"dtc":"2021-01-27","dy":"-1127","event":"CM START: ATORVASTATIN","domain":"CM","category":"concomitant_med"},{"dtc":"2024-01-27","dy":"-32","event":"INFORMED CONSENT OBTAINED","domain":"DS","category":"milestone"},{"dtc":"2024-02-28","dy":"1","event":"RANDOMIZED","domain":"DS","category":"milestone"},{"dtc":"2024-02-28","dy":"1","event":"FIRST DOSE: ANTIVIRAL","domain":"EX","category":"exposure"},{"dtc":"2024-02-28","dy":"1","event":"AE: Fatigue (SEVERE) [SERIOUS]","domain":"AE","category":"adverse_event"},{"dtc":"2024-02-28","dy":"1","event":"VISIT: BASELINE","domain":"SV","category":"visit"},{"dtc":"2024-02-29","dy":"2","event":"PHYSICIAN DECISION","domain":"DS","category":"milestone"},{"dtc":"2024-02-29","dy":"2","event":"CM START: METFORMIN","domain":"CM","category":"concomitant_med"}],"section_1_demographics":{"usubjid":"COVID-THER-301-SITE003-0048","subjid":"0048","siteid":"SITE003","age":"63","ageu":"YEARS","sex":"M","race":"BLACK OR AFRICAN AMERICAN","ethnicity":"NOT HISPANIC OR LATINO","country":"USA","arm":"Antiviral 200mg BID","armcd":"AV200","actarm":"Antiviral 200mg BID","actarmcd":"AV200","randomization_date":null,"informed_consent_date":"2024-01-27","reference_start_date":"2024-02-28","reference_end_date":"2024-02-29","screen_failure":false,"death_flag":null,"death_date":null,"subject_characteristics":[{"testcd":"ALCUSE","test":"Alcohol Use","orres":"HEAVY DRINKER","stresc":"HEAVY DRINKER","visit":null,"dtc":"2024-01-27"},{"testcd":"BMI","test":"Body Mass Index","orres":"26.1","stresc":"26.1","visit":null,"dtc":"2024-01-27"},{"testcd":"DURDIS","test":"Duration of Disease","orres":"121 months","stresc":"121","visit":null,"dtc":"2024-01-27"},{"testcd":"TOBPKYR","test":"Tobacco Pack-Years","orres":"13","stresc":"13","visit":null,"dtc":"2024-01-27"},{"testcd":"TOBUSE","test":"Tobacco Use","orres":"CURRENT SMOKER","stresc":"CURRENT SMOKER","visit":null,"dtc":"2024-01-27"}]},"section_2_medical_history":{"items":[{"seq":"1","term":"ASTHMA","decod":"ASTHMA","cat":"RESPIRATORY","scat":null,"presp":null,"occur":null,"status":null,"onset_dtc":"2020-01-28","end_dtc":"2023-07-04","visit":null},{"seq":"2","term":"DIABETES MELLITUS TYPE 2","decod":"DIABETES MELLITUS TYPE 2","cat":"ENDOCRINE","scat":null,"presp":null,"occur":null,"status":null,"onset_dtc":"2014-01-29","end_dtc":"2017-03-13","visit":null},{"seq":"3","term":"HYPERLIPIDEMIA","decod":"HYPERLIPIDEMIA","cat":"METABOLIC","scat":null,"presp":null,"occur":null,"status":null,"onset_dtc":"2021-01-27","end_dtc":null,"visit":null},{"seq":"4","term":"HYPERTENSION","decod":"HYPERTENSION","cat":"CARDIOVASCULAR","scat":null,"presp":null,"occur":null,"status":null,"onset_dtc":"2016-01-29","end_dtc":null,"visit":null}]},"section_3_inclusion_exclusion":{"criteria":[]},"section_4_trial_participation":{"visits":[{"visitnum":"1.0","visit":"BASELINE","start_dtc":"2024-02-28","end_dtc":"2024-02-28","updes":null}],"epochs":[{"seq":"1","etcd":"SCRN","element":"Screening","start_dtc":"2024-02-27","end_dtc":"2024-02-28","updes":null},{"seq":"2","etcd":"TRT","element":"Treatment","start_dtc":"2024-02-28","end_dtc":"2024-02-29","updes":null}],"visit_count":1},"section_5_concomitant_medications":{"medications":[{"seq":"1","trt":"ATORVASTATIN","decod":"ATORVASTATIN","cat":"PRIOR","dose":"20","doseu":null,"dosef":"QD","route":"ORAL","indication":"HYPERLIPIDEMIA","start_dtc":"2021-01-27","end_dtc":"2024-02-29","ongoing":null,"visit":null},{"seq":"2","trt":"METFORMIN","decod":"METFORMIN","cat":"CONCOMITANT","dose":null,"doseu":null,"dosef":"BID","route":"ORAL","indication":null,"start_dtc":"2024-02-29","end_dtc":"2024-02-29","ongoing":null,"visit":null}]},"section_6_exposure":{"exposure_as_administered":[{"seq":"1","trt":"ANTIVIRAL","dose":"200.0","doseu":null,"dosef":"BID","route":"ORAL","lot":null,"start_dtc":"2024-02-28","end_dtc":"2024-02-29","start_dy":"1","end_dy":"2","epoch":"TREATMENT","visit":null}],"exposure_as_collected":[{"seq":"1","trt":"ANTIVIRAL","dose":"200.0","doseu":null,"dosef":"BID","route":"ORAL","start_dtc":"2024-02-28","end_dtc":"2024-02-28","visit":"BASELINE"},{"seq":"2","trt":"ANTIVIRAL","dose":"200.0","doseu":null,"dosef":"BID","route":"ORAL","start_dtc":"2024-02-28","end_dtc":"2024-02-28","visit":"BASELINE"},{"seq":"3","trt":"ANTIVIRAL","dose":"200.0","doseu":null,"dosef":"BID","route":"ORAL","start_dtc":"2024-02-29","end_dtc":"2024-02-29","visit":"BASELINE"},{"seq":"4","trt":"ANTIVIRAL","dose":"200.0","doseu":null,"dosef":"BID","route":"ORAL","start_dtc":"2024-02-29","end_dtc":"2024-02-29","visit":"BASELINE"}]},"section_7_adverse_events":{"summary":{"total_aes":1,"serious_aes":1,"fatal_aes":0,"by_severity":{"SEVERE":1},"by_soc":{"General disorders and administration site conditions":1}},"events":[{"seq":"1","term":"FATIGUE","decod":"Fatigue","llt":"Fatigue","hlt":"Asthenic conditions","hlgt":"General system disorders NEC","soc":"General disorders and administration site conditions","bodsys":"General disorders and administration site conditions","severity":"SEVERE","serious":"Y","causality":"POSSIBLY RELATED","action_taken":"DRUG INTERRUPTED","outcome":"RECOVERED/RESOLVED","fatal":"N","hospitalization":"Y","life_threatening":"N","onset_dtc":"2024-02-28","end_dtc":"2024-02-29","onset_dy":"1","end_dy":"2","duration":null,"epoch":"TREATMENT","visit":null,"supplemental":{"AETRTEM":"Y"}}]},"section_8_laboratory_results":{"summary":{"total_records":7,"abnormal_count":3,"abnormal_pct":42.9},"shift_summary":[],"results":[{"seq":"1","testcd":"ALT","test":"Alanine Aminotransferase","cat":"CHEMISTRY","orres":"44.26","orresu":"U/L","stresc":"44.26","stresn":"44.26","stresu":"U/L","stnrlo":"7","stnrhi":"56","nrind":"NORMAL","fast":null,"dtc":"2024-02-28","dy":"1","visit":"BASELINE","visitnum":"1.0","epoch":"TREATMENT","spec":null,"method":null},{"seq":"2","testcd":"AST","test":"Aspartate Aminotransferase","cat":"CHEMISTRY","orres":"20.13","orresu":"U/L","stresc":"20.13","stresn":"20.13","stresu":"U/L","stnrlo":"10","stnrhi":"40","nrind":"NORMAL","fast":null,"dtc":"2024-02-28","dy":"1","visit":"BASELINE","visitnum":"1.0","epoch":"TREATMENT","spec":null,"method":null},{"seq":"3","testcd":"CREAT","test":"Creatinine","cat":"CHEMISTRY","orres":"71.72","orresu":"umol/L","stresc":"71.72","stresn":"71.72","stresu":"umol/L","stnrlo":"62","stnrhi":"106","nrind":"NORMAL","fast":null,"dtc":"2024-02-28","dy":"1","visit":"BASELINE","visitnum":"1.0","epoch":"TREATMENT","spec":null,"method":null},{"seq":"4","testcd":"GLUC","test":"Glucose","cat":"CHEMISTRY","orres":"6.67","orresu":"mmol/L","stresc":"6.67","stresn":"6.67","stresu":"mmol/L","stnrlo":"3.9","stnrhi":"5.6","nrind":"HIGH","fast":null,"dtc":"2024-02-28","dy":"1","visit":"BASELINE","visitnum":"1.0","epoch":"TREATMENT","spec":null,"method":null},{"seq":"5","testcd":"HGB","test":"Hemoglobin","cat":"HEMATOLOGY","orres":"128.66","orresu":"g/L","stresc":"128.66","stresn":"128.66","stresu":"g/L","stnrlo":"130","stnrhi":"175","nrind":"LOW","fast":null,"dtc":"2024-02-28","dy":"1","visit":"BASELINE","visitnum":"1.0","epoch":"TREATMENT","spec":null,"method":null},{"seq":"6","testcd":"PLAT","test":"Platelets","cat":"HEMATOLOGY","orres":"307.01","orresu":"10^9/L","stresc":"307.01","stresn":"307.01","stresu":"10^9/L","stnrlo":"150","stnrhi":"400","nrind":"NORMAL","fast":null,"dtc":"2024-02-28","dy":"1","visit":"BASELINE","visitnum":"1.0","epoch":"TREATMENT","spec":null,"method":null},{"seq":"7","testcd":"WBC","test":"Leukocytes","cat":"HEMATOLOGY","orres":"2.4","orresu":"10^9/L","stresc":"2.4","stresn":"2.4","stresu":"10^9/L","stnrlo":"4.0","stnrhi":"11.0","nrind":"LOW","fast":null,"dtc":"2024-02-28","dy":"1","visit":"BASELINE","visitnum":"1.0","epoch":"TREATMENT","spec":null,"method":null}]},"section_9_vital_signs":{"summary":{"total_records":8},"trends":{"BMI":[{"visit":"BASELINE","visitnum":"1.0","dtc":"2024-02-28","value":"26.1","unit":"kg/m2"}],"DIABP":[{"visit":"BASELINE","visitnum":"1.0","dtc":"2024-02-28","value":"75.9","unit":"mmHg"}],"HEIGHT":[{"visit":"BASELINE","visitnum":"1.0","dtc":"2024-02-28","value":"182.6","unit":"cm"}],"PULSE":[{"visit":"BASELINE","visitnum":"1.0","dtc":"2024-02-28","value":"76.4","unit":"beats/min"}],"RESP":[{"visit":"BASELINE","visitnum":"1.0","dtc":"2024-02-28","value":"14.8","unit":"breaths/min"}],"SYSBP":[{"visit":"BASELINE","visitnum":"1.0","dtc":"2024-02-28","value":"150.5","unit":"mmHg"}],"TEMP":[{"visit":"BASELINE","visitnum":"1.0","dtc":"2024-02-28","value":"36.3","unit":"C"}],"WEIGHT":[{"visit":"BASELINE","visitnum":"1.0","dtc":"2024-02-28","value":"86.9","unit":"kg"}]},"results":[{"seq":"1","testcd":"BMI","test":"BMI","cat":null,"orres":"26.1","orresu":"kg/m2","stresc":"26.1","stresn":"26.1","stresu":"kg/m2","stnrlo":null,"stnrhi":null,"nrind":null,"pos":null,"loc":null,"dtc":"2024-02-28","dy":"1","visit":"BASELINE","visitnum":"1.0","epoch":"TREATMENT"},{"seq":"2","testcd":"DIABP","test":"Diastolic Blood Pressure","cat":null,"orres":"75.9","orresu":"mmHg","stresc":"75.9","stresn":"75.9","stresu":"mmHg","stnrlo":null,"stnrhi":null,"nrind":null,"pos":null,"loc":null,"dtc":"2024-02-28","dy":"1","visit":"BASELINE","visitnum":"1.0","epoch":"TREATMENT"},{"seq":"3","testcd":"HEIGHT","test":"Height","cat":null,"orres":"182.6","orresu":"cm","stresc":"182.6","stresn":"182.6","stresu":"cm","stnrlo":null,"stnrhi":null,"nrind":null,"pos":null,"loc":null,"dtc":"2024-02-28","dy":"1","visit":"BASELINE","visitnum":"1.0","epoch":"TREATMENT"},{"seq":"4","testcd":"PULSE","test":"Pulse Rate","cat":null,"orres":"76.4","orresu":"beats/min","stresc":"76.4","stresn":"76.4","stresu":"beats/min","stnrlo":null,"stnrhi":null,"nrind":null,"pos":null,"loc":null,"dtc":"2024-02-28","dy":"1","visit":"BASELINE","visitnum":"1.0","epoch":"TREATMENT"},{"seq":"5","testcd":"RESP","test":"Respiratory Rate","cat":null,"orres":"14.8","orresu":"breaths/min","stresc":"14.8","stresn":"14.8","stresu":"breaths/min","stnrlo":null,"stnrhi":null,"nrind":null,"pos":null,"loc":null,"dtc":"2024-02-28","dy":"1","visit":"BASELINE","visitnum":"1.0","epoch":"TREATMENT"},{"seq":"6","testcd":"SYSBP","test":"Systolic Blood Pressure","cat":null,"orres":"150.5","orresu":"mmHg","stresc":"150.5","stresn":"150.5","stresu":"mmHg","stnrlo":null,"stnrhi":null,"nrind":null,"pos":null,"loc":null,"dtc":"2024-02-28","dy":"1","visit":"BASELINE","visitnum":"1.0","epoch":"TREATMENT"},{"seq":"7","testcd":"TEMP","test":"Temperature","cat":null,"orres":"36.3","orresu":"C","stresc":"36.3","stresn":"36.3","stresu":"C","stnrlo":null,"stnrhi":null,"nrind":null,"pos":null,"loc":null,"dtc":"2024-02-28","dy":"1","visit":"BASELINE","visitnum":"1.0","epoch":"TREATMENT"},{"seq":"8","testcd":"WEIGHT","test":"Weight","cat":null,"orres":"86.9","orresu":"kg","stresc":"86.9","stresn":"86.9","stresu":"kg","stnrlo":null,"stnrhi":null,"nrind":null,"pos":null,"loc":null,"dtc":"2024-02-28","dy":"1","visit":"BASELINE","visitnum":"1.0","epoch":"TREATMENT"}]},"section_10_questionnaires_and_scores":{"questionnaires":[],"findings_about":[]},"section_11_protocol_deviations":{"deviations":[],"total":0},"section_12_disposition":{"completion_status":"INFORMED CONSENT OBTAINED","disposition_records":[{"seq":"1","term":"INFORMED CONSENT OBTAINED","decod":"INFORMED CONSENT OBTAINED","cat":"PROTOCOL MILESTONE","scat":null,"dtc":"2024-01-27","dy":null,"visit":null,"epoch":"SCREENING"},{"seq":"2","term":"RANDOMIZED","decod":"RANDOMIZED","cat":"PROTOCOL MILESTONE","scat":null,"dtc":"2024-02-28","dy":null,"visit":null,"epoch":"TREATMENT"},{"seq":"3","term":"PHYSICIAN DECISION","decod":"PHYSICIAN DECISION","cat":"DISPOSITION EVENT","scat":null,"dtc":"2024-02-29","dy":null,"visit":null,"epoch":"TREATMENT"}],"death":null},"section_13_hospitalizations":{"items":[{"seq":"1","term":"Fatigue","decod":"Fatigue","cat":"HOSPITALIZATION","start_dtc":"2024-02-28","end_dtc":"2024-02-29","epoch":"TREATMENT"}],"total":1},"section_14_substance_use":{"items":[{"seq":"1","substance":"ALCOHOL","decod":"ALCOHOL","cat":"ALCOHOL","scat":null,"usage":"Y","dose":"8.0","dosu":"DRINKS/WEEK","freq":"QW","start_dtc":"1998-02-02","end_dtc":null},{"seq":"2","substance":"COFFEE","decod":"COFFEE","cat":"CAFFEINE","scat":null,"usage":"Y","dose":"1.0","dosu":"CUPS/DAY","freq":"QD","start_dtc":"2017-01-28","end_dtc":null},{"seq":"3","substance":"CIGARETTES","decod":"CIGARETTES","cat":"TOBACCO","scat":"CIGARETTES","usage":"Y","dose":"10.0","dosu":"CIGARETTES/DAY","freq":"QD","start_dtc":"2012-01-30","end_dtc":null}],"total":3},"section_15_subject_status":{"items":[],"total":0}}