{"subject_id":"COVID-THER-301-SITE002-0194","study_id":"COVID-THER-301","generated_at":"2026-06-12T05:15:42.805066+00:00","sdtmig_version":"3.4","flags":{"has_serious_ae":false,"has_fatal_ae":false,"has_protocol_deviation":false,"n_protocol_deviations":0,"n_adverse_events":0,"n_concomitant_meds":0,"max_ae_severity":null,"screen_failure":false,"discontinued_early":false,"discontinuation_reason":null,"death":false,"exposure_days":2},"timeline":[{"dtc":"2024-01-20","dy":"-22","event":"INFORMED CONSENT OBTAINED","domain":"DS","category":"milestone"},{"dtc":"2024-02-11","dy":"1","event":"RANDOMIZED","domain":"DS","category":"milestone"},{"dtc":"2024-02-11","dy":"1","event":"FIRST DOSE: PLACEBO","domain":"EX","category":"exposure"},{"dtc":"2024-02-11","dy":"1","event":"VISIT: BASELINE","domain":"SV","category":"visit"},{"dtc":"2024-02-13","dy":"3","event":"VISIT: DAY 3","domain":"SV","category":"visit"},{"dtc":"2024-02-16","dy":"6","event":"VISIT: DAY 5","domain":"SV","category":"visit"},{"dtc":"2024-02-24","dy":"14","event":"VISIT: DAY 14","domain":"SV","category":"visit"},{"dtc":"2024-03-10","dy":"29","event":"COMPLETED","domain":"DS","category":"milestone"}],"section_1_demographics":{"usubjid":"COVID-THER-301-SITE002-0194","subjid":"0194","siteid":"SITE002","age":"53","ageu":"YEARS","sex":"F","race":"WHITE","ethnicity":"HISPANIC OR LATINO","country":"USA","arm":"Placebo","armcd":"PBO","actarm":"Placebo","actarmcd":"PBO","randomization_date":null,"informed_consent_date":"2024-01-20","reference_start_date":"2024-02-11","reference_end_date":"2024-03-10","screen_failure":false,"death_flag":null,"death_date":null,"subject_characteristics":[{"testcd":"ALCUSE","test":"Alcohol Use","orres":"CURRENT DRINKER","stresc":"CURRENT DRINKER","visit":null,"dtc":"2024-01-20"},{"testcd":"BMI","test":"Body Mass Index","orres":"28.0","stresc":"28.0","visit":null,"dtc":"2024-01-20"},{"testcd":"DURDIS","test":"Duration of Disease","orres":"109 months","stresc":"109","visit":null,"dtc":"2024-01-20"},{"testcd":"TOBUSE","test":"Tobacco Use","orres":"NEVER SMOKED","stresc":"NEVER SMOKED","visit":null,"dtc":"2024-01-20"}]},"section_2_medical_history":{"items":[{"seq":"1","term":"DEPRESSION","decod":"DEPRESSION","cat":"PSYCHIATRIC","scat":null,"presp":null,"occur":null,"status":null,"onset_dtc":"2021-01-20","end_dtc":"2023-08-28","visit":null},{"seq":"2","term":"DIABETES MELLITUS TYPE 2","decod":"DIABETES MELLITUS TYPE 2","cat":"ENDOCRINE","scat":null,"presp":null,"occur":null,"status":null,"onset_dtc":"2015-01-22","end_dtc":"2023-09-25","visit":null},{"seq":"3","term":"GASTROESOPHAGEAL REFLUX DISEASE","decod":"GASTROESOPHAGEAL REFLUX DISEASE","cat":"GASTROINTESTINAL","scat":null,"presp":null,"occur":null,"status":null,"onset_dtc":"2021-01-20","end_dtc":"2022-07-18","visit":null},{"seq":"4","term":"HYPERLIPIDEMIA","decod":"HYPERLIPIDEMIA","cat":"METABOLIC","scat":null,"presp":null,"occur":null,"status":null,"onset_dtc":"2018-01-21","end_dtc":null,"visit":null},{"seq":"5","term":"HYPERTENSION","decod":"HYPERTENSION","cat":"CARDIOVASCULAR","scat":null,"presp":null,"occur":null,"status":null,"onset_dtc":"2021-01-20","end_dtc":"2022-11-28","visit":null}]},"section_3_inclusion_exclusion":{"criteria":[]},"section_4_trial_participation":{"visits":[{"visitnum":"1.0","visit":"BASELINE","start_dtc":"2024-02-11","end_dtc":"2024-02-11","updes":null},{"visitnum":"2.0","visit":"DAY 3","start_dtc":"2024-02-13","end_dtc":"2024-02-13","updes":null},{"visitnum":"3.0","visit":"DAY 5","start_dtc":"2024-02-16","end_dtc":"2024-02-16","updes":null},{"visitnum":"4.0","visit":"DAY 14","start_dtc":"2024-02-24","end_dtc":"2024-02-24","updes":null}],"epochs":[{"seq":"1","etcd":"SCRN","element":"Screening","start_dtc":"2024-02-10","end_dtc":"2024-02-11","updes":null},{"seq":"2","etcd":"TRT","element":"Treatment","start_dtc":"2024-02-11","end_dtc":"2024-02-16","updes":null},{"seq":"3","etcd":"FU","element":"Follow-up","start_dtc":"2024-02-16","end_dtc":"2024-03-09","updes":null}],"visit_count":4},"section_5_concomitant_medications":{"medications":[]},"section_6_exposure":{"exposure_as_administered":[{"seq":"1","trt":"PLACEBO","dose":"0.0","doseu":null,"dosef":"BID","route":"ORAL","lot":null,"start_dtc":"2024-02-11","end_dtc":"2024-02-13","start_dy":"1","end_dy":"3","epoch":"TREATMENT","visit":null}],"exposure_as_collected":[{"seq":"1","trt":"PLACEBO","dose":null,"doseu":null,"dosef":"BID","route":"ORAL","start_dtc":"2024-02-11","end_dtc":"2024-02-11","visit":"BASELINE"},{"seq":"2","trt":"PLACEBO","dose":null,"doseu":null,"dosef":"BID","route":"ORAL","start_dtc":"2024-02-11","end_dtc":"2024-02-11","visit":"BASELINE"},{"seq":"3","trt":"PLACEBO","dose":null,"doseu":null,"dosef":"BID","route":"ORAL","start_dtc":"2024-02-12","end_dtc":"2024-02-12","visit":"BASELINE"},{"seq":"4","trt":"PLACEBO","dose":null,"doseu":null,"dosef":"BID","route":"ORAL","start_dtc":"2024-02-12","end_dtc":"2024-02-12","visit":"BASELINE"},{"seq":"5","trt":"PLACEBO","dose":null,"doseu":null,"dosef":"BID","route":"ORAL","start_dtc":"2024-02-13","end_dtc":"2024-02-13","visit":"BASELINE"},{"seq":"6","trt":"PLACEBO","dose":null,"doseu":null,"dosef":"BID","route":"ORAL","start_dtc":"2024-02-13","end_dtc":"2024-02-13","visit":"BASELINE"}]},"section_7_adverse_events":{"summary":{"total_aes":0,"serious_aes":0,"fatal_aes":0,"by_severity":{},"by_soc":{}},"events":[]},"section_8_laboratory_results":{"summary":{"total_records":28,"abnormal_count":3,"abnormal_pct":10.7},"shift_summary":[{"testcd":"ALT","baseline_value":40.45,"baseline_nrind":"NORMAL","worst_post_baseline_value":41.92,"worst_post_baseline_nrind":"NORMAL","worst_visit":"DAY 5"},{"testcd":"AST","baseline_value":11.97,"baseline_nrind":"NORMAL","worst_post_baseline_value":11.4,"worst_post_baseline_nrind":"NORMAL","worst_visit":"DAY 14"},{"testcd":"CREAT","baseline_value":63.51,"baseline_nrind":"NORMAL","worst_post_baseline_value":67.78,"worst_post_baseline_nrind":"NORMAL","worst_visit":"DAY 3"},{"testcd":"GLUC","baseline_value":7.35,"baseline_nrind":"HIGH","worst_post_baseline_value":7.47,"worst_post_baseline_nrind":"HIGH","worst_visit":"DAY 5"},{"testcd":"HGB","baseline_value":130.42,"baseline_nrind":"NORMAL","worst_post_baseline_value":129.41,"worst_post_baseline_nrind":"NORMAL","worst_visit":"DAY 5"},{"testcd":"PLAT","baseline_value":291.01,"baseline_nrind":"NORMAL","worst_post_baseline_value":286.24,"worst_post_baseline_nrind":"NORMAL","worst_visit":"DAY 14"},{"testcd":"WBC","baseline_value":7.15,"baseline_nrind":"NORMAL","worst_post_baseline_value":7.05,"worst_post_baseline_nrind":"NORMAL","worst_visit":"DAY 14"}],"results":[{"seq":"1","testcd":"ALT","test":"Alanine Aminotransferase","cat":"CHEMISTRY","orres":"40.45","orresu":"U/L","stresc":"40.45","stresn":"40.45","stresu":"U/L","stnrlo":"7","stnrhi":"56","nrind":"NORMAL","fast":null,"dtc":"2024-02-11","dy":"1","visit":"BASELINE","visitnum":"1.0","epoch":"TREATMENT","spec":null,"method":null},{"seq":"2","testcd":"AST","test":"Aspartate Aminotransferase","cat":"CHEMISTRY","orres":"11.97","orresu":"U/L","stresc":"11.97","stresn":"11.97","stresu":"U/L","stnrlo":"10","stnrhi":"40","nrind":"NORMAL","fast":null,"dtc":"2024-02-11","dy":"1","visit":"BASELINE","visitnum":"1.0","epoch":"TREATMENT","spec":null,"method":null},{"seq":"3","testcd":"CREAT","test":"Creatinine","cat":"CHEMISTRY","orres":"63.51","orresu":"umol/L","stresc":"63.51","stresn":"63.51","stresu":"umol/L","stnrlo":"44","stnrhi":"80","nrind":"NORMAL","fast":null,"dtc":"2024-02-11","dy":"1","visit":"BASELINE","visitnum":"1.0","epoch":"TREATMENT","spec":null,"method":null},{"seq":"4","testcd":"GLUC","test":"Glucose","cat":"CHEMISTRY","orres":null,"orresu":null,"stresc":null,"stresn":null,"stresu":null,"stnrlo":null,"stnrhi":null,"nrind":null,"fast":null,"dtc":"2024-02-11","dy":"1","visit":"BASELINE","visitnum":"1.0","epoch":"TREATMENT","spec":null,"method":null},{"seq":"5","testcd":"HGB","test":"Hemoglobin","cat":"HEMATOLOGY","orres":"130.42","orresu":"g/L","stresc":"130.42","stresn":"130.42","stresu":"g/L","stnrlo":"120","stnrhi":"155","nrind":"NORMAL","fast":null,"dtc":"2024-02-11","dy":"1","visit":"BASELINE","visitnum":"1.0","epoch":"TREATMENT","spec":null,"method":null},{"seq":"6","testcd":"PLAT","test":"Platelets","cat":"HEMATOLOGY","orres":"291.01","orresu":"10^9/L","stresc":"291.01","stresn":"291.01","stresu":"10^9/L","stnrlo":"150","stnrhi":"400","nrind":"NORMAL","fast":null,"dtc":"2024-02-11","dy":"1","visit":"BASELINE","visitnum":"1.0","epoch":"TREATMENT","spec":null,"method":null},{"seq":"7","testcd":"WBC","test":"Leukocytes","cat":"HEMATOLOGY","orres":"7.15","orresu":"10^9/L","stresc":"7.15","stresn":"7.15","stresu":"10^9/L","stnrlo":"4.0","stnrhi":"11.0","nrind":"NORMAL","fast":null,"dtc":"2024-02-11","dy":"1","visit":"BASELINE","visitnum":"1.0","epoch":"TREATMENT","spec":null,"method":null},{"seq":"8","testcd":"ALT","test":"Alanine Aminotransferase","cat":"CHEMISTRY","orres":"40.14","orresu":"U/L","stresc":"40.14","stresn":"40.14","stresu":"U/L","stnrlo":"7","stnrhi":"56","nrind":"NORMAL","fast":null,"dtc":"2024-02-13","dy":"3","visit":"DAY 3","visitnum":"2.0","epoch":"TREATMENT","spec":null,"method":null},{"seq":"9","testcd":"AST","test":"Aspartate Aminotransferase","cat":"CHEMISTRY","orres":"11.24","orresu":"U/L","stresc":"11.24","stresn":"11.24","stresu":"U/L","stnrlo":"10","stnrhi":"40","nrind":"NORMAL","fast":null,"dtc":"2024-02-13","dy":"3","visit":"DAY 3","visitnum":"2.0","epoch":"TREATMENT","spec":null,"method":null},{"seq":"10","testcd":"CREAT","test":"Creatinine","cat":"CHEMISTRY","orres":"67.78","orresu":"umol/L","stresc":"67.78","stresn":"67.78","stresu":"umol/L","stnrlo":"44","stnrhi":"80","nrind":"NORMAL","fast":null,"dtc":"2024-02-13","dy":"3","visit":"DAY 3","visitnum":"2.0","epoch":"TREATMENT","spec":null,"method":null},{"seq":"11","testcd":"GLUC","test":"Glucose","cat":"CHEMISTRY","orres":"7.35","orresu":"mmol/L","stresc":"7.35","stresn":"7.35","stresu":"mmol/L","stnrlo":"3.9","stnrhi":"5.6","nrind":"HIGH","fast":null,"dtc":"2024-02-13","dy":"3","visit":"DAY 3","visitnum":"2.0","epoch":"TREATMENT","spec":null,"method":null},{"seq":"12","testcd":"HGB","test":"Hemoglobin","cat":"HEMATOLOGY","orres":"130.99","orresu":"g/L","stresc":"130.99","stresn":"130.99","stresu":"g/L","stnrlo":"120","stnrhi":"155","nrind":"NORMAL","fast":null,"dtc":"2024-02-13","dy":"3","visit":"DAY 3","visitnum":"2.0","epoch":"TREATMENT","spec":null,"method":null},{"seq":"13","testcd":"PLAT","test":"Platelets","cat":"HEMATOLOGY","orres":"269.98","orresu":"10^9/L","stresc":"269.98","stresn":"269.98","stresu":"10^9/L","stnrlo":"150","stnrhi":"400","nrind":"NORMAL","fast":null,"dtc":"2024-02-13","dy":"3","visit":"DAY 3","visitnum":"2.0","epoch":"TREATMENT","spec":null,"method":null},{"seq":"14","testcd":"WBC","test":"Leukocytes","cat":"HEMATOLOGY","orres":"6.84","orresu":"10^9/L","stresc":"6.84","stresn":"6.84","stresu":"10^9/L","stnrlo":"4.0","stnrhi":"11.0","nrind":"NORMAL","fast":null,"dtc":"2024-02-13","dy":"3","visit":"DAY 3","visitnum":"2.0","epoch":"TREATMENT","spec":null,"method":null},{"seq":"15","testcd":"ALT","test":"Alanine Aminotransferase","cat":"CHEMISTRY","orres":"41.92","orresu":"U/L","stresc":"41.92","stresn":"41.92","stresu":"U/L","stnrlo":"7","stnrhi":"56","nrind":"NORMAL","fast":null,"dtc":"2024-02-16","dy":"6","visit":"DAY 5","visitnum":"3.0","epoch":"TREATMENT","spec":null,"method":null},{"seq":"16","testcd":"AST","test":"Aspartate Aminotransferase","cat":"CHEMISTRY","orres":"10.07","orresu":"U/L","stresc":"10.07","stresn":"10.07","stresu":"U/L","stnrlo":"10","stnrhi":"40","nrind":"NORMAL","fast":null,"dtc":"2024-02-16","dy":"6","visit":"DAY 5","visitnum":"3.0","epoch":"TREATMENT","spec":null,"method":null},{"seq":"17","testcd":"CREAT","test":"Creatinine","cat":"CHEMISTRY","orres":"65.12","orresu":"umol/L","stresc":"65.12","stresn":"65.12","stresu":"umol/L","stnrlo":"44","stnrhi":"80","nrind":"NORMAL","fast":null,"dtc":"2024-02-16","dy":"6","visit":"DAY 5","visitnum":"3.0","epoch":"TREATMENT","spec":null,"method":null},{"seq":"18","testcd":"GLUC","test":"Glucose","cat":"CHEMISTRY","orres":"7.47","orresu":"mmol/L","stresc":"7.47","stresn":"7.47","stresu":"mmol/L","stnrlo":"3.9","stnrhi":"5.6","nrind":"HIGH","fast":null,"dtc":"2024-02-16","dy":"6","visit":"DAY 5","visitnum":"3.0","epoch":"TREATMENT","spec":null,"method":null},{"seq":"19","testcd":"HGB","test":"Hemoglobin","cat":"HEMATOLOGY","orres":"129.41","orresu":"g/L","stresc":"129.41","stresn":"129.41","stresu":"g/L","stnrlo":"120","stnrhi":"155","nrind":"NORMAL","fast":null,"dtc":"2024-02-16","dy":"6","visit":"DAY 5","visitnum":"3.0","epoch":"TREATMENT","spec":null,"method":null},{"seq":"20","testcd":"PLAT","test":"Platelets","cat":"HEMATOLOGY","orres":"269.6","orresu":"10^9/L","stresc":"269.6","stresn":"269.6","stresu":"10^9/L","stnrlo":"150","stnrhi":"400","nrind":"NORMAL","fast":null,"dtc":"2024-02-16","dy":"6","visit":"DAY 5","visitnum":"3.0","epoch":"TREATMENT","spec":null,"method":null},{"seq":"21","testcd":"WBC","test":"Leukocytes","cat":"HEMATOLOGY","orres":"6.25","orresu":"10^9/L","stresc":"6.25","stresn":"6.25","stresu":"10^9/L","stnrlo":"4.0","stnrhi":"11.0","nrind":"NORMAL","fast":null,"dtc":"2024-02-16","dy":"6","visit":"DAY 5","visitnum":"3.0","epoch":"TREATMENT","spec":null,"method":null},{"seq":"22","testcd":"ALT","test":"Alanine Aminotransferase","cat":"CHEMISTRY","orres":"40.64","orresu":"U/L","stresc":"40.64","stresn":"40.64","stresu":"U/L","stnrlo":"7","stnrhi":"56","nrind":"NORMAL","fast":null,"dtc":"2024-02-24","dy":"14","visit":"DAY 14","visitnum":"4.0","epoch":"FOLLOW-UP","spec":null,"method":null},{"seq":"23","testcd":"AST","test":"Aspartate Aminotransferase","cat":"CHEMISTRY","orres":"11.4","orresu":"U/L","stresc":"11.4","stresn":"11.4","stresu":"U/L","stnrlo":"10","stnrhi":"40","nrind":"NORMAL","fast":null,"dtc":"2024-02-24","dy":"14","visit":"DAY 14","visitnum":"4.0","epoch":"FOLLOW-UP","spec":null,"method":null},{"seq":"24","testcd":"CREAT","test":"Creatinine","cat":"CHEMISTRY","orres":"62.4","orresu":"umol/L","stresc":"62.4","stresn":"62.4","stresu":"umol/L","stnrlo":"44","stnrhi":"80","nrind":"NORMAL","fast":null,"dtc":"2024-02-24","dy":"14","visit":"DAY 14","visitnum":"4.0","epoch":"FOLLOW-UP","spec":null,"method":null},{"seq":"25","testcd":"GLUC","test":"Glucose","cat":"CHEMISTRY","orres":"7.46","orresu":"mmol/L","stresc":"7.46","stresn":"7.46","stresu":"mmol/L","stnrlo":"3.9","stnrhi":"5.6","nrind":"HIGH","fast":null,"dtc":"2024-02-24","dy":"14","visit":"DAY 14","visitnum":"4.0","epoch":"FOLLOW-UP","spec":null,"method":null},{"seq":"26","testcd":"HGB","test":"Hemoglobin","cat":"HEMATOLOGY","orres":"131.9","orresu":"g/L","stresc":"131.9","stresn":"131.9","stresu":"g/L","stnrlo":"120","stnrhi":"155","nrind":"NORMAL","fast":null,"dtc":"2024-02-24","dy":"14","visit":"DAY 14","visitnum":"4.0","epoch":"FOLLOW-UP","spec":null,"method":null},{"seq":"27","testcd":"PLAT","test":"Platelets","cat":"HEMATOLOGY","orres":"286.24","orresu":"10^9/L","stresc":"286.24","stresn":"286.24","stresu":"10^9/L","stnrlo":"150","stnrhi":"400","nrind":"NORMAL","fast":null,"dtc":"2024-02-24","dy":"14","visit":"DAY 14","visitnum":"4.0","epoch":"FOLLOW-UP","spec":null,"method":null},{"seq":"28","testcd":"WBC","test":"Leukocytes","cat":"HEMATOLOGY","orres":"7.05","orresu":"10^9/L","stresc":"7.05","stresn":"7.05","stresu":"10^9/L","stnrlo":"4.0","stnrhi":"11.0","nrind":"NORMAL","fast":null,"dtc":"2024-02-24","dy":"14","visit":"DAY 14","visitnum":"4.0","epoch":"FOLLOW-UP","spec":null,"method":null}]},"section_9_vital_signs":{"summary":{"total_records":22},"trends":{"BMI":[{"visit":"DAY 14","visitnum":"4.0","dtc":"2024-02-24","value":"26.2","unit":"kg/m2"}],"DIABP":[{"visit":"BASELINE","visitnum":"1.0","dtc":"2024-02-11","value":"89.9","unit":"mmHg"},{"visit":"DAY 3","visitnum":"2.0","dtc":"2024-02-13","value":"89.7","unit":"mmHg"},{"visit":"DAY 14","visitnum":"4.0","dtc":"2024-02-24","value":"90.4","unit":"mmHg"}],"HEIGHT":[{"visit":"BASELINE","visitnum":"1.0","dtc":"2024-02-11","value":"153.2","unit":"cm"},{"visit":"DAY 14","visitnum":"4.0","dtc":"2024-02-24","value":"153.3","unit":"cm"}],"PULSE":[{"visit":"BASELINE","visitnum":"1.0","dtc":"2024-02-11","value":"61.8","unit":"beats/min"},{"visit":"DAY 3","visitnum":"2.0","dtc":"2024-02-13","value":"62.2","unit":"beats/min"},{"visit":"DAY 14","visitnum":"4.0","dtc":"2024-02-24","value":"65.9","unit":"beats/min"}],"RESP":[{"visit":"BASELINE","visitnum":"1.0","dtc":"2024-02-11","value":"12.2","unit":"breaths/min"},{"visit":"DAY 3","visitnum":"2.0","dtc":"2024-02-13","value":"12.2","unit":"breaths/min"},{"visit":"DAY 14","visitnum":"4.0","dtc":"2024-02-24","value":"11.9","unit":"breaths/min"}],"SYSBP":[{"visit":"BASELINE","visitnum":"1.0","dtc":"2024-02-11","value":"104.1","unit":"mmHg"},{"visit":"DAY 3","visitnum":"2.0","dtc":"2024-02-13","value":"103.9","unit":"mmHg"},{"visit":"DAY 14","visitnum":"4.0","dtc":"2024-02-24","value":"103.5","unit":"mmHg"}],"TEMP":[{"visit":"BASELINE","visitnum":"1.0","dtc":"2024-02-11","value":"37.2","unit":"C"},{"visit":"DAY 3","visitnum":"2.0","dtc":"2024-02-13","value":"37.3","unit":"C"},{"visit":"DAY 14","visitnum":"4.0","dtc":"2024-02-24","value":"37.4","unit":"C"}],"WEIGHT":[{"visit":"DAY 3","visitnum":"2.0","dtc":"2024-02-13","value":"59.9","unit":"kg"},{"visit":"DAY 14","visitnum":"4.0","dtc":"2024-02-24","value":"61.6","unit":"kg"}]},"results":[{"seq":"1","testcd":"DIABP","test":"Diastolic Blood Pressure","cat":null,"orres":"89.9","orresu":"mmHg","stresc":"89.9","stresn":"89.9","stresu":"mmHg","stnrlo":null,"stnrhi":null,"nrind":null,"pos":null,"loc":null,"dtc":"2024-02-11","dy":"1","visit":"BASELINE","visitnum":"1.0","epoch":"TREATMENT"},{"seq":"2","testcd":"HEIGHT","test":"Height","cat":null,"orres":"153.2","orresu":"cm","stresc":"153.2","stresn":"153.2","stresu":"cm","stnrlo":null,"stnrhi":null,"nrind":null,"pos":null,"loc":null,"dtc":"2024-02-11","dy":"1","visit":"BASELINE","visitnum":"1.0","epoch":"TREATMENT"},{"seq":"3","testcd":"PULSE","test":"Pulse Rate","cat":null,"orres":"61.8","orresu":"beats/min","stresc":"61.8","stresn":"61.8","stresu":"beats/min","stnrlo":null,"stnrhi":null,"nrind":null,"pos":null,"loc":null,"dtc":"2024-02-11","dy":"1","visit":"BASELINE","visitnum":"1.0","epoch":"TREATMENT"},{"seq":"4","testcd":"RESP","test":"Respiratory Rate","cat":null,"orres":"12.2","orresu":"breaths/min","stresc":"12.2","stresn":"12.2","stresu":"breaths/min","stnrlo":null,"stnrhi":null,"nrind":null,"pos":null,"loc":null,"dtc":"2024-02-11","dy":"1","visit":"BASELINE","visitnum":"1.0","epoch":"TREATMENT"},{"seq":"5","testcd":"SYSBP","test":"Systolic Blood Pressure","cat":null,"orres":"104.1","orresu":"mmHg","stresc":"104.1","stresn":"104.1","stresu":"mmHg","stnrlo":null,"stnrhi":null,"nrind":null,"pos":null,"loc":null,"dtc":"2024-02-11","dy":"1","visit":"BASELINE","visitnum":"1.0","epoch":"TREATMENT"},{"seq":"6","testcd":"TEMP","test":"Temperature","cat":null,"orres":"37.2","orresu":"C","stresc":"37.2","stresn":"37.2","stresu":"C","stnrlo":null,"stnrhi":null,"nrind":null,"pos":null,"loc":null,"dtc":"2024-02-11","dy":"1","visit":"BASELINE","visitnum":"1.0","epoch":"TREATMENT"},{"seq":"7","testcd":"WEIGHT","test":"Weight","cat":null,"orres":null,"orresu":null,"stresc":null,"stresn":null,"stresu":null,"stnrlo":null,"stnrhi":null,"nrind":null,"pos":null,"loc":null,"dtc":"2024-02-11","dy":"1","visit":"BASELINE","visitnum":"1.0","epoch":"TREATMENT"},{"seq":"8","testcd":"DIABP","test":"Diastolic Blood Pressure","cat":null,"orres":"89.7","orresu":"mmHg","stresc":"89.7","stresn":"89.7","stresu":"mmHg","stnrlo":null,"stnrhi":null,"nrind":null,"pos":null,"loc":null,"dtc":"2024-02-13","dy":"3","visit":"DAY 3","visitnum":"2.0","epoch":"TREATMENT"},{"seq":"9","testcd":"HEIGHT","test":"Height","cat":null,"orres":null,"orresu":null,"stresc":null,"stresn":null,"stresu":null,"stnrlo":null,"stnrhi":null,"nrind":null,"pos":null,"loc":null,"dtc":"2024-02-13","dy":"3","visit":"DAY 3","visitnum":"2.0","epoch":"TREATMENT"},{"seq":"10","testcd":"PULSE","test":"Pulse Rate","cat":null,"orres":"62.2","orresu":"beats/min","stresc":"62.2","stresn":"62.2","stresu":"beats/min","stnrlo":null,"stnrhi":null,"nrind":null,"pos":null,"loc":null,"dtc":"2024-02-13","dy":"3","visit":"DAY 3","visitnum":"2.0","epoch":"TREATMENT"},{"seq":"11","testcd":"RESP","test":"Respiratory Rate","cat":null,"orres":"12.2","orresu":"breaths/min","stresc":"12.2","stresn":"12.2","stresu":"breaths/min","stnrlo":null,"stnrhi":null,"nrind":null,"pos":null,"loc":null,"dtc":"2024-02-13","dy":"3","visit":"DAY 3","visitnum":"2.0","epoch":"TREATMENT"},{"seq":"12","testcd":"SYSBP","test":"Systolic Blood Pressure","cat":null,"orres":"103.9","orresu":"mmHg","stresc":"103.9","stresn":"103.9","stresu":"mmHg","stnrlo":null,"stnrhi":null,"nrind":null,"pos":null,"loc":null,"dtc":"2024-02-13","dy":"3","visit":"DAY 3","visitnum":"2.0","epoch":"TREATMENT"},{"seq":"13","testcd":"TEMP","test":"Temperature","cat":null,"orres":"37.3","orresu":"C","stresc":"37.3","stresn":"37.3","stresu":"C","stnrlo":null,"stnrhi":null,"nrind":null,"pos":null,"loc":null,"dtc":"2024-02-13","dy":"3","visit":"DAY 3","visitnum":"2.0","epoch":"TREATMENT"},{"seq":"14","testcd":"WEIGHT","test":"Weight","cat":null,"orres":"59.9","orresu":"kg","stresc":"59.9","stresn":"59.9","stresu":"kg","stnrlo":null,"stnrhi":null,"nrind":null,"pos":null,"loc":null,"dtc":"2024-02-13","dy":"3","visit":"DAY 3","visitnum":"2.0","epoch":"TREATMENT"},{"seq":"15","testcd":"BMI","test":"BMI","cat":null,"orres":"26.2","orresu":"kg/m2","stresc":"26.2","stresn":"26.2","stresu":"kg/m2","stnrlo":null,"stnrhi":null,"nrind":null,"pos":null,"loc":null,"dtc":"2024-02-24","dy":"14","visit":"DAY 14","visitnum":"4.0","epoch":"FOLLOW-UP"},{"seq":"16","testcd":"DIABP","test":"Diastolic Blood Pressure","cat":null,"orres":"90.4","orresu":"mmHg","stresc":"90.4","stresn":"90.4","stresu":"mmHg","stnrlo":null,"stnrhi":null,"nrind":null,"pos":null,"loc":null,"dtc":"2024-02-24","dy":"14","visit":"DAY 14","visitnum":"4.0","epoch":"FOLLOW-UP"},{"seq":"17","testcd":"HEIGHT","test":"Height","cat":null,"orres":"153.3","orresu":"cm","stresc":"153.3","stresn":"153.3","stresu":"cm","stnrlo":null,"stnrhi":null,"nrind":null,"pos":null,"loc":null,"dtc":"2024-02-24","dy":"14","visit":"DAY 14","visitnum":"4.0","epoch":"FOLLOW-UP"},{"seq":"18","testcd":"PULSE","test":"Pulse Rate","cat":null,"orres":"65.9","orresu":"beats/min","stresc":"65.9","stresn":"65.9","stresu":"beats/min","stnrlo":null,"stnrhi":null,"nrind":null,"pos":null,"loc":null,"dtc":"2024-02-24","dy":"14","visit":"DAY 14","visitnum":"4.0","epoch":"FOLLOW-UP"},{"seq":"19","testcd":"RESP","test":"Respiratory Rate","cat":null,"orres":"11.9","orresu":"breaths/min","stresc":"11.9","stresn":"11.9","stresu":"breaths/min","stnrlo":null,"stnrhi":null,"nrind":null,"pos":null,"loc":null,"dtc":"2024-02-24","dy":"14","visit":"DAY 14","visitnum":"4.0","epoch":"FOLLOW-UP"},{"seq":"20","testcd":"SYSBP","test":"Systolic Blood Pressure","cat":null,"orres":"103.5","orresu":"mmHg","stresc":"103.5","stresn":"103.5","stresu":"mmHg","stnrlo":null,"stnrhi":null,"nrind":null,"pos":null,"loc":null,"dtc":"2024-02-24","dy":"14","visit":"DAY 14","visitnum":"4.0","epoch":"FOLLOW-UP"},{"seq":"21","testcd":"TEMP","test":"Temperature","cat":null,"orres":"37.4","orresu":"C","stresc":"37.4","stresn":"37.4","stresu":"C","stnrlo":null,"stnrhi":null,"nrind":null,"pos":null,"loc":null,"dtc":"2024-02-24","dy":"14","visit":"DAY 14","visitnum":"4.0","epoch":"FOLLOW-UP"},{"seq":"22","testcd":"WEIGHT","test":"Weight","cat":null,"orres":"61.6","orresu":"kg","stresc":"61.6","stresn":"61.6","stresu":"kg","stnrlo":null,"stnrhi":null,"nrind":null,"pos":null,"loc":null,"dtc":"2024-02-24","dy":"14","visit":"DAY 14","visitnum":"4.0","epoch":"FOLLOW-UP"}]},"section_10_questionnaires_and_scores":{"questionnaires":[],"findings_about":[]},"section_11_protocol_deviations":{"deviations":[],"total":0},"section_12_disposition":{"completion_status":"COMPLETED","disposition_records":[{"seq":"1","term":"INFORMED CONSENT OBTAINED","decod":"INFORMED CONSENT OBTAINED","cat":"PROTOCOL MILESTONE","scat":null,"dtc":"2024-01-20","dy":null,"visit":null,"epoch":"SCREENING"},{"seq":"2","term":"RANDOMIZED","decod":"RANDOMIZED","cat":"PROTOCOL MILESTONE","scat":null,"dtc":"2024-02-11","dy":null,"visit":null,"epoch":"TREATMENT"},{"seq":"3","term":"COMPLETED","decod":"COMPLETED","cat":"DISPOSITION EVENT","scat":null,"dtc":"2024-03-10","dy":null,"visit":null,"epoch":"FOLLOW-UP"}],"death":null},"section_13_hospitalizations":{"items":[],"total":0},"section_14_substance_use":{"items":[{"seq":"1","substance":"ALCOHOL","decod":"ALCOHOL","cat":"ALCOHOL","scat":null,"usage":"Y","dose":"7.0","dosu":"DRINKS/WEEK","freq":"QW","start_dtc":"2009-01-23","end_dtc":null},{"seq":"2","substance":"COFFEE","decod":"COFFEE","cat":"CAFFEINE","scat":null,"usage":"Y","dose":"3.0","dosu":"CUPS/DAY","freq":"QD","start_dtc":"2014-01-22","end_dtc":null},{"seq":"3","substance":"CIGARETTES","decod":"CIGARETTES","cat":"TOBACCO","scat":"CIGARETTES","usage":"N","dose":null,"dosu":null,"freq":null,"start_dtc":null,"end_dtc":null}],"total":3},"section_15_subject_status":{"items":[{"seq":"1","testcd":"SURVSTAT","test":"Survival Status","orres":"ALIVE","stresc":"ALIVE","dtc":"2024-02-24","visit":"DAY 14","epoch":"FOLLOW-UP"},{"seq":"2","testcd":"SURVSTAT","test":"Survival Status","orres":"ALIVE","stresc":"ALIVE","dtc":"2024-03-09","visit":"DAY 28","epoch":"FOLLOW-UP"}],"total":2}}