{"subject_id":"GB001-ASTHMA-201-SITE001-0457","study_id":"GB001-ASTHMA-201","generated_at":"2026-06-16T07:22:29.443937+00:00","sdtmig_version":"3.4","flags":{"has_serious_ae":false,"has_fatal_ae":false,"has_protocol_deviation":true,"n_protocol_deviations":11,"n_adverse_events":2,"n_concomitant_meds":2,"max_ae_severity":"MODERATE","screen_failure":false,"discontinued_early":false,"discontinuation_reason":null,"death":false,"exposure_days":41},"timeline":[{"dtc":"2024-03-12","dy":"-38","event":"VISIT: SCREENING","domain":"SV","category":"visit"},{"dtc":"2024-03-25","dy":"-25","event":"INFORMED CONSENT OBTAINED","domain":"DS","category":"milestone"},{"dtc":"2024-04-19","dy":"1","event":"RANDOMIZED","domain":"DS","category":"milestone"},{"dtc":"2024-04-19","dy":"1","event":"FIRST DOSE: GB001","domain":"EX","category":"exposure"},{"dtc":"2024-04-19","dy":"1","event":"DEVIATION: MISSED DOSE","domain":"DV","category":"deviation"},{"dtc":"2024-04-19","dy":"1","event":"VISIT: BASELINE","domain":"SV","category":"visit"},{"dtc":"2024-04-22","dy":"4","event":"DEVIATION: MISSED DOSE","domain":"DV","category":"deviation"},{"dtc":"2024-04-27","dy":"9","event":"DEVIATION: MISSED DOSE","domain":"DV","category":"deviation"},{"dtc":"2024-04-28","dy":"10","event":"DEVIATION: MISSED DOSE","domain":"DV","category":"deviation"},{"dtc":"2024-05-02","dy":"14","event":"DEVIATION: VISIT OCCURRED OUTSIDE VISIT WINDOW","domain":"DV","category":"deviation"},{"dtc":"2024-05-02","dy":"14","event":"DEVIATION: MISSED DOSE","domain":"DV","category":"deviation"},{"dtc":"2024-05-02","dy":"14","event":"VISIT: WEEK 2","domain":"SV","category":"visit"},{"dtc":"2024-05-18","dy":"30","event":"VISIT: WEEK 4","domain":"SV","category":"visit"},{"dtc":"2024-05-25","dy":"37","event":"DEVIATION: MISSED DOSE","domain":"DV","category":"deviation"},{"dtc":"2024-05-28","dy":"40","event":"DEVIATION: MISSED DOSE","domain":"DV","category":"deviation"},{"dtc":"2024-05-29","dy":"41","event":"DEVIATION: MISSED DOSE","domain":"DV","category":"deviation"},{"dtc":"2024-06-13","dy":"56","event":"VISIT: WEEK 8","domain":"SV","category":"visit"},{"dtc":"2024-06-18","dy":"61","event":"AE: Myocardial infarction (MODERATE)","domain":"AE","category":"adverse_event"},{"dtc":"2024-06-18","dy":"61","event":"CM START: IBUPROFEN","domain":"CM","category":"concomitant_med"},{"dtc":"2024-07-10","dy":"83","event":"DEVIATION: VISIT OCCURRED OUTSIDE VISIT WINDOW","domain":"DV","category":"deviation"},{"dtc":"2024-07-10","dy":"83","event":"VISIT: WEEK 12","domain":"SV","category":"visit"},{"dtc":"2024-07-11","dy":"84","event":"AE: Upper respiratory tract infection (MODERATE)","domain":"AE","category":"adverse_event"},{"dtc":"2024-07-11","dy":"84","event":"CM START: AMOXICILLIN","domain":"CM","category":"concomitant_med"},{"dtc":"2024-08-06","dy":"110","event":"DEVIATION: VISIT OCCURRED OUTSIDE VISIT WINDOW","domain":"DV","category":"deviation"},{"dtc":"2024-08-06","dy":"110","event":"VISIT: FOLLOW-UP","domain":"SV","category":"visit"},{"dtc":"2024-09-05","dy":"140","event":"COMPLETED","domain":"DS","category":"milestone"}],"section_1_demographics":{"usubjid":"GB001-ASTHMA-201-SITE001-0457","subjid":"0457","siteid":"SITE001","age":"33","ageu":"YEARS","sex":"F","race":"WHITE","ethnicity":"NOT HISPANIC OR LATINO","country":"USA","arm":"GB001 40mg QD","armcd":"GB40","actarm":"GB001 40mg QD","actarmcd":"GB40","randomization_date":null,"informed_consent_date":"2024-03-25","reference_start_date":"2024-04-19","reference_end_date":"2024-09-05","screen_failure":false,"death_flag":null,"death_date":null,"subject_characteristics":[{"testcd":"ALCUSE","test":"Alcohol Use","orres":"CURRENT DRINKER","stresc":"CURRENT DRINKER","visit":null,"dtc":"2024-03-25"},{"testcd":"BMI","test":"Body Mass Index","orres":"30.9","stresc":"30.9","visit":null,"dtc":"2024-03-25"},{"testcd":"DURDIS","test":"Duration of Disease","orres":"97 months","stresc":"97","visit":null,"dtc":"2024-03-25"},{"testcd":"TOBUSE","test":"Tobacco Use","orres":"NEVER SMOKED","stresc":"NEVER SMOKED","visit":null,"dtc":"2024-03-25"}]},"section_2_medical_history":{"items":[{"seq":"1","term":"ASTHMA","decod":"ASTHMA","cat":"RESPIRATORY","scat":null,"presp":null,"occur":null,"status":null,"onset_dtc":"2016-03-27","end_dtc":"2023-05-19","visit":null},{"seq":"2","term":"HYPERLIPIDEMIA","decod":"HYPERLIPIDEMIA","cat":"METABOLIC","scat":null,"presp":null,"occur":null,"status":null,"onset_dtc":"2019-03","end_dtc":"2023-05-09","visit":null}]},"section_3_inclusion_exclusion":{"criteria":[]},"section_4_trial_participation":{"visits":[{"visitnum":"1.0","visit":"SCREENING","start_dtc":"2024-03-12","end_dtc":"2024-03-12","updes":null},{"visitnum":"2.0","visit":"BASELINE","start_dtc":"2024-04-19","end_dtc":"2024-04-19","updes":null},{"visitnum":"3.0","visit":"WEEK 2","start_dtc":"2024-05-02","end_dtc":"2024-05-02","updes":null},{"visitnum":"4.0","visit":"WEEK 4","start_dtc":"2024-05-18","end_dtc":"2024-05-18","updes":null},{"visitnum":"5.0","visit":"WEEK 8","start_dtc":"2024-06-13","end_dtc":"2024-06-13","updes":null},{"visitnum":"6.0","visit":"WEEK 12","start_dtc":"2024-07-10","end_dtc":"2024-07-10","updes":null},{"visitnum":"7.0","visit":"FOLLOW-UP","start_dtc":"2024-08-06","end_dtc":"2024-08-06","updes":null}],"epochs":[{"seq":"1","etcd":"SCRN","element":"Screening","start_dtc":"2024-03-22","end_dtc":"2024-04-19","updes":null},{"seq":"2","etcd":"TRT","element":"Treatment","start_dtc":"2024-04-19","end_dtc":"2024-07-12","updes":null},{"seq":"3","etcd":"FU","element":"Follow-up","start_dtc":"2024-07-12","end_dtc":"2024-08-08","updes":null}],"visit_count":7},"section_5_concomitant_medications":{"medications":[{"seq":"1","trt":"IBUPROFEN","decod":"IBUPROFEN","cat":"CONCOMITANT","dose":"400","doseu":null,"dosef":"PRN","route":"ORAL","indication":"MYOCARDIAL INFARCTION","start_dtc":"2024-06-18","end_dtc":"2024-06-21","ongoing":null,"visit":null},{"seq":"2","trt":"AMOXICILLIN","decod":"AMOXICILLIN","cat":"CONCOMITANT","dose":"500","doseu":null,"dosef":"TID","route":"ORAL","indication":"UPPER RESPIRATORY TRACT INFECTION","start_dtc":"2024-07-11","end_dtc":"2024-07-25","ongoing":null,"visit":null}]},"section_6_exposure":{"exposure_as_administered":[{"seq":"1","trt":"GB001","dose":"40.0","doseu":null,"dosef":"QD","route":"ORAL","lot":null,"start_dtc":"2024-04-19","end_dtc":"2024-05-30","start_dy":"1","end_dy":"42","epoch":"TREATMENT","visit":null}],"exposure_as_collected":[{"seq":"1","trt":"GB001","dose":null,"doseu":null,"dosef":"QD","route":"ORAL","start_dtc":"2024-04-19","end_dtc":"2024-04-19","visit":"BASELINE"},{"seq":"2","trt":"GB001","dose":"40.0","doseu":null,"dosef":"QD","route":"ORAL","start_dtc":"2024-04-20","end_dtc":"2024-04-20","visit":"BASELINE"},{"seq":"3","trt":"GB001","dose":"40.0","doseu":null,"dosef":"QD","route":"ORAL","start_dtc":"2024-04-21","end_dtc":"2024-04-21","visit":"BASELINE"},{"seq":"4","trt":"GB001","dose":null,"doseu":null,"dosef":"QD","route":"ORAL","start_dtc":"2024-04-22","end_dtc":"2024-04-22","visit":"BASELINE"},{"seq":"5","trt":"GB001","dose":"40.0","doseu":null,"dosef":"QD","route":"ORAL","start_dtc":"2024-04-23","end_dtc":"2024-04-23","visit":null},{"seq":"6","trt":"GB001","dose":"40.0","doseu":null,"dosef":"QD","route":"ORAL","start_dtc":"2024-04-24","end_dtc":"2024-04-24","visit":null},{"seq":"7","trt":"GB001","dose":"40.0","doseu":null,"dosef":"QD","route":"ORAL","start_dtc":"2024-04-25","end_dtc":"2024-04-25","visit":null},{"seq":"8","trt":"GB001","dose":"40.0","doseu":null,"dosef":"QD","route":"ORAL","start_dtc":"2024-04-26","end_dtc":"2024-04-26","visit":null},{"seq":"9","trt":"GB001","dose":null,"doseu":null,"dosef":"QD","route":"ORAL","start_dtc":"2024-04-27","end_dtc":"2024-04-27","visit":null},{"seq":"10","trt":"GB001","dose":null,"doseu":null,"dosef":"QD","route":"ORAL","start_dtc":"2024-04-28","end_dtc":"2024-04-28","visit":null},{"seq":"11","trt":"GB001","dose":"40.0","doseu":null,"dosef":"QD","route":"ORAL","start_dtc":"2024-04-29","end_dtc":"2024-04-29","visit":null},{"seq":"12","trt":"GB001","dose":"40.0","doseu":null,"dosef":"QD","route":"ORAL","start_dtc":"2024-04-30","end_dtc":"2024-04-30","visit":"WEEK 2"},{"seq":"13","trt":"GB001","dose":"40.0","doseu":null,"dosef":"QD","route":"ORAL","start_dtc":"2024-05-01","end_dtc":"2024-05-01","visit":"WEEK 2"},{"seq":"14","trt":"GB001","dose":null,"doseu":null,"dosef":"QD","route":"ORAL","start_dtc":"2024-05-02","end_dtc":"2024-05-02","visit":"WEEK 2"},{"seq":"15","trt":"GB001","dose":"40.0","doseu":null,"dosef":"QD","route":"ORAL","start_dtc":"2024-05-03","end_dtc":"2024-05-03","visit":"WEEK 2"},{"seq":"16","trt":"GB001","dose":"40.0","doseu":null,"dosef":"QD","route":"ORAL","start_dtc":"2024-05-04","end_dtc":"2024-05-04","visit":"WEEK 2"},{"seq":"17","trt":"GB001","dose":"40.0","doseu":null,"dosef":"QD","route":"ORAL","start_dtc":"2024-05-05","end_dtc":"2024-05-05","visit":"WEEK 2"},{"seq":"18","trt":"GB001","dose":"40.0","doseu":null,"dosef":"QD","route":"ORAL","start_dtc":"2024-05-06","end_dtc":"2024-05-06","visit":"WEEK 2"},{"seq":"19","trt":"GB001","dose":"40.0","doseu":null,"dosef":"QD","route":"ORAL","start_dtc":"2024-05-07","end_dtc":"2024-05-07","visit":null},{"seq":"20","trt":"GB001","dose":"40.0","doseu":null,"dosef":"QD","route":"ORAL","start_dtc":"2024-05-08","end_dtc":"2024-05-08","visit":null},{"seq":"21","trt":"GB001","dose":"40.0","doseu":null,"dosef":"QD","route":"ORAL","start_dtc":"2024-05-09","end_dtc":"2024-05-09","visit":null},{"seq":"22","trt":"GB001","dose":"40.0","doseu":null,"dosef":"QD","route":"ORAL","start_dtc":"2024-05-10","end_dtc":"2024-05-10","visit":null},{"seq":"23","trt":"GB001","dose":"40.0","doseu":null,"dosef":"QD","route":"ORAL","start_dtc":"2024-05-11","end_dtc":"2024-05-11","visit":null},{"seq":"24","trt":"GB001","dose":"40.0","doseu":null,"dosef":"QD","route":"ORAL","start_dtc":"2024-05-12","end_dtc":"2024-05-12","visit":null},{"seq":"25","trt":"GB001","dose":"40.0","doseu":null,"dosef":"QD","route":"ORAL","start_dtc":"2024-05-13","end_dtc":"2024-05-13","visit":null},{"seq":"26","trt":"GB001","dose":"40.0","doseu":null,"dosef":"QD","route":"ORAL","start_dtc":"2024-05-14","end_dtc":"2024-05-14","visit":"WEEK 4"},{"seq":"27","trt":"GB001","dose":"40.0","doseu":null,"dosef":"QD","route":"ORAL","start_dtc":"2024-05-15","end_dtc":"2024-05-15","visit":"WEEK 4"},{"seq":"28","trt":"GB001","dose":"40.0","doseu":null,"dosef":"QD","route":"ORAL","start_dtc":"2024-05-16","end_dtc":"2024-05-16","visit":"WEEK 4"},{"seq":"29","trt":"GB001","dose":"40.0","doseu":null,"dosef":"QD","route":"ORAL","start_dtc":"2024-05-17","end_dtc":"2024-05-17","visit":"WEEK 4"},{"seq":"30","trt":"GB001","dose":"40.0","doseu":null,"dosef":"QD","route":"ORAL","start_dtc":"2024-05-18","end_dtc":"2024-05-18","visit":"WEEK 4"},{"seq":"31","trt":"GB001","dose":"40.0","doseu":null,"dosef":"QD","route":"ORAL","start_dtc":"2024-05-19","end_dtc":"2024-05-19","visit":"WEEK 4"},{"seq":"32","trt":"GB001","dose":"40.0","doseu":null,"dosef":"QD","route":"ORAL","start_dtc":"2024-05-20","end_dtc":"2024-05-20","visit":"WEEK 4"},{"seq":"33","trt":"GB001","dose":"40.0","doseu":null,"dosef":"QD","route":"ORAL","start_dtc":"2024-05-21","end_dtc":"2024-05-21","visit":null},{"seq":"34","trt":"GB001","dose":"40.0","doseu":null,"dosef":"QD","route":"ORAL","start_dtc":"2024-05-22","end_dtc":"2024-05-22","visit":null},{"seq":"35","trt":"GB001","dose":"40.0","doseu":null,"dosef":"QD","route":"ORAL","start_dtc":"2024-05-23","end_dtc":"2024-05-23","visit":null},{"seq":"36","trt":"GB001","dose":"40.0","doseu":null,"dosef":"QD","route":"ORAL","start_dtc":"2024-05-24","end_dtc":"2024-05-24","visit":null},{"seq":"37","trt":"GB001","dose":null,"doseu":null,"dosef":"QD","route":"ORAL","start_dtc":"2024-05-25","end_dtc":"2024-05-25","visit":null},{"seq":"38","trt":"GB001","dose":"40.0","doseu":null,"dosef":"QD","route":"ORAL","start_dtc":"2024-05-26","end_dtc":"2024-05-26","visit":null},{"seq":"39","trt":"GB001","dose":"40.0","doseu":null,"dosef":"QD","route":"ORAL","start_dtc":"2024-05-27","end_dtc":"2024-05-27","visit":null},{"seq":"40","trt":"GB001","dose":null,"doseu":null,"dosef":"QD","route":"ORAL","start_dtc":"2024-05-28","end_dtc":"2024-05-28","visit":null},{"seq":"41","trt":"GB001","dose":null,"doseu":null,"dosef":"QD","route":"ORAL","start_dtc":"2024-05-29","end_dtc":"2024-05-29","visit":null},{"seq":"42","trt":"GB001","dose":"40.0","doseu":null,"dosef":"QD","route":"ORAL","start_dtc":"2024-05-30","end_dtc":"2024-05-30","visit":null}]},"section_7_adverse_events":{"summary":{"total_aes":2,"serious_aes":0,"fatal_aes":0,"by_severity":{"MODERATE":2},"by_soc":{"Cardiac disorders":1,"Infections and infestations":1}},"events":[{"seq":"1","term":"MYOCARDIAL INFARCTION","decod":"Myocardial infarction","llt":"Myocardial infarction","hlt":"Ischaemic coronary artery disorders","hlgt":"Coronary artery disorders","soc":"Cardiac disorders","bodsys":"Cardiac disorders","severity":"MODERATE","serious":"N","causality":"PROBABLY RELATED","action_taken":"DOSE NOT CHANGED","outcome":"RECOVERED/RESOLVED","fatal":"N","hospitalization":"N","life_threatening":"N","onset_dtc":"2024-06-18","end_dtc":"2024-07-14","onset_dy":"61","end_dy":"87","duration":null,"epoch":"TREATMENT","visit":null,"supplemental":{"AETRTEM":"Y"}},{"seq":"2","term":"UPPER RESPIRATORY TRACT INFECTION","decod":"Upper respiratory tract infection","llt":"Upper respiratory tract infection","hlt":"Upper respiratory tract infections","hlgt":"Upper respiratory tract infections","soc":"Infections and infestations","bodsys":"Infections and infestations","severity":"MODERATE","serious":"N","causality":"NOT RELATED","action_taken":"DOSE NOT CHANGED","outcome":"RECOVERED/RESOLVED","fatal":"N","hospitalization":"N","life_threatening":"N","onset_dtc":"2024-07-11","end_dtc":"2024-07-22","onset_dy":"84","end_dy":"95","duration":null,"epoch":"TREATMENT","visit":null,"supplemental":{"AETRTEM":"Y"}}]},"section_8_laboratory_results":{"summary":{"total_records":35,"abnormal_count":9,"abnormal_pct":25.7},"shift_summary":[{"testcd":"ALT","baseline_value":16.88,"baseline_nrind":"NORMAL","worst_post_baseline_value":18.83,"worst_post_baseline_nrind":"NORMAL","worst_visit":"WEEK 4"},{"testcd":"AST","baseline_value":25.96,"baseline_nrind":"NORMAL","worst_post_baseline_value":26.7,"worst_post_baseline_nrind":"NORMAL","worst_visit":"BASELINE"},{"testcd":"CREAT","baseline_value":35.49,"baseline_nrind":"LOW","worst_post_baseline_value":40.23,"worst_post_baseline_nrind":"LOW","worst_visit":"WEEK 8"},{"testcd":"GLUC","baseline_value":4.98,"baseline_nrind":"NORMAL","worst_post_baseline_value":5.27,"worst_post_baseline_nrind":"NORMAL","worst_visit":"WEEK 8"},{"testcd":"HGB","baseline_value":105.05,"baseline_nrind":"LOW","worst_post_baseline_value":103.33,"worst_post_baseline_nrind":"LOW","worst_visit":"BASELINE"},{"testcd":"PLAT","baseline_value":337.2,"baseline_nrind":"NORMAL","worst_post_baseline_value":344.09,"worst_post_baseline_nrind":"NORMAL","worst_visit":"FOLLOW-UP"},{"testcd":"WBC","baseline_value":9.49,"baseline_nrind":"NORMAL","worst_post_baseline_value":10.22,"worst_post_baseline_nrind":"NORMAL","worst_visit":"WEEK 4"}],"results":[{"seq":"1","testcd":"ALT","test":"Alanine Aminotransferase","cat":"CHEMISTRY","orres":"16.88","orresu":"U/L","stresc":"16.88","stresn":"16.88","stresu":"U/L","stnrlo":"7","stnrhi":"56","nrind":"NORMAL","fast":null,"dtc":"2024-03-12","dy":"-38","visit":"SCREENING","visitnum":"1.0","epoch":"SCREENING","spec":null,"method":null},{"seq":"2","testcd":"AST","test":"Aspartate Aminotransferase","cat":"CHEMISTRY","orres":"25.96","orresu":"U/L","stresc":"25.96","stresn":"25.96","stresu":"U/L","stnrlo":"10","stnrhi":"40","nrind":"NORMAL","fast":null,"dtc":"2024-03-12","dy":"-38","visit":"SCREENING","visitnum":"1.0","epoch":"SCREENING","spec":null,"method":null},{"seq":"3","testcd":"CREAT","test":"Creatinine","cat":"CHEMISTRY","orres":"35.49","orresu":"umol/L","stresc":"35.49","stresn":"35.49","stresu":"umol/L","stnrlo":"44","stnrhi":"80","nrind":"LOW","fast":null,"dtc":"2024-03-12","dy":"-38","visit":"SCREENING","visitnum":"1.0","epoch":"SCREENING","spec":null,"method":null},{"seq":"4","testcd":"GLUC","test":"Glucose","cat":"CHEMISTRY","orres":"4.98","orresu":"mmol/L","stresc":"4.98","stresn":"4.98","stresu":"mmol/L","stnrlo":"3.9","stnrhi":"5.6","nrind":"NORMAL","fast":null,"dtc":"2024-03-12","dy":"-38","visit":"SCREENING","visitnum":"1.0","epoch":"SCREENING","spec":null,"method":null},{"seq":"5","testcd":"HGB","test":"Hemoglobin","cat":"HEMATOLOGY","orres":"105.05","orresu":"g/L","stresc":"105.05","stresn":"105.05","stresu":"g/L","stnrlo":"120","stnrhi":"155","nrind":"LOW","fast":null,"dtc":"2024-03-12","dy":"-38","visit":"SCREENING","visitnum":"1.0","epoch":"SCREENING","spec":null,"method":null},{"seq":"6","testcd":"PLAT","test":"Platelets","cat":"HEMATOLOGY","orres":"337.2","orresu":"10^9/L","stresc":"337.2","stresn":"337.2","stresu":"10^9/L","stnrlo":"150","stnrhi":"400","nrind":"NORMAL","fast":null,"dtc":"2024-03-12","dy":"-38","visit":"SCREENING","visitnum":"1.0","epoch":"SCREENING","spec":null,"method":null},{"seq":"7","testcd":"WBC","test":"Leukocytes","cat":"HEMATOLOGY","orres":"9.49","orresu":"10^9/L","stresc":"9.49","stresn":"9.49","stresu":"10^9/L","stnrlo":"4.0","stnrhi":"11.0","nrind":"NORMAL","fast":null,"dtc":"2024-03-12","dy":"-38","visit":"SCREENING","visitnum":"1.0","epoch":"SCREENING","spec":null,"method":null},{"seq":"8","testcd":"ALT","test":"Alanine Aminotransferase","cat":"CHEMISTRY","orres":"17.71","orresu":"U/L","stresc":"17.71","stresn":"17.71","stresu":"U/L","stnrlo":"7","stnrhi":"56","nrind":"NORMAL","fast":null,"dtc":"2024-04-19","dy":"1","visit":"BASELINE","visitnum":"2.0","epoch":"TREATMENT","spec":null,"method":null},{"seq":"9","testcd":"AST","test":"Aspartate Aminotransferase","cat":"CHEMISTRY","orres":"26.7","orresu":"U/L","stresc":"26.7","stresn":"26.7","stresu":"U/L","stnrlo":"10","stnrhi":"40","nrind":"NORMAL","fast":null,"dtc":"2024-04-19","dy":"1","visit":"BASELINE","visitnum":"2.0","epoch":"TREATMENT","spec":null,"method":null},{"seq":"10","testcd":"CREAT","test":"Creatinine","cat":"CHEMISTRY","orres":"39.05","orresu":"umol/L","stresc":"39.05","stresn":"39.05","stresu":"umol/L","stnrlo":"44","stnrhi":"80","nrind":"LOW","fast":null,"dtc":"2024-04-19","dy":"1","visit":"BASELINE","visitnum":"2.0","epoch":"TREATMENT","spec":null,"method":null},{"seq":"11","testcd":"GLUC","test":"Glucose","cat":"CHEMISTRY","orres":"4.93","orresu":"mmol/L","stresc":"4.93","stresn":"4.93","stresu":"mmol/L","stnrlo":"3.9","stnrhi":"5.6","nrind":"NORMAL","fast":null,"dtc":"2024-04-19","dy":"1","visit":"BASELINE","visitnum":"2.0","epoch":"TREATMENT","spec":null,"method":null},{"seq":"12","testcd":"HGB","test":"Hemoglobin","cat":"HEMATOLOGY","orres":"103.33","orresu":"g/L","stresc":"103.33","stresn":"103.33","stresu":"g/L","stnrlo":"120","stnrhi":"155","nrind":"LOW","fast":null,"dtc":"2024-04-19","dy":"1","visit":"BASELINE","visitnum":"2.0","epoch":"TREATMENT","spec":null,"method":null},{"seq":"13","testcd":"PLAT","test":"Platelets","cat":"HEMATOLOGY","orres":"341.27","orresu":"10^9/L","stresc":"341.27","stresn":"341.27","stresu":"10^9/L","stnrlo":"150","stnrhi":"400","nrind":"NORMAL","fast":null,"dtc":"2024-04-19","dy":"1","visit":"BASELINE","visitnum":"2.0","epoch":"TREATMENT","spec":null,"method":null},{"seq":"14","testcd":"WBC","test":"Leukocytes","cat":"HEMATOLOGY","orres":"9.66","orresu":"10^9/L","stresc":"9.66","stresn":"9.66","stresu":"10^9/L","stnrlo":"4.0","stnrhi":"11.0","nrind":"NORMAL","fast":null,"dtc":"2024-04-19","dy":"1","visit":"BASELINE","visitnum":"2.0","epoch":"TREATMENT","spec":null,"method":null},{"seq":"15","testcd":"ALT","test":"Alanine Aminotransferase","cat":"CHEMISTRY","orres":"18.83","orresu":"U/L","stresc":"18.83","stresn":"18.83","stresu":"U/L","stnrlo":"7","stnrhi":"56","nrind":"NORMAL","fast":null,"dtc":"2024-05-18","dy":"30","visit":"WEEK 4","visitnum":"4.0","epoch":"TREATMENT","spec":null,"method":null},{"seq":"16","testcd":"AST","test":"Aspartate Aminotransferase","cat":"CHEMISTRY","orres":"25.64","orresu":"U/L","stresc":"25.64","stresn":"25.64","stresu":"U/L","stnrlo":"10","stnrhi":"40","nrind":"NORMAL","fast":null,"dtc":"2024-05-18","dy":"30","visit":"WEEK 4","visitnum":"4.0","epoch":"TREATMENT","spec":null,"method":null},{"seq":"17","testcd":"CREAT","test":"Creatinine","cat":"CHEMISTRY","orres":"39.69","orresu":"umol/L","stresc":"39.69","stresn":"39.69","stresu":"umol/L","stnrlo":"44","stnrhi":"80","nrind":"LOW","fast":null,"dtc":"2024-05-18","dy":"30","visit":"WEEK 4","visitnum":"4.0","epoch":"TREATMENT","spec":null,"method":null},{"seq":"18","testcd":"GLUC","test":"Glucose","cat":"CHEMISTRY","orres":"5.0","orresu":"mmol/L","stresc":"5.0","stresn":"5.0","stresu":"mmol/L","stnrlo":"3.9","stnrhi":"5.6","nrind":"NORMAL","fast":null,"dtc":"2024-05-18","dy":"30","visit":"WEEK 4","visitnum":"4.0","epoch":"TREATMENT","spec":null,"method":null},{"seq":"19","testcd":"HGB","test":"Hemoglobin","cat":"HEMATOLOGY","orres":"103.91","orresu":"g/L","stresc":"103.91","stresn":"103.91","stresu":"g/L","stnrlo":"120","stnrhi":"155","nrind":"LOW","fast":null,"dtc":"2024-05-18","dy":"30","visit":"WEEK 4","visitnum":"4.0","epoch":"TREATMENT","spec":null,"method":null},{"seq":"20","testcd":"PLAT","test":"Platelets","cat":"HEMATOLOGY","orres":"335.34","orresu":"10^9/L","stresc":"335.34","stresn":"335.34","stresu":"10^9/L","stnrlo":"150","stnrhi":"400","nrind":"NORMAL","fast":null,"dtc":"2024-05-18","dy":"30","visit":"WEEK 4","visitnum":"4.0","epoch":"TREATMENT","spec":null,"method":null},{"seq":"21","testcd":"WBC","test":"Leukocytes","cat":"HEMATOLOGY","orres":"10.22","orresu":"10^9/L","stresc":"10.22","stresn":"10.22","stresu":"10^9/L","stnrlo":"4.0","stnrhi":"11.0","nrind":"NORMAL","fast":null,"dtc":"2024-05-18","dy":"30","visit":"WEEK 4","visitnum":"4.0","epoch":"TREATMENT","spec":null,"method":null},{"seq":"22","testcd":"ALT","test":"Alanine Aminotransferase","cat":"CHEMISTRY","orres":"17.09","orresu":"U/L","stresc":"17.09","stresn":"17.09","stresu":"U/L","stnrlo":"7","stnrhi":"56","nrind":"NORMAL","fast":null,"dtc":"2024-06-13","dy":"56","visit":"WEEK 8","visitnum":"5.0","epoch":"TREATMENT","spec":null,"method":null},{"seq":"23","testcd":"AST","test":"Aspartate Aminotransferase","cat":"CHEMISTRY","orres":"23.76","orresu":"U/L","stresc":"23.76","stresn":"23.76","stresu":"U/L","stnrlo":"10","stnrhi":"40","nrind":"NORMAL","fast":null,"dtc":"2024-06-13","dy":"56","visit":"WEEK 8","visitnum":"5.0","epoch":"TREATMENT","spec":null,"method":null},{"seq":"24","testcd":"CREAT","test":"Creatinine","cat":"CHEMISTRY","orres":"40.23","orresu":"umol/L","stresc":"40.23","stresn":"40.23","stresu":"umol/L","stnrlo":"44","stnrhi":"80","nrind":"LOW","fast":null,"dtc":"2024-06-13","dy":"56","visit":"WEEK 8","visitnum":"5.0","epoch":"TREATMENT","spec":null,"method":null},{"seq":"25","testcd":"GLUC","test":"Glucose","cat":"CHEMISTRY","orres":"5.27","orresu":"mmol/L","stresc":"5.27","stresn":"5.27","stresu":"mmol/L","stnrlo":"3.9","stnrhi":"5.6","nrind":"NORMAL","fast":null,"dtc":"2024-06-13","dy":"56","visit":"WEEK 8","visitnum":"5.0","epoch":"TREATMENT","spec":null,"method":null},{"seq":"26","testcd":"HGB","test":"Hemoglobin","cat":"HEMATOLOGY","orres":"108.64","orresu":"g/L","stresc":"108.64","stresn":"108.64","stresu":"g/L","stnrlo":"120","stnrhi":"155","nrind":"LOW","fast":null,"dtc":"2024-06-13","dy":"56","visit":"WEEK 8","visitnum":"5.0","epoch":"TREATMENT","spec":null,"method":null},{"seq":"27","testcd":"PLAT","test":"Platelets","cat":"HEMATOLOGY","orres":"333.49","orresu":"10^9/L","stresc":"333.49","stresn":"333.49","stresu":"10^9/L","stnrlo":"150","stnrhi":"400","nrind":"NORMAL","fast":null,"dtc":"2024-06-13","dy":"56","visit":"WEEK 8","visitnum":"5.0","epoch":"TREATMENT","spec":null,"method":null},{"seq":"28","testcd":"WBC","test":"Leukocytes","cat":"HEMATOLOGY","orres":"10.2","orresu":"10^9/L","stresc":"10.2","stresn":"10.2","stresu":"10^9/L","stnrlo":"4.0","stnrhi":"11.0","nrind":"NORMAL","fast":null,"dtc":"2024-06-13","dy":"56","visit":"WEEK 8","visitnum":"5.0","epoch":"TREATMENT","spec":null,"method":null},{"seq":"29","testcd":"ALT","test":"Alanine Aminotransferase","cat":"CHEMISTRY","orres":null,"orresu":null,"stresc":null,"stresn":null,"stresu":null,"stnrlo":null,"stnrhi":null,"nrind":null,"fast":null,"dtc":"2024-08-06","dy":"110","visit":"FOLLOW-UP","visitnum":"7.0","epoch":"FOLLOW-UP","spec":null,"method":null},{"seq":"30","testcd":"AST","test":"Aspartate Aminotransferase","cat":"CHEMISTRY","orres":"25.07","orresu":"U/L","stresc":"25.07","stresn":"25.07","stresu":"U/L","stnrlo":"10","stnrhi":"40","nrind":"NORMAL","fast":null,"dtc":"2024-08-06","dy":"110","visit":"FOLLOW-UP","visitnum":"7.0","epoch":"FOLLOW-UP","spec":null,"method":null},{"seq":"31","testcd":"CREAT","test":"Creatinine","cat":"CHEMISTRY","orres":"37.96","orresu":"umol/L","stresc":"37.96","stresn":"37.96","stresu":"umol/L","stnrlo":"44","stnrhi":"80","nrind":"LOW","fast":null,"dtc":"2024-08-06","dy":"110","visit":"FOLLOW-UP","visitnum":"7.0","epoch":"FOLLOW-UP","spec":null,"method":null},{"seq":"32","testcd":"GLUC","test":"Glucose","cat":"CHEMISTRY","orres":"5.26","orresu":"mmol/L","stresc":"5.26","stresn":"5.26","stresu":"mmol/L","stnrlo":"3.9","stnrhi":"5.6","nrind":"NORMAL","fast":null,"dtc":"2024-08-06","dy":"110","visit":"FOLLOW-UP","visitnum":"7.0","epoch":"FOLLOW-UP","spec":null,"method":null},{"seq":"33","testcd":"HGB","test":"Hemoglobin","cat":"HEMATOLOGY","orres":null,"orresu":null,"stresc":null,"stresn":null,"stresu":null,"stnrlo":null,"stnrhi":null,"nrind":null,"fast":null,"dtc":"2024-08-06","dy":"110","visit":"FOLLOW-UP","visitnum":"7.0","epoch":"FOLLOW-UP","spec":null,"method":null},{"seq":"34","testcd":"PLAT","test":"Platelets","cat":"HEMATOLOGY","orres":"344.09","orresu":"10^9/L","stresc":"344.09","stresn":"344.09","stresu":"10^9/L","stnrlo":"150","stnrhi":"400","nrind":"NORMAL","fast":null,"dtc":"2024-08-06","dy":"110","visit":"FOLLOW-UP","visitnum":"7.0","epoch":"FOLLOW-UP","spec":null,"method":null},{"seq":"35","testcd":"WBC","test":"Leukocytes","cat":"HEMATOLOGY","orres":"9.95","orresu":"10^9/L","stresc":"9.95","stresn":"9.95","stresu":"10^9/L","stnrlo":"4.0","stnrhi":"11.0","nrind":"NORMAL","fast":null,"dtc":"2024-08-06","dy":"110","visit":"FOLLOW-UP","visitnum":"7.0","epoch":"FOLLOW-UP","spec":null,"method":null}]},"section_9_vital_signs":{"summary":{"total_records":48},"trends":{"BMI":[{"visit":"SCREENING","visitnum":"1.0","dtc":"2024-03-12","value":"30.9","unit":"kg/m2"},{"visit":"BASELINE","visitnum":"2.0","dtc":"2024-04-19","value":"31.3","unit":"kg/m2"},{"visit":"WEEK 2","visitnum":"3.0","dtc":"2024-05-02","value":"31.6","unit":"kg/m2"},{"visit":"WEEK 8","visitnum":"5.0","dtc":"2024-06-13","value":"32.0","unit":"kg/m2"},{"visit":"WEEK 12","visitnum":"6.0","dtc":"2024-07-10","value":"32.7","unit":"kg/m2"},{"visit":"FOLLOW-UP","visitnum":"7.0","dtc":"2024-08-06","value":"32.9","unit":"kg/m2"}],"DIABP":[{"visit":"SCREENING","visitnum":"1.0","dtc":"2024-03-12","value":"82.4","unit":"mmHg"},{"visit":"BASELINE","visitnum":"2.0","dtc":"2024-04-19","value":"84.4","unit":"mmHg"},{"visit":"WEEK 2","visitnum":"3.0","dtc":"2024-05-02","value":"86.7","unit":"mmHg"},{"visit":"WEEK 8","visitnum":"5.0","dtc":"2024-06-13","value":"87.9","unit":"mmHg"},{"visit":"WEEK 12","visitnum":"6.0","dtc":"2024-07-10","value":"88.2","unit":"mmHg"},{"visit":"FOLLOW-UP","visitnum":"7.0","dtc":"2024-08-06","value":"88.5","unit":"mmHg"}],"HEIGHT":[{"visit":"SCREENING","visitnum":"1.0","dtc":"2024-03-12","value":"156.1","unit":"cm"},{"visit":"BASELINE","visitnum":"2.0","dtc":"2024-04-19","value":"156.6","unit":"cm"},{"visit":"WEEK 2","visitnum":"3.0","dtc":"2024-05-02","value":"156.1","unit":"cm"},{"visit":"WEEK 8","visitnum":"5.0","dtc":"2024-06-13","value":"155.8","unit":"cm"},{"visit":"WEEK 12","visitnum":"6.0","dtc":"2024-07-10","value":"155.9","unit":"cm"},{"visit":"FOLLOW-UP","visitnum":"7.0","dtc":"2024-08-06","value":"156.5","unit":"cm"}],"PULSE":[{"visit":"SCREENING","visitnum":"1.0","dtc":"2024-03-12","value":"65.5","unit":"beats/min"},{"visit":"BASELINE","visitnum":"2.0","dtc":"2024-04-19","value":"70.6","unit":"beats/min"},{"visit":"WEEK 2","visitnum":"3.0","dtc":"2024-05-02","value":"67.4","unit":"beats/min"},{"visit":"WEEK 8","visitnum":"5.0","dtc":"2024-06-13","value":"68.6","unit":"beats/min"},{"visit":"WEEK 12","visitnum":"6.0","dtc":"2024-07-10","value":"64.3","unit":"beats/min"},{"visit":"FOLLOW-UP","visitnum":"7.0","dtc":"2024-08-06","value":"60.0","unit":"beats/min"}],"RESP":[{"visit":"SCREENING","visitnum":"1.0","dtc":"2024-03-12","value":"18.0","unit":"breaths/min"},{"visit":"BASELINE","visitnum":"2.0","dtc":"2024-04-19","value":"18.0","unit":"breaths/min"},{"visit":"WEEK 2","visitnum":"3.0","dtc":"2024-05-02","value":"18.8","unit":"breaths/min"},{"visit":"WEEK 8","visitnum":"5.0","dtc":"2024-06-13","value":"16.6","unit":"breaths/min"},{"visit":"WEEK 12","visitnum":"6.0","dtc":"2024-07-10","value":"16.6","unit":"breaths/min"},{"visit":"FOLLOW-UP","visitnum":"7.0","dtc":"2024-08-06","value":"17.9","unit":"breaths/min"}],"SYSBP":[{"visit":"SCREENING","visitnum":"1.0","dtc":"2024-03-12","value":"116.2","unit":"mmHg"},{"visit":"BASELINE","visitnum":"2.0","dtc":"2024-04-19","value":"117.6","unit":"mmHg"},{"visit":"WEEK 2","visitnum":"3.0","dtc":"2024-05-02","value":"119.0","unit":"mmHg"},{"visit":"WEEK 8","visitnum":"5.0","dtc":"2024-06-13","value":"120.4","unit":"mmHg"},{"visit":"WEEK 12","visitnum":"6.0","dtc":"2024-07-10","value":"119.1","unit":"mmHg"},{"visit":"FOLLOW-UP","visitnum":"7.0","dtc":"2024-08-06","value":"122.0","unit":"mmHg"}],"TEMP":[{"visit":"SCREENING","visitnum":"1.0","dtc":"2024-03-12","value":"37.6","unit":"C"},{"visit":"BASELINE","visitnum":"2.0","dtc":"2024-04-19","value":"37.6","unit":"C"},{"visit":"WEEK 2","visitnum":"3.0","dtc":"2024-05-02","value":"37.6","unit":"C"},{"visit":"WEEK 8","visitnum":"5.0","dtc":"2024-06-13","value":"37.3","unit":"C"},{"visit":"WEEK 12","visitnum":"6.0","dtc":"2024-07-10","value":"37.8","unit":"C"},{"visit":"FOLLOW-UP","visitnum":"7.0","dtc":"2024-08-06","value":"37.7","unit":"C"}],"WEIGHT":[{"visit":"SCREENING","visitnum":"1.0","dtc":"2024-03-12","value":"75.3","unit":"kg"},{"visit":"BASELINE","visitnum":"2.0","dtc":"2024-04-19","value":"76.7","unit":"kg"},{"visit":"WEEK 2","visitnum":"3.0","dtc":"2024-05-02","value":"77.1","unit":"kg"},{"visit":"WEEK 8","visitnum":"5.0","dtc":"2024-06-13","value":"77.7","unit":"kg"},{"visit":"WEEK 12","visitnum":"6.0","dtc":"2024-07-10","value":"79.4","unit":"kg"},{"visit":"FOLLOW-UP","visitnum":"7.0","dtc":"2024-08-06","value":"80.7","unit":"kg"}]},"results":[{"seq":"1","testcd":"BMI","test":"BMI","cat":null,"orres":"30.9","orresu":"kg/m2","stresc":"30.9","stresn":"30.9","stresu":"kg/m2","stnrlo":null,"stnrhi":null,"nrind":null,"pos":null,"loc":null,"dtc":"2024-03-12","dy":"-38","visit":"SCREENING","visitnum":"1.0","epoch":"SCREENING"},{"seq":"2","testcd":"DIABP","test":"Diastolic Blood Pressure","cat":null,"orres":"82.4","orresu":"mmHg","stresc":"82.4","stresn":"82.4","stresu":"mmHg","stnrlo":null,"stnrhi":null,"nrind":null,"pos":null,"loc":null,"dtc":"2024-03-12","dy":"-38","visit":"SCREENING","visitnum":"1.0","epoch":"SCREENING"},{"seq":"3","testcd":"HEIGHT","test":"Height","cat":null,"orres":"156.1","orresu":"cm","stresc":"156.1","stresn":"156.1","stresu":"cm","stnrlo":null,"stnrhi":null,"nrind":null,"pos":null,"loc":null,"dtc":"2024-03-12","dy":"-38","visit":"SCREENING","visitnum":"1.0","epoch":"SCREENING"},{"seq":"4","testcd":"PULSE","test":"Pulse Rate","cat":null,"orres":"65.5","orresu":"beats/min","stresc":"65.5","stresn":"65.5","stresu":"beats/min","stnrlo":null,"stnrhi":null,"nrind":null,"pos":null,"loc":null,"dtc":"2024-03-12","dy":"-38","visit":"SCREENING","visitnum":"1.0","epoch":"SCREENING"},{"seq":"5","testcd":"RESP","test":"Respiratory Rate","cat":null,"orres":"18.0","orresu":"breaths/min","stresc":"18.0","stresn":"18.0","stresu":"breaths/min","stnrlo":null,"stnrhi":null,"nrind":null,"pos":null,"loc":null,"dtc":"2024-03-12","dy":"-38","visit":"SCREENING","visitnum":"1.0","epoch":"SCREENING"},{"seq":"6","testcd":"SYSBP","test":"Systolic Blood Pressure","cat":null,"orres":"116.2","orresu":"mmHg","stresc":"116.2","stresn":"116.2","stresu":"mmHg","stnrlo":null,"stnrhi":null,"nrind":null,"pos":null,"loc":null,"dtc":"2024-03-12","dy":"-38","visit":"SCREENING","visitnum":"1.0","epoch":"SCREENING"},{"seq":"7","testcd":"TEMP","test":"Temperature","cat":null,"orres":"37.6","orresu":"C","stresc":"37.6","stresn":"37.6","stresu":"C","stnrlo":null,"stnrhi":null,"nrind":null,"pos":null,"loc":null,"dtc":"2024-03-12","dy":"-38","visit":"SCREENING","visitnum":"1.0","epoch":"SCREENING"},{"seq":"8","testcd":"WEIGHT","test":"Weight","cat":null,"orres":"75.3","orresu":"kg","stresc":"75.3","stresn":"75.3","stresu":"kg","stnrlo":null,"stnrhi":null,"nrind":null,"pos":null,"loc":null,"dtc":"2024-03-12","dy":"-38","visit":"SCREENING","visitnum":"1.0","epoch":"SCREENING"},{"seq":"9","testcd":"BMI","test":"BMI","cat":null,"orres":"31.3","orresu":"kg/m2","stresc":"31.3","stresn":"31.3","stresu":"kg/m2","stnrlo":null,"stnrhi":null,"nrind":null,"pos":null,"loc":null,"dtc":"2024-04-19","dy":"1","visit":"BASELINE","visitnum":"2.0","epoch":"TREATMENT"},{"seq":"10","testcd":"DIABP","test":"Diastolic Blood Pressure","cat":null,"orres":"84.4","orresu":"mmHg","stresc":"84.4","stresn":"84.4","stresu":"mmHg","stnrlo":null,"stnrhi":null,"nrind":null,"pos":null,"loc":null,"dtc":"2024-04-19","dy":"1","visit":"BASELINE","visitnum":"2.0","epoch":"TREATMENT"},{"seq":"11","testcd":"HEIGHT","test":"Height","cat":null,"orres":"156.6","orresu":"cm","stresc":"156.6","stresn":"156.6","stresu":"cm","stnrlo":null,"stnrhi":null,"nrind":null,"pos":null,"loc":null,"dtc":"2024-04-19","dy":"1","visit":"BASELINE","visitnum":"2.0","epoch":"TREATMENT"},{"seq":"12","testcd":"PULSE","test":"Pulse Rate","cat":null,"orres":"70.6","orresu":"beats/min","stresc":"70.6","stresn":"70.6","stresu":"beats/min","stnrlo":null,"stnrhi":null,"nrind":null,"pos":null,"loc":null,"dtc":"2024-04-19","dy":"1","visit":"BASELINE","visitnum":"2.0","epoch":"TREATMENT"},{"seq":"13","testcd":"RESP","test":"Respiratory Rate","cat":null,"orres":"18.0","orresu":"breaths/min","stresc":"18.0","stresn":"18.0","stresu":"breaths/min","stnrlo":null,"stnrhi":null,"nrind":null,"pos":null,"loc":null,"dtc":"2024-04-19","dy":"1","visit":"BASELINE","visitnum":"2.0","epoch":"TREATMENT"},{"seq":"14","testcd":"SYSBP","test":"Systolic Blood Pressure","cat":null,"orres":"117.6","orresu":"mmHg","stresc":"117.6","stresn":"117.6","stresu":"mmHg","stnrlo":null,"stnrhi":null,"nrind":null,"pos":null,"loc":null,"dtc":"2024-04-19","dy":"1","visit":"BASELINE","visitnum":"2.0","epoch":"TREATMENT"},{"seq":"15","testcd":"TEMP","test":"Temperature","cat":null,"orres":"37.6","orresu":"C","stresc":"37.6","stresn":"37.6","stresu":"C","stnrlo":null,"stnrhi":null,"nrind":null,"pos":null,"loc":null,"dtc":"2024-04-19","dy":"1","visit":"BASELINE","visitnum":"2.0","epoch":"TREATMENT"},{"seq":"16","testcd":"WEIGHT","test":"Weight","cat":null,"orres":"76.7","orresu":"kg","stresc":"76.7","stresn":"76.7","stresu":"kg","stnrlo":null,"stnrhi":null,"nrind":null,"pos":null,"loc":null,"dtc":"2024-04-19","dy":"1","visit":"BASELINE","visitnum":"2.0","epoch":"TREATMENT"},{"seq":"17","testcd":"BMI","test":"BMI","cat":null,"orres":"31.6","orresu":"kg/m2","stresc":"31.6","stresn":"31.6","stresu":"kg/m2","stnrlo":null,"stnrhi":null,"nrind":null,"pos":null,"loc":null,"dtc":"2024-05-02","dy":"14","visit":"WEEK 2","visitnum":"3.0","epoch":"TREATMENT"},{"seq":"18","testcd":"DIABP","test":"Diastolic Blood Pressure","cat":null,"orres":"86.7","orresu":"mmHg","stresc":"86.7","stresn":"86.7","stresu":"mmHg","stnrlo":null,"stnrhi":null,"nrind":null,"pos":null,"loc":null,"dtc":"2024-05-02","dy":"14","visit":"WEEK 2","visitnum":"3.0","epoch":"TREATMENT"},{"seq":"19","testcd":"HEIGHT","test":"Height","cat":null,"orres":"156.1","orresu":"cm","stresc":"156.1","stresn":"156.1","stresu":"cm","stnrlo":null,"stnrhi":null,"nrind":null,"pos":null,"loc":null,"dtc":"2024-05-02","dy":"14","visit":"WEEK 2","visitnum":"3.0","epoch":"TREATMENT"},{"seq":"20","testcd":"PULSE","test":"Pulse Rate","cat":null,"orres":"67.4","orresu":"beats/min","stresc":"67.4","stresn":"67.4","stresu":"beats/min","stnrlo":null,"stnrhi":null,"nrind":null,"pos":null,"loc":null,"dtc":"2024-05-02","dy":"14","visit":"WEEK 2","visitnum":"3.0","epoch":"TREATMENT"},{"seq":"21","testcd":"RESP","test":"Respiratory Rate","cat":null,"orres":"18.8","orresu":"breaths/min","stresc":"18.8","stresn":"18.8","stresu":"breaths/min","stnrlo":null,"stnrhi":null,"nrind":null,"pos":null,"loc":null,"dtc":"2024-05-02","dy":"14","visit":"WEEK 2","visitnum":"3.0","epoch":"TREATMENT"},{"seq":"22","testcd":"SYSBP","test":"Systolic Blood Pressure","cat":null,"orres":"119.0","orresu":"mmHg","stresc":"119.0","stresn":"119.0","stresu":"mmHg","stnrlo":null,"stnrhi":null,"nrind":null,"pos":null,"loc":null,"dtc":"2024-05-02","dy":"14","visit":"WEEK 2","visitnum":"3.0","epoch":"TREATMENT"},{"seq":"23","testcd":"TEMP","test":"Temperature","cat":null,"orres":"37.6","orresu":"C","stresc":"37.6","stresn":"37.6","stresu":"C","stnrlo":null,"stnrhi":null,"nrind":null,"pos":null,"loc":null,"dtc":"2024-05-02","dy":"14","visit":"WEEK 2","visitnum":"3.0","epoch":"TREATMENT"},{"seq":"24","testcd":"WEIGHT","test":"Weight","cat":null,"orres":"77.1","orresu":"kg","stresc":"77.1","stresn":"77.1","stresu":"kg","stnrlo":null,"stnrhi":null,"nrind":null,"pos":null,"loc":null,"dtc":"2024-05-02","dy":"14","visit":"WEEK 2","visitnum":"3.0","epoch":"TREATMENT"},{"seq":"25","testcd":"BMI","test":"BMI","cat":null,"orres":"32.0","orresu":"kg/m2","stresc":"32.0","stresn":"32.0","stresu":"kg/m2","stnrlo":null,"stnrhi":null,"nrind":null,"pos":null,"loc":null,"dtc":"2024-06-13","dy":"56","visit":"WEEK 8","visitnum":"5.0","epoch":"TREATMENT"},{"seq":"26","testcd":"DIABP","test":"Diastolic Blood Pressure","cat":null,"orres":"87.9","orresu":"mmHg","stresc":"87.9","stresn":"87.9","stresu":"mmHg","stnrlo":null,"stnrhi":null,"nrind":null,"pos":null,"loc":null,"dtc":"2024-06-13","dy":"56","visit":"WEEK 8","visitnum":"5.0","epoch":"TREATMENT"},{"seq":"27","testcd":"HEIGHT","test":"Height","cat":null,"orres":"155.8","orresu":"cm","stresc":"155.8","stresn":"155.8","stresu":"cm","stnrlo":null,"stnrhi":null,"nrind":null,"pos":null,"loc":null,"dtc":"2024-06-13","dy":"56","visit":"WEEK 8","visitnum":"5.0","epoch":"TREATMENT"},{"seq":"28","testcd":"PULSE","test":"Pulse Rate","cat":null,"orres":"68.6","orresu":"beats/min","stresc":"68.6","stresn":"68.6","stresu":"beats/min","stnrlo":null,"stnrhi":null,"nrind":null,"pos":null,"loc":null,"dtc":"2024-06-13","dy":"56","visit":"WEEK 8","visitnum":"5.0","epoch":"TREATMENT"},{"seq":"29","testcd":"RESP","test":"Respiratory Rate","cat":null,"orres":"16.6","orresu":"breaths/min","stresc":"16.6","stresn":"16.6","stresu":"breaths/min","stnrlo":null,"stnrhi":null,"nrind":null,"pos":null,"loc":null,"dtc":"2024-06-13","dy":"56","visit":"WEEK 8","visitnum":"5.0","epoch":"TREATMENT"},{"seq":"30","testcd":"SYSBP","test":"Systolic Blood Pressure","cat":null,"orres":"120.4","orresu":"mmHg","stresc":"120.4","stresn":"120.4","stresu":"mmHg","stnrlo":null,"stnrhi":null,"nrind":null,"pos":null,"loc":null,"dtc":"2024-06-13","dy":"56","visit":"WEEK 8","visitnum":"5.0","epoch":"TREATMENT"},{"seq":"31","testcd":"TEMP","test":"Temperature","cat":null,"orres":"37.3","orresu":"C","stresc":"37.3","stresn":"37.3","stresu":"C","stnrlo":null,"stnrhi":null,"nrind":null,"pos":null,"loc":null,"dtc":"2024-06-13","dy":"56","visit":"WEEK 8","visitnum":"5.0","epoch":"TREATMENT"},{"seq":"32","testcd":"WEIGHT","test":"Weight","cat":null,"orres":"77.7","orresu":"kg","stresc":"77.7","stresn":"77.7","stresu":"kg","stnrlo":null,"stnrhi":null,"nrind":null,"pos":null,"loc":null,"dtc":"2024-06-13","dy":"56","visit":"WEEK 8","visitnum":"5.0","epoch":"TREATMENT"},{"seq":"33","testcd":"BMI","test":"BMI","cat":null,"orres":"32.7","orresu":"kg/m2","stresc":"32.7","stresn":"32.7","stresu":"kg/m2","stnrlo":null,"stnrhi":null,"nrind":null,"pos":null,"loc":null,"dtc":"2024-07-10","dy":"83","visit":"WEEK 12","visitnum":"6.0","epoch":"TREATMENT"},{"seq":"34","testcd":"DIABP","test":"Diastolic Blood Pressure","cat":null,"orres":"88.2","orresu":"mmHg","stresc":"88.2","stresn":"88.2","stresu":"mmHg","stnrlo":null,"stnrhi":null,"nrind":null,"pos":null,"loc":null,"dtc":"2024-07-10","dy":"83","visit":"WEEK 12","visitnum":"6.0","epoch":"TREATMENT"},{"seq":"35","testcd":"HEIGHT","test":"Height","cat":null,"orres":"155.9","orresu":"cm","stresc":"155.9","stresn":"155.9","stresu":"cm","stnrlo":null,"stnrhi":null,"nrind":null,"pos":null,"loc":null,"dtc":"2024-07-10","dy":"83","visit":"WEEK 12","visitnum":"6.0","epoch":"TREATMENT"},{"seq":"36","testcd":"PULSE","test":"Pulse Rate","cat":null,"orres":"64.3","orresu":"beats/min","stresc":"64.3","stresn":"64.3","stresu":"beats/min","stnrlo":null,"stnrhi":null,"nrind":null,"pos":null,"loc":null,"dtc":"2024-07-10","dy":"83","visit":"WEEK 12","visitnum":"6.0","epoch":"TREATMENT"},{"seq":"37","testcd":"RESP","test":"Respiratory Rate","cat":null,"orres":"16.6","orresu":"breaths/min","stresc":"16.6","stresn":"16.6","stresu":"breaths/min","stnrlo":null,"stnrhi":null,"nrind":null,"pos":null,"loc":null,"dtc":"2024-07-10","dy":"83","visit":"WEEK 12","visitnum":"6.0","epoch":"TREATMENT"},{"seq":"38","testcd":"SYSBP","test":"Systolic Blood Pressure","cat":null,"orres":"119.1","orresu":"mmHg","stresc":"119.1","stresn":"119.1","stresu":"mmHg","stnrlo":null,"stnrhi":null,"nrind":null,"pos":null,"loc":null,"dtc":"2024-07-10","dy":"83","visit":"WEEK 12","visitnum":"6.0","epoch":"TREATMENT"},{"seq":"39","testcd":"TEMP","test":"Temperature","cat":null,"orres":"37.8","orresu":"C","stresc":"37.8","stresn":"37.8","stresu":"C","stnrlo":null,"stnrhi":null,"nrind":null,"pos":null,"loc":null,"dtc":"2024-07-10","dy":"83","visit":"WEEK 12","visitnum":"6.0","epoch":"TREATMENT"},{"seq":"40","testcd":"WEIGHT","test":"Weight","cat":null,"orres":"79.4","orresu":"kg","stresc":"79.4","stresn":"79.4","stresu":"kg","stnrlo":null,"stnrhi":null,"nrind":null,"pos":null,"loc":null,"dtc":"2024-07-10","dy":"83","visit":"WEEK 12","visitnum":"6.0","epoch":"TREATMENT"},{"seq":"41","testcd":"BMI","test":"BMI","cat":null,"orres":"32.9","orresu":"kg/m2","stresc":"32.9","stresn":"32.9","stresu":"kg/m2","stnrlo":null,"stnrhi":null,"nrind":null,"pos":null,"loc":null,"dtc":"2024-08-06","dy":"110","visit":"FOLLOW-UP","visitnum":"7.0","epoch":"FOLLOW-UP"},{"seq":"42","testcd":"DIABP","test":"Diastolic Blood Pressure","cat":null,"orres":"88.5","orresu":"mmHg","stresc":"88.5","stresn":"88.5","stresu":"mmHg","stnrlo":null,"stnrhi":null,"nrind":null,"pos":null,"loc":null,"dtc":"2024-08-06","dy":"110","visit":"FOLLOW-UP","visitnum":"7.0","epoch":"FOLLOW-UP"},{"seq":"43","testcd":"HEIGHT","test":"Height","cat":null,"orres":"156.5","orresu":"cm","stresc":"156.5","stresn":"156.5","stresu":"cm","stnrlo":null,"stnrhi":null,"nrind":null,"pos":null,"loc":null,"dtc":"2024-08-06","dy":"110","visit":"FOLLOW-UP","visitnum":"7.0","epoch":"FOLLOW-UP"},{"seq":"44","testcd":"PULSE","test":"Pulse Rate","cat":null,"orres":"60.0","orresu":"beats/min","stresc":"60.0","stresn":"60.0","stresu":"beats/min","stnrlo":null,"stnrhi":null,"nrind":null,"pos":null,"loc":null,"dtc":"2024-08-06","dy":"110","visit":"FOLLOW-UP","visitnum":"7.0","epoch":"FOLLOW-UP"},{"seq":"45","testcd":"RESP","test":"Respiratory Rate","cat":null,"orres":"17.9","orresu":"breaths/min","stresc":"17.9","stresn":"17.9","stresu":"breaths/min","stnrlo":null,"stnrhi":null,"nrind":null,"pos":null,"loc":null,"dtc":"2024-08-06","dy":"110","visit":"FOLLOW-UP","visitnum":"7.0","epoch":"FOLLOW-UP"},{"seq":"46","testcd":"SYSBP","test":"Systolic Blood Pressure","cat":null,"orres":"122.0","orresu":"mmHg","stresc":"122.0","stresn":"122.0","stresu":"mmHg","stnrlo":null,"stnrhi":null,"nrind":null,"pos":null,"loc":null,"dtc":"2024-08-06","dy":"110","visit":"FOLLOW-UP","visitnum":"7.0","epoch":"FOLLOW-UP"},{"seq":"47","testcd":"TEMP","test":"Temperature","cat":null,"orres":"37.7","orresu":"C","stresc":"37.7","stresn":"37.7","stresu":"C","stnrlo":null,"stnrhi":null,"nrind":null,"pos":null,"loc":null,"dtc":"2024-08-06","dy":"110","visit":"FOLLOW-UP","visitnum":"7.0","epoch":"FOLLOW-UP"},{"seq":"48","testcd":"WEIGHT","test":"Weight","cat":null,"orres":"80.7","orresu":"kg","stresc":"80.7","stresn":"80.7","stresu":"kg","stnrlo":null,"stnrhi":null,"nrind":null,"pos":null,"loc":null,"dtc":"2024-08-06","dy":"110","visit":"FOLLOW-UP","visitnum":"7.0","epoch":"FOLLOW-UP"}]},"section_10_questionnaires_and_scores":{"questionnaires":[],"findings_about":[]},"section_11_protocol_deviations":{"deviations":[{"seq":"1","term":"Missed GB001 dose on 2024-04-19","decod":"MISSED DOSE","cat":"MINOR","scat":"DOSING","start_dtc":"2024-04-19","end_dtc":null,"visit":null},{"seq":"2","term":"Missed GB001 dose on 2024-04-22","decod":"MISSED DOSE","cat":"MINOR","scat":"DOSING","start_dtc":"2024-04-22","end_dtc":null,"visit":null},{"seq":"3","term":"Missed GB001 dose on 2024-04-27","decod":"MISSED DOSE","cat":"MINOR","scat":"DOSING","start_dtc":"2024-04-27","end_dtc":null,"visit":null},{"seq":"4","term":"Missed GB001 dose on 2024-04-28","decod":"MISSED DOSE","cat":"MINOR","scat":"DOSING","start_dtc":"2024-04-28","end_dtc":null,"visit":null},{"seq":"5","term":"Visit WEEK 2 occurred 1 days early (Day 14 vs planned Day 15)","decod":"VISIT OCCURRED OUTSIDE VISIT WINDOW","cat":"MINOR","scat":"VISIT WINDOW","start_dtc":"2024-05-02","end_dtc":null,"visit":null},{"seq":"6","term":"Missed GB001 dose on 2024-05-02","decod":"MISSED DOSE","cat":"MINOR","scat":"DOSING","start_dtc":"2024-05-02","end_dtc":null,"visit":null},{"seq":"7","term":"Missed GB001 dose on 2024-05-25","decod":"MISSED DOSE","cat":"MINOR","scat":"DOSING","start_dtc":"2024-05-25","end_dtc":null,"visit":null},{"seq":"8","term":"Missed GB001 dose on 2024-05-28","decod":"MISSED DOSE","cat":"MINOR","scat":"DOSING","start_dtc":"2024-05-28","end_dtc":null,"visit":null},{"seq":"9","term":"Missed GB001 dose on 2024-05-29","decod":"MISSED DOSE","cat":"MINOR","scat":"DOSING","start_dtc":"2024-05-29","end_dtc":null,"visit":null},{"seq":"10","term":"Visit WEEK 12 occurred 2 days early (Day 83 vs planned Day 85)","decod":"VISIT OCCURRED OUTSIDE VISIT WINDOW","cat":"MINOR","scat":"VISIT WINDOW","start_dtc":"2024-07-10","end_dtc":null,"visit":null},{"seq":"11","term":"Visit FOLLOW-UP occurred 3 days early (Day 110 vs planned Day 113)","decod":"VISIT OCCURRED OUTSIDE VISIT WINDOW","cat":"MINOR","scat":"VISIT WINDOW","start_dtc":"2024-08-06","end_dtc":null,"visit":null}],"total":11},"section_12_disposition":{"completion_status":"COMPLETED","disposition_records":[{"seq":"1","term":"INFORMED CONSENT OBTAINED","decod":"INFORMED CONSENT OBTAINED","cat":"PROTOCOL MILESTONE","scat":null,"dtc":"2024-03-25","dy":null,"visit":null,"epoch":"SCREENING"},{"seq":"2","term":"RANDOMIZED","decod":"RANDOMIZED","cat":"PROTOCOL MILESTONE","scat":null,"dtc":"2024-04-19","dy":null,"visit":null,"epoch":"TREATMENT"},{"seq":"3","term":"COMPLETED","decod":"COMPLETED","cat":"DISPOSITION EVENT","scat":null,"dtc":"2024-09-05","dy":null,"visit":null,"epoch":"FOLLOW-UP"}],"death":null},"section_13_hospitalizations":{"items":[],"total":0},"section_14_substance_use":{"items":[{"seq":"1","substance":"ALCOHOL","decod":"ALCOHOL","cat":"ALCOHOL","scat":null,"usage":"Y","dose":"4.0","dosu":"DRINKS/WEEK","freq":"QW","start_dtc":"2019-03-27","end_dtc":null},{"seq":"2","substance":"COFFEE","decod":"COFFEE","cat":"CAFFEINE","scat":null,"usage":"Y","dose":null,"dosu":null,"freq":null,"start_dtc":"2016-03-27","end_dtc":"2018-03-27"},{"seq":"3","substance":"CIGARETTES","decod":"CIGARETTES","cat":"TOBACCO","scat":"CIGARETTES","usage":"N","dose":null,"dosu":null,"freq":null,"start_dtc":null,"end_dtc":null}],"total":3},"section_15_subject_status":{"items":[{"seq":"1","testcd":"SURVSTAT","test":"Survival Status","orres":"ALIVE","stresc":"ALIVE","dtc":"2024-09-05","visit":"END OF STUDY","epoch":"FOLLOW-UP"}],"total":1}}