{"subject_id":"GB001-ASTHMA-201-SITE001-0409","study_id":"GB001-ASTHMA-201","generated_at":"2026-06-16T07:22:28.138456+00:00","sdtmig_version":"3.4","flags":{"has_serious_ae":true,"has_fatal_ae":false,"has_protocol_deviation":true,"n_protocol_deviations":6,"n_adverse_events":6,"n_concomitant_meds":3,"max_ae_severity":"SEVERE","screen_failure":false,"discontinued_early":true,"discontinuation_reason":"ADVERSE EVENT","death":false,"exposure_days":57},"timeline":[{"dtc":"2024-01-17","dy":"-51","event":"VISIT: SCREENING","domain":"SV","category":"visit"},{"dtc":"2024-02-24","dy":"-13","event":"INFORMED CONSENT OBTAINED","domain":"DS","category":"milestone"},{"dtc":"2024-03-08","dy":"1","event":"RANDOMIZED","domain":"DS","category":"milestone"},{"dtc":"2024-03-08","dy":"1","event":"FIRST DOSE: GB001","domain":"EX","category":"exposure"},{"dtc":"2024-03-08","dy":"1","event":"VISIT: BASELINE","domain":"SV","category":"visit"},{"dtc":"2024-03-24","dy":"17","event":"DEVIATION: VISIT OCCURRED OUTSIDE VISIT WINDOW","domain":"DV","category":"deviation"},{"dtc":"2024-03-24","dy":"17","event":"VISIT: WEEK 2","domain":"SV","category":"visit"},{"dtc":"2024-03-25","dy":"18","event":"AE: Nausea (MODERATE)","domain":"AE","category":"adverse_event"},{"dtc":"2024-03-27","dy":"20","event":"AE: Sinusitis (SEVERE) [SERIOUS]","domain":"AE","category":"adverse_event"},{"dtc":"2024-03-27","dy":"20","event":"CM START: IBUPROFEN","domain":"CM","category":"concomitant_med"},{"dtc":"2024-03-30","dy":"23","event":"AE: Nasopharyngitis (MODERATE)","domain":"AE","category":"adverse_event"},{"dtc":"2024-03-30","dy":"23","event":"CM START: PARACETAMOL","domain":"CM","category":"concomitant_med"},{"dtc":"2024-04-03","dy":"27","event":"DEVIATION: VISIT OCCURRED OUTSIDE VISIT WINDOW","domain":"DV","category":"deviation"},{"dtc":"2024-04-03","dy":"27","event":"VISIT: WEEK 4","domain":"SV","category":"visit"},{"dtc":"2024-04-08","dy":"32","event":"AE: Fatigue (MILD)","domain":"AE","category":"adverse_event"},{"dtc":"2024-04-08","dy":"32","event":"DEVIATION: DOSE MODIFICATION","domain":"DV","category":"deviation"},{"dtc":"2024-04-16","dy":"40","event":"DEVIATION: MISSED DOSE","domain":"DV","category":"deviation"},{"dtc":"2024-04-26","dy":"50","event":"DEVIATION: MISSED DOSE","domain":"DV","category":"deviation"},{"dtc":"2024-04-30","dy":"54","event":"DEVIATION: VISIT OCCURRED OUTSIDE VISIT WINDOW","domain":"DV","category":"deviation"},{"dtc":"2024-04-30","dy":"54","event":"VISIT: WEEK 8","domain":"SV","category":"visit"},{"dtc":"2024-05-04","dy":"58","event":"LAST DOSE: GB001","domain":"EX","category":"exposure"},{"dtc":"2024-05-04","dy":"58","event":"AE: Upper respiratory tract infection (MODERATE)","domain":"AE","category":"adverse_event"},{"dtc":"2024-05-10","dy":"64","event":"ADVERSE EVENT","domain":"DS","category":"milestone"},{"dtc":"2024-05-10","dy":"64","event":"AE: Nasopharyngitis (SEVERE) [SERIOUS]","domain":"AE","category":"adverse_event"},{"dtc":"2024-05-10","dy":"64","event":"CM START: PARACETAMOL","domain":"CM","category":"concomitant_med"}],"section_1_demographics":{"usubjid":"GB001-ASTHMA-201-SITE001-0409","subjid":"0409","siteid":"SITE001","age":"53","ageu":"YEARS","sex":"F","race":"WHITE","ethnicity":"UNKNOWN","country":"USA","arm":"GB001 40mg QD","armcd":"GB40","actarm":"GB001 40mg QD","actarmcd":"GB40","randomization_date":null,"informed_consent_date":"2024-02-24","reference_start_date":"2024-03-08","reference_end_date":"2024-05-10","screen_failure":false,"death_flag":null,"death_date":null,"subject_characteristics":[{"testcd":"ALCUSE","test":"Alcohol Use","orres":"NON-DRINKER","stresc":"NON-DRINKER","visit":null,"dtc":"2024-02-24"},{"testcd":"BMI","test":"Body Mass Index","orres":"16.1","stresc":"16.1","visit":null,"dtc":"2024-02-24"},{"testcd":"DURDIS","test":"Duration of Disease","orres":"121 months","stresc":"121","visit":null,"dtc":"2024-02-24"},{"testcd":"TOBPKYR","test":"Tobacco Pack-Years","orres":"9","stresc":"9","visit":null,"dtc":"2024-02-24"},{"testcd":"TOBUSE","test":"Tobacco Use","orres":"FORMER SMOKER","stresc":"FORMER SMOKER","visit":null,"dtc":"2024-02-24"}]},"section_2_medical_history":{"items":[{"seq":"1","term":"GASTROESOPHAGEAL REFLUX DISEASE","decod":"GASTROESOPHAGEAL REFLUX DISEASE","cat":"GASTROINTESTINAL","scat":null,"presp":null,"occur":null,"status":null,"onset_dtc":"2014-02-26","end_dtc":"2019-12-07","visit":null}]},"section_3_inclusion_exclusion":{"criteria":[]},"section_4_trial_participation":{"visits":[{"visitnum":"1.0","visit":"SCREENING","start_dtc":"2024-01-17","end_dtc":"2024-01-17","updes":null},{"visitnum":"2.0","visit":"BASELINE","start_dtc":"2024-03-08","end_dtc":"2024-03-08","updes":null},{"visitnum":"3.0","visit":"WEEK 2","start_dtc":"2024-03-24","end_dtc":"2024-03-24","updes":null},{"visitnum":"4.0","visit":"WEEK 4","start_dtc":"2024-04-03","end_dtc":"2024-04-03","updes":null},{"visitnum":"5.0","visit":"WEEK 8","start_dtc":"2024-04-30","end_dtc":"2024-04-30","updes":null}],"epochs":[{"seq":"1","etcd":"SCRN","element":"Screening","start_dtc":"2024-02-09","end_dtc":"2024-03-08","updes":null},{"seq":"2","etcd":"TRT","element":"Treatment","start_dtc":"2024-03-08","end_dtc":"2024-05-10","updes":null}],"visit_count":5},"section_5_concomitant_medications":{"medications":[{"seq":"1","trt":"IBUPROFEN","decod":"IBUPROFEN","cat":"CONCOMITANT","dose":"400","doseu":null,"dosef":"PRN","route":"ORAL","indication":"SINUSITIS","start_dtc":"2024-03-27","end_dtc":"2024-04-09","ongoing":null,"visit":null},{"seq":"2","trt":"PARACETAMOL","decod":"PARACETAMOL","cat":"CONCOMITANT","dose":"500","doseu":null,"dosef":"PRN","route":"ORAL","indication":"NASOPHARYNGITIS","start_dtc":"2024-03-30","end_dtc":"2024-04-17","ongoing":null,"visit":null},{"seq":"3","trt":"PARACETAMOL","decod":"PARACETAMOL","cat":"CONCOMITANT","dose":"500","doseu":null,"dosef":"PRN","route":"ORAL","indication":"NASOPHARYNGITIS","start_dtc":"2024-05-10","end_dtc":"2024-05-10","ongoing":null,"visit":null}]},"section_6_exposure":{"exposure_as_administered":[{"seq":"1","trt":"GB001","dose":"40.0","doseu":null,"dosef":"QD","route":"ORAL","lot":null,"start_dtc":"2024-03-08","end_dtc":"2024-04-07","start_dy":"1","end_dy":"31","epoch":"TREATMENT","visit":null},{"seq":"2","trt":"GB001","dose":"20.0","doseu":null,"dosef":"QD","route":"ORAL","lot":null,"start_dtc":"2024-04-08","end_dtc":"2024-05-04","start_dy":"32","end_dy":"58","epoch":"TREATMENT","visit":null}],"exposure_as_collected":[{"seq":"1","trt":"GB001","dose":"40.0","doseu":null,"dosef":"QD","route":"ORAL","start_dtc":"2024-03-08","end_dtc":"2024-03-08","visit":"BASELINE"},{"seq":"2","trt":"GB001","dose":"40.0","doseu":null,"dosef":"QD","route":"ORAL","start_dtc":"2024-03-09","end_dtc":"2024-03-09","visit":"BASELINE"},{"seq":"3","trt":"GB001","dose":"40.0","doseu":null,"dosef":"QD","route":"ORAL","start_dtc":"2024-03-10","end_dtc":"2024-03-10","visit":"BASELINE"},{"seq":"4","trt":"GB001","dose":"40.0","doseu":null,"dosef":"QD","route":"ORAL","start_dtc":"2024-03-11","end_dtc":"2024-03-11","visit":"BASELINE"},{"seq":"5","trt":"GB001","dose":"40.0","doseu":null,"dosef":"QD","route":"ORAL","start_dtc":"2024-03-12","end_dtc":"2024-03-12","visit":null},{"seq":"6","trt":"GB001","dose":"40.0","doseu":null,"dosef":"QD","route":"ORAL","start_dtc":"2024-03-13","end_dtc":"2024-03-13","visit":null},{"seq":"7","trt":"GB001","dose":"40.0","doseu":null,"dosef":"QD","route":"ORAL","start_dtc":"2024-03-14","end_dtc":"2024-03-14","visit":null},{"seq":"8","trt":"GB001","dose":"40.0","doseu":null,"dosef":"QD","route":"ORAL","start_dtc":"2024-03-15","end_dtc":"2024-03-15","visit":null},{"seq":"9","trt":"GB001","dose":"40.0","doseu":null,"dosef":"QD","route":"ORAL","start_dtc":"2024-03-16","end_dtc":"2024-03-16","visit":null},{"seq":"10","trt":"GB001","dose":"40.0","doseu":null,"dosef":"QD","route":"ORAL","start_dtc":"2024-03-17","end_dtc":"2024-03-17","visit":null},{"seq":"11","trt":"GB001","dose":"40.0","doseu":null,"dosef":"QD","route":"ORAL","start_dtc":"2024-03-18","end_dtc":"2024-03-18","visit":null},{"seq":"12","trt":"GB001","dose":"40.0","doseu":null,"dosef":"QD","route":"ORAL","start_dtc":"2024-03-19","end_dtc":"2024-03-19","visit":"WEEK 2"},{"seq":"13","trt":"GB001","dose":"40.0","doseu":null,"dosef":"QD","route":"ORAL","start_dtc":"2024-03-20","end_dtc":"2024-03-20","visit":"WEEK 2"},{"seq":"14","trt":"GB001","dose":"40.0","doseu":null,"dosef":"QD","route":"ORAL","start_dtc":"2024-03-21","end_dtc":"2024-03-21","visit":"WEEK 2"},{"seq":"15","trt":"GB001","dose":"40.0","doseu":null,"dosef":"QD","route":"ORAL","start_dtc":"2024-03-22","end_dtc":"2024-03-22","visit":"WEEK 2"},{"seq":"16","trt":"GB001","dose":"40.0","doseu":null,"dosef":"QD","route":"ORAL","start_dtc":"2024-03-23","end_dtc":"2024-03-23","visit":"WEEK 2"},{"seq":"17","trt":"GB001","dose":"40.0","doseu":null,"dosef":"QD","route":"ORAL","start_dtc":"2024-03-24","end_dtc":"2024-03-24","visit":"WEEK 2"},{"seq":"18","trt":"GB001","dose":"40.0","doseu":null,"dosef":"QD","route":"ORAL","start_dtc":"2024-03-25","end_dtc":"2024-03-25","visit":"WEEK 2"},{"seq":"19","trt":"GB001","dose":"40.0","doseu":null,"dosef":"QD","route":"ORAL","start_dtc":"2024-03-26","end_dtc":"2024-03-26","visit":null},{"seq":"20","trt":"GB001","dose":"40.0","doseu":null,"dosef":"QD","route":"ORAL","start_dtc":"2024-03-27","end_dtc":"2024-03-27","visit":null},{"seq":"21","trt":"GB001","dose":"40.0","doseu":null,"dosef":"QD","route":"ORAL","start_dtc":"2024-03-28","end_dtc":"2024-03-28","visit":null},{"seq":"22","trt":"GB001","dose":"40.0","doseu":null,"dosef":"QD","route":"ORAL","start_dtc":"2024-03-29","end_dtc":"2024-03-29","visit":null},{"seq":"23","trt":"GB001","dose":"40.0","doseu":null,"dosef":"QD","route":"ORAL","start_dtc":"2024-03-30","end_dtc":"2024-03-30","visit":null},{"seq":"24","trt":"GB001","dose":"40.0","doseu":null,"dosef":"QD","route":"ORAL","start_dtc":"2024-03-31","end_dtc":"2024-03-31","visit":null},{"seq":"25","trt":"GB001","dose":"40.0","doseu":null,"dosef":"QD","route":"ORAL","start_dtc":"2024-04-01","end_dtc":"2024-04-01","visit":null},{"seq":"26","trt":"GB001","dose":"40.0","doseu":null,"dosef":"QD","route":"ORAL","start_dtc":"2024-04-02","end_dtc":"2024-04-02","visit":"WEEK 4"},{"seq":"27","trt":"GB001","dose":"40.0","doseu":null,"dosef":"QD","route":"ORAL","start_dtc":"2024-04-03","end_dtc":"2024-04-03","visit":"WEEK 4"},{"seq":"28","trt":"GB001","dose":"40.0","doseu":null,"dosef":"QD","route":"ORAL","start_dtc":"2024-04-04","end_dtc":"2024-04-04","visit":"WEEK 4"},{"seq":"29","trt":"GB001","dose":"40.0","doseu":null,"dosef":"QD","route":"ORAL","start_dtc":"2024-04-05","end_dtc":"2024-04-05","visit":"WEEK 4"},{"seq":"30","trt":"GB001","dose":"40.0","doseu":null,"dosef":"QD","route":"ORAL","start_dtc":"2024-04-06","end_dtc":"2024-04-06","visit":"WEEK 4"},{"seq":"31","trt":"GB001","dose":"40.0","doseu":null,"dosef":"QD","route":"ORAL","start_dtc":"2024-04-07","end_dtc":"2024-04-07","visit":"WEEK 4"},{"seq":"32","trt":"GB001","dose":"20.0","doseu":null,"dosef":"QD","route":"ORAL","start_dtc":"2024-04-08","end_dtc":"2024-04-08","visit":"WEEK 4"},{"seq":"33","trt":"GB001","dose":"20.0","doseu":null,"dosef":"QD","route":"ORAL","start_dtc":"2024-04-09","end_dtc":"2024-04-09","visit":null},{"seq":"34","trt":"GB001","dose":"20.0","doseu":null,"dosef":"QD","route":"ORAL","start_dtc":"2024-04-10","end_dtc":"2024-04-10","visit":null},{"seq":"35","trt":"GB001","dose":"20.0","doseu":null,"dosef":"QD","route":"ORAL","start_dtc":"2024-04-11","end_dtc":"2024-04-11","visit":null},{"seq":"36","trt":"GB001","dose":"20.0","doseu":null,"dosef":"QD","route":"ORAL","start_dtc":"2024-04-12","end_dtc":"2024-04-12","visit":null},{"seq":"37","trt":"GB001","dose":"20.0","doseu":null,"dosef":"QD","route":"ORAL","start_dtc":"2024-04-13","end_dtc":"2024-04-13","visit":null},{"seq":"38","trt":"GB001","dose":"20.0","doseu":null,"dosef":"QD","route":"ORAL","start_dtc":"2024-04-14","end_dtc":"2024-04-14","visit":null},{"seq":"39","trt":"GB001","dose":"20.0","doseu":null,"dosef":"QD","route":"ORAL","start_dtc":"2024-04-15","end_dtc":"2024-04-15","visit":null},{"seq":"40","trt":"GB001","dose":null,"doseu":null,"dosef":"QD","route":"ORAL","start_dtc":"2024-04-16","end_dtc":"2024-04-16","visit":null},{"seq":"41","trt":"GB001","dose":"20.0","doseu":null,"dosef":"QD","route":"ORAL","start_dtc":"2024-04-17","end_dtc":"2024-04-17","visit":null},{"seq":"42","trt":"GB001","dose":"20.0","doseu":null,"dosef":"QD","route":"ORAL","start_dtc":"2024-04-18","end_dtc":"2024-04-18","visit":null},{"seq":"43","trt":"GB001","dose":"20.0","doseu":null,"dosef":"QD","route":"ORAL","start_dtc":"2024-04-19","end_dtc":"2024-04-19","visit":null},{"seq":"44","trt":"GB001","dose":"20.0","doseu":null,"dosef":"QD","route":"ORAL","start_dtc":"2024-04-20","end_dtc":"2024-04-20","visit":null},{"seq":"45","trt":"GB001","dose":"20.0","doseu":null,"dosef":"QD","route":"ORAL","start_dtc":"2024-04-21","end_dtc":"2024-04-21","visit":null},{"seq":"46","trt":"GB001","dose":"20.0","doseu":null,"dosef":"QD","route":"ORAL","start_dtc":"2024-04-22","end_dtc":"2024-04-22","visit":null},{"seq":"47","trt":"GB001","dose":"20.0","doseu":null,"dosef":"QD","route":"ORAL","start_dtc":"2024-04-23","end_dtc":"2024-04-23","visit":null},{"seq":"48","trt":"GB001","dose":"20.0","doseu":null,"dosef":"QD","route":"ORAL","start_dtc":"2024-04-24","end_dtc":"2024-04-24","visit":null},{"seq":"49","trt":"GB001","dose":"20.0","doseu":null,"dosef":"QD","route":"ORAL","start_dtc":"2024-04-25","end_dtc":"2024-04-25","visit":null},{"seq":"50","trt":"GB001","dose":null,"doseu":null,"dosef":"QD","route":"ORAL","start_dtc":"2024-04-26","end_dtc":"2024-04-26","visit":null},{"seq":"51","trt":"GB001","dose":"20.0","doseu":null,"dosef":"QD","route":"ORAL","start_dtc":"2024-04-27","end_dtc":"2024-04-27","visit":null},{"seq":"52","trt":"GB001","dose":"20.0","doseu":null,"dosef":"QD","route":"ORAL","start_dtc":"2024-04-28","end_dtc":"2024-04-28","visit":null},{"seq":"53","trt":"GB001","dose":"20.0","doseu":null,"dosef":"QD","route":"ORAL","start_dtc":"2024-04-29","end_dtc":"2024-04-29","visit":null},{"seq":"54","trt":"GB001","dose":"20.0","doseu":null,"dosef":"QD","route":"ORAL","start_dtc":"2024-04-30","end_dtc":"2024-04-30","visit":"WEEK 8"},{"seq":"55","trt":"GB001","dose":"20.0","doseu":null,"dosef":"QD","route":"ORAL","start_dtc":"2024-05-01","end_dtc":"2024-05-01","visit":"WEEK 8"},{"seq":"56","trt":"GB001","dose":"20.0","doseu":null,"dosef":"QD","route":"ORAL","start_dtc":"2024-05-02","end_dtc":"2024-05-02","visit":"WEEK 8"},{"seq":"57","trt":"GB001","dose":"20.0","doseu":null,"dosef":"QD","route":"ORAL","start_dtc":"2024-05-03","end_dtc":"2024-05-03","visit":"WEEK 8"},{"seq":"58","trt":"GB001","dose":"20.0","doseu":null,"dosef":"QD","route":"ORAL","start_dtc":"2024-05-04","end_dtc":"2024-05-04","visit":"WEEK 8"}]},"section_7_adverse_events":{"summary":{"total_aes":6,"serious_aes":2,"fatal_aes":0,"by_severity":{"MODERATE":3,"SEVERE":2,"MILD":1},"by_soc":{"Gastrointestinal disorders":1,"Infections and infestations":4,"General disorders and administration site conditions":1}},"events":[{"seq":"1","term":"NAUSEA","decod":"Nausea","llt":"Nausea","hlt":"Nausea and vomiting symptoms","hlgt":"Gastrointestinal signs and symptoms","soc":"Gastrointestinal disorders","bodsys":"Gastrointestinal disorders","severity":"MODERATE","serious":"N","causality":"POSSIBLY RELATED","action_taken":"DOSE NOT CHANGED","outcome":"RECOVERED/RESOLVED","fatal":"N","hospitalization":"N","life_threatening":"N","onset_dtc":"2024-03-25","end_dtc":"2024-03-31","onset_dy":"18","end_dy":"24","duration":null,"epoch":"TREATMENT","visit":null,"supplemental":{"AETRTEM":"Y"}},{"seq":"2","term":"SINUSITIS","decod":"Sinusitis","llt":"Sinusitis","hlt":"Upper respiratory tract infections","hlgt":"Upper respiratory tract infections","soc":"Infections and infestations","bodsys":"Infections and infestations","severity":"SEVERE","serious":"Y","causality":"NOT RELATED","action_taken":"DOSE NOT CHANGED","outcome":"RECOVERED/RESOLVED","fatal":"N","hospitalization":"Y","life_threatening":"N","onset_dtc":"2024-03-27","end_dtc":"2024-05-10","onset_dy":"20","end_dy":"64","duration":null,"epoch":"TREATMENT","visit":null,"supplemental":{"AETRTEM":"Y"}},{"seq":"3","term":"NASOPHARYNGITIS","decod":"Nasopharyngitis","llt":"Nasopharyngitis","hlt":"Upper respiratory tract infections","hlgt":"Upper respiratory tract infections","soc":"Infections and infestations","bodsys":"Infections and infestations","severity":"MODERATE","serious":"N","causality":"NOT RELATED","action_taken":"DOSE NOT CHANGED","outcome":"RECOVERED/RESOLVED","fatal":"N","hospitalization":"N","life_threatening":"N","onset_dtc":"2024-03-30","end_dtc":"2024-04-03","onset_dy":"23","end_dy":"27","duration":null,"epoch":"TREATMENT","visit":null,"supplemental":{"AETRTEM":"Y"}},{"seq":"4","term":"FATIGUE","decod":"Fatigue","llt":"Fatigue","hlt":"Asthenic conditions","hlgt":"General system disorders NEC","soc":"General disorders and administration site conditions","bodsys":"General disorders and administration site conditions","severity":"MILD","serious":"N","causality":"PROBABLY RELATED","action_taken":"DOSE REDUCED","outcome":"RECOVERED/RESOLVED","fatal":"N","hospitalization":"N","life_threatening":"N","onset_dtc":"2024-04-08","end_dtc":"2024-04-14","onset_dy":"32","end_dy":"38","duration":null,"epoch":"TREATMENT","visit":null,"supplemental":{"AETRTEM":"Y"}},{"seq":"5","term":"UPPER RESPIRATORY TRACT INFECTION","decod":"Upper respiratory tract infection","llt":"Upper respiratory tract infection","hlt":"Upper respiratory tract infections","hlgt":"Upper respiratory tract infections","soc":"Infections and infestations","bodsys":"Infections and infestations","severity":"MODERATE","serious":"N","causality":"NOT RELATED","action_taken":"DOSE NOT CHANGED","outcome":"RECOVERED/RESOLVED","fatal":"N","hospitalization":"N","life_threatening":"N","onset_dtc":"2024-05-04","end_dtc":"2024-05-10","onset_dy":"58","end_dy":"64","duration":null,"epoch":"TREATMENT","visit":null,"supplemental":{"AETRTEM":"Y"}},{"seq":"6","term":"NASOPHARYNGITIS","decod":"Nasopharyngitis","llt":"Nasopharyngitis","hlt":"Upper respiratory tract infections","hlgt":"Upper respiratory tract infections","soc":"Infections and infestations","bodsys":"Infections and infestations","severity":"SEVERE","serious":"Y","causality":"PROBABLY RELATED","action_taken":"DRUG WITHDRAWN","outcome":"RECOVERING/RESOLVING","fatal":"N","hospitalization":"Y","life_threatening":"N","onset_dtc":"2024-05-10","end_dtc":"2024-05-10","onset_dy":"64","end_dy":"64","duration":null,"epoch":"TREATMENT","visit":null,"supplemental":{"AETRTEM":"Y"}}]},"section_8_laboratory_results":{"summary":{"total_records":35,"abnormal_count":5,"abnormal_pct":14.3},"shift_summary":[{"testcd":"ALT","baseline_value":9.14,"baseline_nrind":"NORMAL","worst_post_baseline_value":13.67,"worst_post_baseline_nrind":"NORMAL","worst_visit":"WEEK 8"},{"testcd":"AST","baseline_value":20.46,"baseline_nrind":"NORMAL","worst_post_baseline_value":22.32,"worst_post_baseline_nrind":"NORMAL","worst_visit":"WEEK 8"},{"testcd":"CREAT","baseline_value":50.48,"baseline_nrind":"NORMAL","worst_post_baseline_value":53.8,"worst_post_baseline_nrind":"NORMAL","worst_visit":"WEEK 4"},{"testcd":"GLUC","baseline_value":4.99,"baseline_nrind":"NORMAL","worst_post_baseline_value":4.9,"worst_post_baseline_nrind":"NORMAL","worst_visit":"WEEK 8"},{"testcd":"HGB","baseline_value":114.18,"baseline_nrind":"LOW","worst_post_baseline_value":111.52,"worst_post_baseline_nrind":"LOW","worst_visit":"WEEK 8"},{"testcd":"PLAT","baseline_value":178.41,"baseline_nrind":"NORMAL","worst_post_baseline_value":178.12,"worst_post_baseline_nrind":"NORMAL","worst_visit":"WEEK 2"},{"testcd":"WBC","baseline_value":6.63,"baseline_nrind":"NORMAL","worst_post_baseline_value":7.17,"worst_post_baseline_nrind":"NORMAL","worst_visit":"WEEK 8"}],"results":[{"seq":"1","testcd":"ALT","test":"Alanine Aminotransferase","cat":"CHEMISTRY","orres":"9.14","orresu":"U/L","stresc":"9.14","stresn":"9.14","stresu":"U/L","stnrlo":"7","stnrhi":"56","nrind":"NORMAL","fast":null,"dtc":"2024-01-17","dy":"-51","visit":"SCREENING","visitnum":"1.0","epoch":"SCREENING","spec":null,"method":null},{"seq":"2","testcd":"AST","test":"Aspartate Aminotransferase","cat":"CHEMISTRY","orres":"20.46","orresu":"U/L","stresc":"20.46","stresn":"20.46","stresu":"U/L","stnrlo":"10","stnrhi":"40","nrind":"NORMAL","fast":null,"dtc":"2024-01-17","dy":"-51","visit":"SCREENING","visitnum":"1.0","epoch":"SCREENING","spec":null,"method":null},{"seq":"3","testcd":"CREAT","test":"Creatinine","cat":"CHEMISTRY","orres":"50.48","orresu":"umol/L","stresc":"50.48","stresn":"50.48","stresu":"umol/L","stnrlo":"44","stnrhi":"80","nrind":"NORMAL","fast":null,"dtc":"2024-01-17","dy":"-51","visit":"SCREENING","visitnum":"1.0","epoch":"SCREENING","spec":null,"method":null},{"seq":"4","testcd":"GLUC","test":"Glucose","cat":"CHEMISTRY","orres":"4.99","orresu":"mmol/L","stresc":"4.99","stresn":"4.99","stresu":"mmol/L","stnrlo":"3.9","stnrhi":"5.6","nrind":"NORMAL","fast":null,"dtc":"2024-01-17","dy":"-51","visit":"SCREENING","visitnum":"1.0","epoch":"SCREENING","spec":null,"method":null},{"seq":"5","testcd":"HGB","test":"Hemoglobin","cat":"HEMATOLOGY","orres":"114.18","orresu":"g/L","stresc":"114.18","stresn":"114.18","stresu":"g/L","stnrlo":"120","stnrhi":"155","nrind":"LOW","fast":null,"dtc":"2024-01-17","dy":"-51","visit":"SCREENING","visitnum":"1.0","epoch":"SCREENING","spec":null,"method":null},{"seq":"6","testcd":"PLAT","test":"Platelets","cat":"HEMATOLOGY","orres":"178.41","orresu":"10^9/L","stresc":"178.41","stresn":"178.41","stresu":"10^9/L","stnrlo":"150","stnrhi":"400","nrind":"NORMAL","fast":null,"dtc":"2024-01-17","dy":"-51","visit":"SCREENING","visitnum":"1.0","epoch":"SCREENING","spec":null,"method":null},{"seq":"7","testcd":"WBC","test":"Leukocytes","cat":"HEMATOLOGY","orres":"6.63","orresu":"10^9/L","stresc":"6.63","stresn":"6.63","stresu":"10^9/L","stnrlo":"4.0","stnrhi":"11.0","nrind":"NORMAL","fast":null,"dtc":"2024-01-17","dy":"-51","visit":"SCREENING","visitnum":"1.0","epoch":"SCREENING","spec":null,"method":null},{"seq":"8","testcd":"ALT","test":"Alanine Aminotransferase","cat":"CHEMISTRY","orres":"9.97","orresu":"U/L","stresc":"9.97","stresn":"9.97","stresu":"U/L","stnrlo":"7","stnrhi":"56","nrind":"NORMAL","fast":null,"dtc":"2024-03-08","dy":"1","visit":"BASELINE","visitnum":"2.0","epoch":"TREATMENT","spec":null,"method":null},{"seq":"9","testcd":"AST","test":"Aspartate Aminotransferase","cat":"CHEMISTRY","orres":"17.99","orresu":"U/L","stresc":"17.99","stresn":"17.99","stresu":"U/L","stnrlo":"10","stnrhi":"40","nrind":"NORMAL","fast":null,"dtc":"2024-03-08","dy":"1","visit":"BASELINE","visitnum":"2.0","epoch":"TREATMENT","spec":null,"method":null},{"seq":"10","testcd":"CREAT","test":"Creatinine","cat":"CHEMISTRY","orres":"49.86","orresu":"umol/L","stresc":"49.86","stresn":"49.86","stresu":"umol/L","stnrlo":"44","stnrhi":"80","nrind":"NORMAL","fast":null,"dtc":"2024-03-08","dy":"1","visit":"BASELINE","visitnum":"2.0","epoch":"TREATMENT","spec":null,"method":null},{"seq":"11","testcd":"GLUC","test":"Glucose","cat":"CHEMISTRY","orres":"4.87","orresu":"mmol/L","stresc":"4.87","stresn":"4.87","stresu":"mmol/L","stnrlo":"3.9","stnrhi":"5.6","nrind":"NORMAL","fast":null,"dtc":"2024-03-08","dy":"1","visit":"BASELINE","visitnum":"2.0","epoch":"TREATMENT","spec":null,"method":null},{"seq":"12","testcd":"HGB","test":"Hemoglobin","cat":"HEMATOLOGY","orres":"114.32","orresu":"g/L","stresc":"114.32","stresn":"114.32","stresu":"g/L","stnrlo":"120","stnrhi":"155","nrind":"LOW","fast":null,"dtc":"2024-03-08","dy":"1","visit":"BASELINE","visitnum":"2.0","epoch":"TREATMENT","spec":null,"method":null},{"seq":"13","testcd":"PLAT","test":"Platelets","cat":"HEMATOLOGY","orres":"169.56","orresu":"10^9/L","stresc":"169.56","stresn":"169.56","stresu":"10^9/L","stnrlo":"150","stnrhi":"400","nrind":"NORMAL","fast":null,"dtc":"2024-03-08","dy":"1","visit":"BASELINE","visitnum":"2.0","epoch":"TREATMENT","spec":null,"method":null},{"seq":"14","testcd":"WBC","test":"Leukocytes","cat":"HEMATOLOGY","orres":"6.89","orresu":"10^9/L","stresc":"6.89","stresn":"6.89","stresu":"10^9/L","stnrlo":"4.0","stnrhi":"11.0","nrind":"NORMAL","fast":null,"dtc":"2024-03-08","dy":"1","visit":"BASELINE","visitnum":"2.0","epoch":"TREATMENT","spec":null,"method":null},{"seq":"15","testcd":"ALT","test":"Alanine Aminotransferase","cat":"CHEMISTRY","orres":"8.29","orresu":"U/L","stresc":"8.29","stresn":"8.29","stresu":"U/L","stnrlo":"7","stnrhi":"56","nrind":"NORMAL","fast":null,"dtc":"2024-03-24","dy":"17","visit":"WEEK 2","visitnum":"3.0","epoch":"TREATMENT","spec":null,"method":null},{"seq":"16","testcd":"AST","test":"Aspartate Aminotransferase","cat":"CHEMISTRY","orres":"19.4","orresu":"U/L","stresc":"19.4","stresn":"19.4","stresu":"U/L","stnrlo":"10","stnrhi":"40","nrind":"NORMAL","fast":null,"dtc":"2024-03-24","dy":"17","visit":"WEEK 2","visitnum":"3.0","epoch":"TREATMENT","spec":null,"method":null},{"seq":"17","testcd":"CREAT","test":"Creatinine","cat":"CHEMISTRY","orres":"52.82","orresu":"umol/L","stresc":"52.82","stresn":"52.82","stresu":"umol/L","stnrlo":"44","stnrhi":"80","nrind":"NORMAL","fast":null,"dtc":"2024-03-24","dy":"17","visit":"WEEK 2","visitnum":"3.0","epoch":"TREATMENT","spec":null,"method":null},{"seq":"18","testcd":"GLUC","test":"Glucose","cat":"CHEMISTRY","orres":"4.87","orresu":"mmol/L","stresc":"4.87","stresn":"4.87","stresu":"mmol/L","stnrlo":"3.9","stnrhi":"5.6","nrind":"NORMAL","fast":null,"dtc":"2024-03-24","dy":"17","visit":"WEEK 2","visitnum":"3.0","epoch":"TREATMENT","spec":null,"method":null},{"seq":"19","testcd":"HGB","test":"Hemoglobin","cat":"HEMATOLOGY","orres":"115.74","orresu":"g/L","stresc":"115.74","stresn":"115.74","stresu":"g/L","stnrlo":"120","stnrhi":"155","nrind":"LOW","fast":null,"dtc":"2024-03-24","dy":"17","visit":"WEEK 2","visitnum":"3.0","epoch":"TREATMENT","spec":null,"method":null},{"seq":"20","testcd":"PLAT","test":"Platelets","cat":"HEMATOLOGY","orres":"178.12","orresu":"10^9/L","stresc":"178.12","stresn":"178.12","stresu":"10^9/L","stnrlo":"150","stnrhi":"400","nrind":"NORMAL","fast":null,"dtc":"2024-03-24","dy":"17","visit":"WEEK 2","visitnum":"3.0","epoch":"TREATMENT","spec":null,"method":null},{"seq":"21","testcd":"WBC","test":"Leukocytes","cat":"HEMATOLOGY","orres":"6.99","orresu":"10^9/L","stresc":"6.99","stresn":"6.99","stresu":"10^9/L","stnrlo":"4.0","stnrhi":"11.0","nrind":"NORMAL","fast":null,"dtc":"2024-03-24","dy":"17","visit":"WEEK 2","visitnum":"3.0","epoch":"TREATMENT","spec":null,"method":null},{"seq":"22","testcd":"ALT","test":"Alanine Aminotransferase","cat":"CHEMISTRY","orres":"9.76","orresu":"U/L","stresc":"9.76","stresn":"9.76","stresu":"U/L","stnrlo":"7","stnrhi":"56","nrind":"NORMAL","fast":null,"dtc":"2024-04-03","dy":"27","visit":"WEEK 4","visitnum":"4.0","epoch":"TREATMENT","spec":null,"method":null},{"seq":"23","testcd":"AST","test":"Aspartate Aminotransferase","cat":"CHEMISTRY","orres":"20.61","orresu":"U/L","stresc":"20.61","stresn":"20.61","stresu":"U/L","stnrlo":"10","stnrhi":"40","nrind":"NORMAL","fast":null,"dtc":"2024-04-03","dy":"27","visit":"WEEK 4","visitnum":"4.0","epoch":"TREATMENT","spec":null,"method":null},{"seq":"24","testcd":"CREAT","test":"Creatinine","cat":"CHEMISTRY","orres":"53.8","orresu":"umol/L","stresc":"53.8","stresn":"53.8","stresu":"umol/L","stnrlo":"44","stnrhi":"80","nrind":"NORMAL","fast":null,"dtc":"2024-04-03","dy":"27","visit":"WEEK 4","visitnum":"4.0","epoch":"TREATMENT","spec":null,"method":null},{"seq":"25","testcd":"GLUC","test":"Glucose","cat":"CHEMISTRY","orres":"4.84","orresu":"mmol/L","stresc":"4.84","stresn":"4.84","stresu":"mmol/L","stnrlo":"3.9","stnrhi":"5.6","nrind":"NORMAL","fast":null,"dtc":"2024-04-03","dy":"27","visit":"WEEK 4","visitnum":"4.0","epoch":"TREATMENT","spec":null,"method":null},{"seq":"26","testcd":"HGB","test":"Hemoglobin","cat":"HEMATOLOGY","orres":"114.79","orresu":"g/L","stresc":"114.79","stresn":"114.79","stresu":"g/L","stnrlo":"120","stnrhi":"155","nrind":"LOW","fast":null,"dtc":"2024-04-03","dy":"27","visit":"WEEK 4","visitnum":"4.0","epoch":"TREATMENT","spec":null,"method":null},{"seq":"27","testcd":"PLAT","test":"Platelets","cat":"HEMATOLOGY","orres":"161.68","orresu":"10^9/L","stresc":"161.68","stresn":"161.68","stresu":"10^9/L","stnrlo":"150","stnrhi":"400","nrind":"NORMAL","fast":null,"dtc":"2024-04-03","dy":"27","visit":"WEEK 4","visitnum":"4.0","epoch":"TREATMENT","spec":null,"method":null},{"seq":"28","testcd":"WBC","test":"Leukocytes","cat":"HEMATOLOGY","orres":"7.11","orresu":"10^9/L","stresc":"7.11","stresn":"7.11","stresu":"10^9/L","stnrlo":"4.0","stnrhi":"11.0","nrind":"NORMAL","fast":null,"dtc":"2024-04-03","dy":"27","visit":"WEEK 4","visitnum":"4.0","epoch":"TREATMENT","spec":null,"method":null},{"seq":"29","testcd":"ALT","test":"Alanine Aminotransferase","cat":"CHEMISTRY","orres":"13.67","orresu":"U/L","stresc":"13.67","stresn":"13.67","stresu":"U/L","stnrlo":"7","stnrhi":"56","nrind":"NORMAL","fast":null,"dtc":"2024-04-30","dy":"54","visit":"WEEK 8","visitnum":"5.0","epoch":"TREATMENT","spec":null,"method":null},{"seq":"30","testcd":"AST","test":"Aspartate Aminotransferase","cat":"CHEMISTRY","orres":"22.32","orresu":"U/L","stresc":"22.32","stresn":"22.32","stresu":"U/L","stnrlo":"10","stnrhi":"40","nrind":"NORMAL","fast":null,"dtc":"2024-04-30","dy":"54","visit":"WEEK 8","visitnum":"5.0","epoch":"TREATMENT","spec":null,"method":null},{"seq":"31","testcd":"CREAT","test":"Creatinine","cat":"CHEMISTRY","orres":"53.62","orresu":"umol/L","stresc":"53.62","stresn":"53.62","stresu":"umol/L","stnrlo":"44","stnrhi":"80","nrind":"NORMAL","fast":null,"dtc":"2024-04-30","dy":"54","visit":"WEEK 8","visitnum":"5.0","epoch":"TREATMENT","spec":null,"method":null},{"seq":"32","testcd":"GLUC","test":"Glucose","cat":"CHEMISTRY","orres":"4.9","orresu":"mmol/L","stresc":"4.9","stresn":"4.9","stresu":"mmol/L","stnrlo":"3.9","stnrhi":"5.6","nrind":"NORMAL","fast":null,"dtc":"2024-04-30","dy":"54","visit":"WEEK 8","visitnum":"5.0","epoch":"TREATMENT","spec":null,"method":null},{"seq":"33","testcd":"HGB","test":"Hemoglobin","cat":"HEMATOLOGY","orres":"111.52","orresu":"g/L","stresc":"111.52","stresn":"111.52","stresu":"g/L","stnrlo":"120","stnrhi":"155","nrind":"LOW","fast":null,"dtc":"2024-04-30","dy":"54","visit":"WEEK 8","visitnum":"5.0","epoch":"TREATMENT","spec":null,"method":null},{"seq":"34","testcd":"PLAT","test":"Platelets","cat":"HEMATOLOGY","orres":"174.08","orresu":"10^9/L","stresc":"174.08","stresn":"174.08","stresu":"10^9/L","stnrlo":"150","stnrhi":"400","nrind":"NORMAL","fast":null,"dtc":"2024-04-30","dy":"54","visit":"WEEK 8","visitnum":"5.0","epoch":"TREATMENT","spec":null,"method":null},{"seq":"35","testcd":"WBC","test":"Leukocytes","cat":"HEMATOLOGY","orres":"7.17","orresu":"10^9/L","stresc":"7.17","stresn":"7.17","stresu":"10^9/L","stnrlo":"4.0","stnrhi":"11.0","nrind":"NORMAL","fast":null,"dtc":"2024-04-30","dy":"54","visit":"WEEK 8","visitnum":"5.0","epoch":"TREATMENT","spec":null,"method":null}]},"section_9_vital_signs":{"summary":{"total_records":39},"trends":{"BMI":[{"visit":"BASELINE","visitnum":"2.0","dtc":"2024-03-08","value":"19.6","unit":"kg/m2"},{"visit":"WEEK 2","visitnum":"3.0","dtc":"2024-03-24","value":"18.8","unit":"kg/m2"},{"visit":"WEEK 4","visitnum":"4.0","dtc":"2024-04-03","value":"19.0","unit":"kg/m2"},{"visit":"WEEK 8","visitnum":"5.0","dtc":"2024-04-30","value":"19.0","unit":"kg/m2"}],"DIABP":[{"visit":"SCREENING","visitnum":"1.0","dtc":"2024-01-17","value":"72.0","unit":"mmHg"},{"visit":"BASELINE","visitnum":"2.0","dtc":"2024-03-08","value":"71.5","unit":"mmHg"},{"visit":"WEEK 2","visitnum":"3.0","dtc":"2024-03-24","value":"71.2","unit":"mmHg"},{"visit":"WEEK 4","visitnum":"4.0","dtc":"2024-04-03","value":"69.5","unit":"mmHg"},{"visit":"WEEK 8","visitnum":"5.0","dtc":"2024-04-30","value":"67.6","unit":"mmHg"}],"HEIGHT":[{"visit":"SCREENING","visitnum":"1.0","dtc":"2024-01-17","value":"161.0","unit":"cm"},{"visit":"BASELINE","visitnum":"2.0","dtc":"2024-03-08","value":"160.7","unit":"cm"},{"visit":"WEEK 2","visitnum":"3.0","dtc":"2024-03-24","value":"159.3","unit":"cm"},{"visit":"WEEK 4","visitnum":"4.0","dtc":"2024-04-03","value":"158.5","unit":"cm"},{"visit":"WEEK 8","visitnum":"5.0","dtc":"2024-04-30","value":"159.0","unit":"cm"}],"PULSE":[{"visit":"SCREENING","visitnum":"1.0","dtc":"2024-01-17","value":"91.8","unit":"beats/min"},{"visit":"BASELINE","visitnum":"2.0","dtc":"2024-03-08","value":"96.8","unit":"beats/min"},{"visit":"WEEK 2","visitnum":"3.0","dtc":"2024-03-24","value":"96.5","unit":"beats/min"},{"visit":"WEEK 4","visitnum":"4.0","dtc":"2024-04-03","value":"94.1","unit":"beats/min"},{"visit":"WEEK 8","visitnum":"5.0","dtc":"2024-04-30","value":"100.4","unit":"beats/min"}],"RESP":[{"visit":"SCREENING","visitnum":"1.0","dtc":"2024-01-17","value":"16.8","unit":"breaths/min"},{"visit":"BASELINE","visitnum":"2.0","dtc":"2024-03-08","value":"16.5","unit":"breaths/min"},{"visit":"WEEK 2","visitnum":"3.0","dtc":"2024-03-24","value":"18.1","unit":"breaths/min"},{"visit":"WEEK 4","visitnum":"4.0","dtc":"2024-04-03","value":"17.2","unit":"breaths/min"},{"visit":"WEEK 8","visitnum":"5.0","dtc":"2024-04-30","value":"16.0","unit":"breaths/min"}],"SYSBP":[{"visit":"SCREENING","visitnum":"1.0","dtc":"2024-01-17","value":"118.4","unit":"mmHg"},{"visit":"BASELINE","visitnum":"2.0","dtc":"2024-03-08","value":"115.6","unit":"mmHg"},{"visit":"WEEK 2","visitnum":"3.0","dtc":"2024-03-24","value":"116.6","unit":"mmHg"},{"visit":"WEEK 4","visitnum":"4.0","dtc":"2024-04-03","value":"115.2","unit":"mmHg"},{"visit":"WEEK 8","visitnum":"5.0","dtc":"2024-04-30","value":"112.0","unit":"mmHg"}],"TEMP":[{"visit":"SCREENING","visitnum":"1.0","dtc":"2024-01-17","value":"36.9","unit":"C"},{"visit":"BASELINE","visitnum":"2.0","dtc":"2024-03-08","value":"37.0","unit":"C"},{"visit":"WEEK 2","visitnum":"3.0","dtc":"2024-03-24","value":"36.8","unit":"C"},{"visit":"WEEK 4","visitnum":"4.0","dtc":"2024-04-03","value":"36.7","unit":"C"},{"visit":"WEEK 8","visitnum":"5.0","dtc":"2024-04-30","value":"36.7","unit":"C"}],"WEIGHT":[{"visit":"BASELINE","visitnum":"2.0","dtc":"2024-03-08","value":"50.5","unit":"kg"},{"visit":"WEEK 2","visitnum":"3.0","dtc":"2024-03-24","value":"47.7","unit":"kg"},{"visit":"WEEK 4","visitnum":"4.0","dtc":"2024-04-03","value":"47.7","unit":"kg"},{"visit":"WEEK 8","visitnum":"5.0","dtc":"2024-04-30","value":"48.1","unit":"kg"}]},"results":[{"seq":"1","testcd":"DIABP","test":"Diastolic Blood Pressure","cat":null,"orres":"72.0","orresu":"mmHg","stresc":"72.0","stresn":"72.0","stresu":"mmHg","stnrlo":null,"stnrhi":null,"nrind":null,"pos":null,"loc":null,"dtc":"2024-01-17","dy":"-51","visit":"SCREENING","visitnum":"1.0","epoch":"SCREENING"},{"seq":"2","testcd":"HEIGHT","test":"Height","cat":null,"orres":"161.0","orresu":"cm","stresc":"161.0","stresn":"161.0","stresu":"cm","stnrlo":null,"stnrhi":null,"nrind":null,"pos":null,"loc":null,"dtc":"2024-01-17","dy":"-51","visit":"SCREENING","visitnum":"1.0","epoch":"SCREENING"},{"seq":"3","testcd":"PULSE","test":"Pulse Rate","cat":null,"orres":"91.8","orresu":"beats/min","stresc":"91.8","stresn":"91.8","stresu":"beats/min","stnrlo":null,"stnrhi":null,"nrind":null,"pos":null,"loc":null,"dtc":"2024-01-17","dy":"-51","visit":"SCREENING","visitnum":"1.0","epoch":"SCREENING"},{"seq":"4","testcd":"RESP","test":"Respiratory Rate","cat":null,"orres":"16.8","orresu":"breaths/min","stresc":"16.8","stresn":"16.8","stresu":"breaths/min","stnrlo":null,"stnrhi":null,"nrind":null,"pos":null,"loc":null,"dtc":"2024-01-17","dy":"-51","visit":"SCREENING","visitnum":"1.0","epoch":"SCREENING"},{"seq":"5","testcd":"SYSBP","test":"Systolic Blood Pressure","cat":null,"orres":"118.4","orresu":"mmHg","stresc":"118.4","stresn":"118.4","stresu":"mmHg","stnrlo":null,"stnrhi":null,"nrind":null,"pos":null,"loc":null,"dtc":"2024-01-17","dy":"-51","visit":"SCREENING","visitnum":"1.0","epoch":"SCREENING"},{"seq":"6","testcd":"TEMP","test":"Temperature","cat":null,"orres":"36.9","orresu":"C","stresc":"36.9","stresn":"36.9","stresu":"C","stnrlo":null,"stnrhi":null,"nrind":null,"pos":null,"loc":null,"dtc":"2024-01-17","dy":"-51","visit":"SCREENING","visitnum":"1.0","epoch":"SCREENING"},{"seq":"7","testcd":"WEIGHT","test":"Weight","cat":null,"orres":null,"orresu":null,"stresc":null,"stresn":null,"stresu":null,"stnrlo":null,"stnrhi":null,"nrind":null,"pos":null,"loc":null,"dtc":"2024-01-17","dy":"-51","visit":"SCREENING","visitnum":"1.0","epoch":"SCREENING"},{"seq":"8","testcd":"BMI","test":"BMI","cat":null,"orres":"19.6","orresu":"kg/m2","stresc":"19.6","stresn":"19.6","stresu":"kg/m2","stnrlo":null,"stnrhi":null,"nrind":null,"pos":null,"loc":null,"dtc":"2024-03-08","dy":"1","visit":"BASELINE","visitnum":"2.0","epoch":"TREATMENT"},{"seq":"9","testcd":"DIABP","test":"Diastolic Blood Pressure","cat":null,"orres":"71.5","orresu":"mmHg","stresc":"71.5","stresn":"71.5","stresu":"mmHg","stnrlo":null,"stnrhi":null,"nrind":null,"pos":null,"loc":null,"dtc":"2024-03-08","dy":"1","visit":"BASELINE","visitnum":"2.0","epoch":"TREATMENT"},{"seq":"10","testcd":"HEIGHT","test":"Height","cat":null,"orres":"160.7","orresu":"cm","stresc":"160.7","stresn":"160.7","stresu":"cm","stnrlo":null,"stnrhi":null,"nrind":null,"pos":null,"loc":null,"dtc":"2024-03-08","dy":"1","visit":"BASELINE","visitnum":"2.0","epoch":"TREATMENT"},{"seq":"11","testcd":"PULSE","test":"Pulse Rate","cat":null,"orres":"96.8","orresu":"beats/min","stresc":"96.8","stresn":"96.8","stresu":"beats/min","stnrlo":null,"stnrhi":null,"nrind":null,"pos":null,"loc":null,"dtc":"2024-03-08","dy":"1","visit":"BASELINE","visitnum":"2.0","epoch":"TREATMENT"},{"seq":"12","testcd":"RESP","test":"Respiratory Rate","cat":null,"orres":"16.5","orresu":"breaths/min","stresc":"16.5","stresn":"16.5","stresu":"breaths/min","stnrlo":null,"stnrhi":null,"nrind":null,"pos":null,"loc":null,"dtc":"2024-03-08","dy":"1","visit":"BASELINE","visitnum":"2.0","epoch":"TREATMENT"},{"seq":"13","testcd":"SYSBP","test":"Systolic Blood Pressure","cat":null,"orres":"115.6","orresu":"mmHg","stresc":"115.6","stresn":"115.6","stresu":"mmHg","stnrlo":null,"stnrhi":null,"nrind":null,"pos":null,"loc":null,"dtc":"2024-03-08","dy":"1","visit":"BASELINE","visitnum":"2.0","epoch":"TREATMENT"},{"seq":"14","testcd":"TEMP","test":"Temperature","cat":null,"orres":"37.0","orresu":"C","stresc":"37.0","stresn":"37.0","stresu":"C","stnrlo":null,"stnrhi":null,"nrind":null,"pos":null,"loc":null,"dtc":"2024-03-08","dy":"1","visit":"BASELINE","visitnum":"2.0","epoch":"TREATMENT"},{"seq":"15","testcd":"WEIGHT","test":"Weight","cat":null,"orres":"50.5","orresu":"kg","stresc":"50.5","stresn":"50.5","stresu":"kg","stnrlo":null,"stnrhi":null,"nrind":null,"pos":null,"loc":null,"dtc":"2024-03-08","dy":"1","visit":"BASELINE","visitnum":"2.0","epoch":"TREATMENT"},{"seq":"16","testcd":"BMI","test":"BMI","cat":null,"orres":"18.8","orresu":"kg/m2","stresc":"18.8","stresn":"18.8","stresu":"kg/m2","stnrlo":null,"stnrhi":null,"nrind":null,"pos":null,"loc":null,"dtc":"2024-03-24","dy":"17","visit":"WEEK 2","visitnum":"3.0","epoch":"TREATMENT"},{"seq":"17","testcd":"DIABP","test":"Diastolic Blood Pressure","cat":null,"orres":"71.2","orresu":"mmHg","stresc":"71.2","stresn":"71.2","stresu":"mmHg","stnrlo":null,"stnrhi":null,"nrind":null,"pos":null,"loc":null,"dtc":"2024-03-24","dy":"17","visit":"WEEK 2","visitnum":"3.0","epoch":"TREATMENT"},{"seq":"18","testcd":"HEIGHT","test":"Height","cat":null,"orres":"159.3","orresu":"cm","stresc":"159.3","stresn":"159.3","stresu":"cm","stnrlo":null,"stnrhi":null,"nrind":null,"pos":null,"loc":null,"dtc":"2024-03-24","dy":"17","visit":"WEEK 2","visitnum":"3.0","epoch":"TREATMENT"},{"seq":"19","testcd":"PULSE","test":"Pulse Rate","cat":null,"orres":"96.5","orresu":"beats/min","stresc":"96.5","stresn":"96.5","stresu":"beats/min","stnrlo":null,"stnrhi":null,"nrind":null,"pos":null,"loc":null,"dtc":"2024-03-24","dy":"17","visit":"WEEK 2","visitnum":"3.0","epoch":"TREATMENT"},{"seq":"20","testcd":"RESP","test":"Respiratory Rate","cat":null,"orres":"18.1","orresu":"breaths/min","stresc":"18.1","stresn":"18.1","stresu":"breaths/min","stnrlo":null,"stnrhi":null,"nrind":null,"pos":null,"loc":null,"dtc":"2024-03-24","dy":"17","visit":"WEEK 2","visitnum":"3.0","epoch":"TREATMENT"},{"seq":"21","testcd":"SYSBP","test":"Systolic Blood Pressure","cat":null,"orres":"116.6","orresu":"mmHg","stresc":"116.6","stresn":"116.6","stresu":"mmHg","stnrlo":null,"stnrhi":null,"nrind":null,"pos":null,"loc":null,"dtc":"2024-03-24","dy":"17","visit":"WEEK 2","visitnum":"3.0","epoch":"TREATMENT"},{"seq":"22","testcd":"TEMP","test":"Temperature","cat":null,"orres":"36.8","orresu":"C","stresc":"36.8","stresn":"36.8","stresu":"C","stnrlo":null,"stnrhi":null,"nrind":null,"pos":null,"loc":null,"dtc":"2024-03-24","dy":"17","visit":"WEEK 2","visitnum":"3.0","epoch":"TREATMENT"},{"seq":"23","testcd":"WEIGHT","test":"Weight","cat":null,"orres":"47.7","orresu":"kg","stresc":"47.7","stresn":"47.7","stresu":"kg","stnrlo":null,"stnrhi":null,"nrind":null,"pos":null,"loc":null,"dtc":"2024-03-24","dy":"17","visit":"WEEK 2","visitnum":"3.0","epoch":"TREATMENT"},{"seq":"24","testcd":"BMI","test":"BMI","cat":null,"orres":"19.0","orresu":"kg/m2","stresc":"19.0","stresn":"19.0","stresu":"kg/m2","stnrlo":null,"stnrhi":null,"nrind":null,"pos":null,"loc":null,"dtc":"2024-04-03","dy":"27","visit":"WEEK 4","visitnum":"4.0","epoch":"TREATMENT"},{"seq":"25","testcd":"DIABP","test":"Diastolic Blood Pressure","cat":null,"orres":"69.5","orresu":"mmHg","stresc":"69.5","stresn":"69.5","stresu":"mmHg","stnrlo":null,"stnrhi":null,"nrind":null,"pos":null,"loc":null,"dtc":"2024-04-03","dy":"27","visit":"WEEK 4","visitnum":"4.0","epoch":"TREATMENT"},{"seq":"26","testcd":"HEIGHT","test":"Height","cat":null,"orres":"158.5","orresu":"cm","stresc":"158.5","stresn":"158.5","stresu":"cm","stnrlo":null,"stnrhi":null,"nrind":null,"pos":null,"loc":null,"dtc":"2024-04-03","dy":"27","visit":"WEEK 4","visitnum":"4.0","epoch":"TREATMENT"},{"seq":"27","testcd":"PULSE","test":"Pulse Rate","cat":null,"orres":"94.1","orresu":"beats/min","stresc":"94.1","stresn":"94.1","stresu":"beats/min","stnrlo":null,"stnrhi":null,"nrind":null,"pos":null,"loc":null,"dtc":"2024-04-03","dy":"27","visit":"WEEK 4","visitnum":"4.0","epoch":"TREATMENT"},{"seq":"28","testcd":"RESP","test":"Respiratory Rate","cat":null,"orres":"17.2","orresu":"breaths/min","stresc":"17.2","stresn":"17.2","stresu":"breaths/min","stnrlo":null,"stnrhi":null,"nrind":null,"pos":null,"loc":null,"dtc":"2024-04-03","dy":"27","visit":"WEEK 4","visitnum":"4.0","epoch":"TREATMENT"},{"seq":"29","testcd":"SYSBP","test":"Systolic Blood Pressure","cat":null,"orres":"115.2","orresu":"mmHg","stresc":"115.2","stresn":"115.2","stresu":"mmHg","stnrlo":null,"stnrhi":null,"nrind":null,"pos":null,"loc":null,"dtc":"2024-04-03","dy":"27","visit":"WEEK 4","visitnum":"4.0","epoch":"TREATMENT"},{"seq":"30","testcd":"TEMP","test":"Temperature","cat":null,"orres":"36.7","orresu":"C","stresc":"36.7","stresn":"36.7","stresu":"C","stnrlo":null,"stnrhi":null,"nrind":null,"pos":null,"loc":null,"dtc":"2024-04-03","dy":"27","visit":"WEEK 4","visitnum":"4.0","epoch":"TREATMENT"},{"seq":"31","testcd":"WEIGHT","test":"Weight","cat":null,"orres":"47.7","orresu":"kg","stresc":"47.7","stresn":"47.7","stresu":"kg","stnrlo":null,"stnrhi":null,"nrind":null,"pos":null,"loc":null,"dtc":"2024-04-03","dy":"27","visit":"WEEK 4","visitnum":"4.0","epoch":"TREATMENT"},{"seq":"32","testcd":"BMI","test":"BMI","cat":null,"orres":"19.0","orresu":"kg/m2","stresc":"19.0","stresn":"19.0","stresu":"kg/m2","stnrlo":null,"stnrhi":null,"nrind":null,"pos":null,"loc":null,"dtc":"2024-04-30","dy":"54","visit":"WEEK 8","visitnum":"5.0","epoch":"TREATMENT"},{"seq":"33","testcd":"DIABP","test":"Diastolic Blood Pressure","cat":null,"orres":"67.6","orresu":"mmHg","stresc":"67.6","stresn":"67.6","stresu":"mmHg","stnrlo":null,"stnrhi":null,"nrind":null,"pos":null,"loc":null,"dtc":"2024-04-30","dy":"54","visit":"WEEK 8","visitnum":"5.0","epoch":"TREATMENT"},{"seq":"34","testcd":"HEIGHT","test":"Height","cat":null,"orres":"159.0","orresu":"cm","stresc":"159.0","stresn":"159.0","stresu":"cm","stnrlo":null,"stnrhi":null,"nrind":null,"pos":null,"loc":null,"dtc":"2024-04-30","dy":"54","visit":"WEEK 8","visitnum":"5.0","epoch":"TREATMENT"},{"seq":"35","testcd":"PULSE","test":"Pulse Rate","cat":null,"orres":"100.4","orresu":"beats/min","stresc":"100.4","stresn":"100.4","stresu":"beats/min","stnrlo":null,"stnrhi":null,"nrind":null,"pos":null,"loc":null,"dtc":"2024-04-30","dy":"54","visit":"WEEK 8","visitnum":"5.0","epoch":"TREATMENT"},{"seq":"36","testcd":"RESP","test":"Respiratory Rate","cat":null,"orres":"16.0","orresu":"breaths/min","stresc":"16.0","stresn":"16.0","stresu":"breaths/min","stnrlo":null,"stnrhi":null,"nrind":null,"pos":null,"loc":null,"dtc":"2024-04-30","dy":"54","visit":"WEEK 8","visitnum":"5.0","epoch":"TREATMENT"},{"seq":"37","testcd":"SYSBP","test":"Systolic Blood Pressure","cat":null,"orres":"112.0","orresu":"mmHg","stresc":"112.0","stresn":"112.0","stresu":"mmHg","stnrlo":null,"stnrhi":null,"nrind":null,"pos":null,"loc":null,"dtc":"2024-04-30","dy":"54","visit":"WEEK 8","visitnum":"5.0","epoch":"TREATMENT"},{"seq":"38","testcd":"TEMP","test":"Temperature","cat":null,"orres":"36.7","orresu":"C","stresc":"36.7","stresn":"36.7","stresu":"C","stnrlo":null,"stnrhi":null,"nrind":null,"pos":null,"loc":null,"dtc":"2024-04-30","dy":"54","visit":"WEEK 8","visitnum":"5.0","epoch":"TREATMENT"},{"seq":"39","testcd":"WEIGHT","test":"Weight","cat":null,"orres":"48.1","orresu":"kg","stresc":"48.1","stresn":"48.1","stresu":"kg","stnrlo":null,"stnrhi":null,"nrind":null,"pos":null,"loc":null,"dtc":"2024-04-30","dy":"54","visit":"WEEK 8","visitnum":"5.0","epoch":"TREATMENT"}]},"section_10_questionnaires_and_scores":{"questionnaires":[],"findings_about":[]},"section_11_protocol_deviations":{"deviations":[{"seq":"1","term":"Visit WEEK 2 occurred 2 days late (Day 17 vs planned Day 15)","decod":"VISIT OCCURRED OUTSIDE VISIT WINDOW","cat":"MINOR","scat":"VISIT WINDOW","start_dtc":"2024-03-24","end_dtc":null,"visit":null},{"seq":"2","term":"Visit WEEK 4 occurred 2 days early (Day 27 vs planned Day 29)","decod":"VISIT OCCURRED OUTSIDE VISIT WINDOW","cat":"MINOR","scat":"VISIT WINDOW","start_dtc":"2024-04-03","end_dtc":null,"visit":null},{"seq":"3","term":"Dose modified from 40.0 to 20.0 mg","decod":"DOSE MODIFICATION","cat":"MINOR","scat":"DOSING","start_dtc":"2024-04-08","end_dtc":null,"visit":null},{"seq":"4","term":"Missed GB001 dose on 2024-04-16","decod":"MISSED DOSE","cat":"MINOR","scat":"DOSING","start_dtc":"2024-04-16","end_dtc":null,"visit":null},{"seq":"5","term":"Missed GB001 dose on 2024-04-26","decod":"MISSED DOSE","cat":"MINOR","scat":"DOSING","start_dtc":"2024-04-26","end_dtc":null,"visit":null},{"seq":"6","term":"Visit WEEK 8 occurred 3 days early (Day 54 vs planned Day 57)","decod":"VISIT OCCURRED OUTSIDE VISIT WINDOW","cat":"MINOR","scat":"VISIT WINDOW","start_dtc":"2024-04-30","end_dtc":null,"visit":null}],"total":6},"section_12_disposition":{"completion_status":"INFORMED CONSENT OBTAINED","disposition_records":[{"seq":"1","term":"INFORMED CONSENT OBTAINED","decod":"INFORMED CONSENT OBTAINED","cat":"PROTOCOL MILESTONE","scat":null,"dtc":"2024-02-24","dy":null,"visit":null,"epoch":"SCREENING"},{"seq":"2","term":"RANDOMIZED","decod":"RANDOMIZED","cat":"PROTOCOL MILESTONE","scat":null,"dtc":"2024-03-08","dy":null,"visit":null,"epoch":"TREATMENT"},{"seq":"3","term":"ADVERSE EVENT","decod":"ADVERSE EVENT","cat":"DISPOSITION EVENT","scat":null,"dtc":"2024-05-10","dy":null,"visit":null,"epoch":"TREATMENT"}],"death":null},"section_13_hospitalizations":{"items":[{"seq":"1","term":"Sinusitis","decod":"Sinusitis","cat":"HOSPITALIZATION","start_dtc":"2024-03-27","end_dtc":"2024-04-15","epoch":"TREATMENT"},{"seq":"2","term":"Nasopharyngitis","decod":"Nasopharyngitis","cat":"EMERGENCY ROOM VISIT","start_dtc":"2024-05-10","end_dtc":"2024-05-10","epoch":"TREATMENT"}],"total":2},"section_14_substance_use":{"items":[{"seq":"1","substance":"ALCOHOL","decod":"ALCOHOL","cat":"ALCOHOL","scat":null,"usage":"Y","dose":null,"dosu":null,"freq":null,"start_dtc":"2011-02-27","end_dtc":"2018-02-25"},{"seq":"2","substance":"COFFEE","decod":"COFFEE","cat":"CAFFEINE","scat":null,"usage":"N","dose":null,"dosu":null,"freq":null,"start_dtc":null,"end_dtc":null},{"seq":"3","substance":"CIGARETTES","decod":"CIGARETTES","cat":"TOBACCO","scat":"CIGARETTES","usage":"Y","dose":null,"dosu":null,"freq":null,"start_dtc":"1998-03-02","end_dtc":"2013-02-26"}],"total":3},"section_15_subject_status":{"items":[{"seq":"1","testcd":"SURVSTAT","test":"Survival Status","orres":"ALIVE","stresc":"ALIVE","dtc":"2024-05-10","visit":"END OF STUDY","epoch":"FOLLOW-UP"}],"total":1}}