{"subject_id":"GB001-ASTHMA-201-SITE001-0418","study_id":"GB001-ASTHMA-201","generated_at":"2026-06-16T07:22:28.416065+00:00","sdtmig_version":"3.4","flags":{"has_serious_ae":false,"has_fatal_ae":false,"has_protocol_deviation":true,"n_protocol_deviations":7,"n_adverse_events":2,"n_concomitant_meds":3,"max_ae_severity":"MODERATE","screen_failure":false,"discontinued_early":false,"discontinuation_reason":null,"death":false,"exposure_days":66},"timeline":[{"dtc":"2024-01-20","dy":"-51","event":"VISIT: SCREENING","domain":"SV","category":"visit"},{"dtc":"2024-02-28","dy":"-12","event":"INFORMED CONSENT OBTAINED","domain":"DS","category":"milestone"},{"dtc":"2024-03-11","dy":"1","event":"RANDOMIZED","domain":"DS","category":"milestone"},{"dtc":"2024-03-11","dy":"1","event":"FIRST DOSE: PLACEBO","domain":"EX","category":"exposure"},{"dtc":"2024-03-11","dy":"1","event":"VISIT: BASELINE","domain":"SV","category":"visit"},{"dtc":"2024-03-15","dy":"5","event":"DEVIATION: MISSED DOSE","domain":"DV","category":"deviation"},{"dtc":"2024-03-16","dy":"6","event":"AE: Sinusitis (MILD)","domain":"AE","category":"adverse_event"},{"dtc":"2024-03-16","dy":"6","event":"CM START: IBUPROFEN","domain":"CM","category":"concomitant_med"},{"dtc":"2024-03-24","dy":"14","event":"DEVIATION: MISSED ASSESSMENT","domain":"DV","category":"deviation"},{"dtc":"2024-03-24","dy":"14","event":"VISIT: WEEK 2","domain":"SV","category":"visit"},{"dtc":"2024-03-29","dy":"19","event":"DEVIATION: MISSED DOSE","domain":"DV","category":"deviation"},{"dtc":"2024-04-09","dy":"30","event":"VISIT: WEEK 4","domain":"SV","category":"visit"},{"dtc":"2024-04-17","dy":"38","event":"AE: Nasopharyngitis (MODERATE)","domain":"AE","category":"adverse_event"},{"dtc":"2024-04-17","dy":"38","event":"DEVIATION: MISSED DOSE","domain":"DV","category":"deviation"},{"dtc":"2024-04-17","dy":"38","event":"CM START: PARACETAMOL","domain":"CM","category":"concomitant_med"},{"dtc":"2024-05-04","dy":"55","event":"DEVIATION: VISIT OCCURRED OUTSIDE VISIT WINDOW","domain":"DV","category":"deviation"},{"dtc":"2024-05-04","dy":"55","event":"VISIT: WEEK 8","domain":"SV","category":"visit"},{"dtc":"2024-05-13","dy":"64","event":"DEVIATION: MISSED DOSE","domain":"DV","category":"deviation"},{"dtc":"2024-06-04","dy":"86","event":"DEVIATION: MISSED ASSESSMENT","domain":"DV","category":"deviation"},{"dtc":"2024-06-04","dy":"86","event":"VISIT: WEEK 12","domain":"SV","category":"visit"},{"dtc":"2024-07-07","dy":"119","event":"VISIT: FOLLOW-UP","domain":"SV","category":"visit"},{"dtc":"2024-07-25","dy":"137","event":"CM START: ASPIRIN","domain":"CM","category":"concomitant_med"},{"dtc":"2024-07-28","dy":"140","event":"COMPLETED","domain":"DS","category":"milestone"}],"section_1_demographics":{"usubjid":"GB001-ASTHMA-201-SITE001-0418","subjid":"0418","siteid":"SITE001","age":"40","ageu":"YEARS","sex":"M","race":"WHITE","ethnicity":"HISPANIC OR LATINO","country":"USA","arm":"Placebo","armcd":"PBO","actarm":"Placebo","actarmcd":"PBO","randomization_date":null,"informed_consent_date":"2024-02-28","reference_start_date":"2024-03-11","reference_end_date":"2024-07-28","screen_failure":false,"death_flag":null,"death_date":null,"subject_characteristics":[{"testcd":"ALCUSE","test":"Alcohol Use","orres":"CURRENT DRINKER","stresc":"CURRENT DRINKER","visit":null,"dtc":"2024-02-28"},{"testcd":"BMI","test":"Body Mass Index","orres":"26.3","stresc":"26.3","visit":null,"dtc":"2024-02-28"},{"testcd":"TOBPKYR","test":"Tobacco Pack-Years","orres":"32","stresc":"32","visit":null,"dtc":"2024-02-28"},{"testcd":"TOBUSE","test":"Tobacco Use","orres":"FORMER SMOKER","stresc":"FORMER SMOKER","visit":null,"dtc":"2024-02-28"}]},"section_2_medical_history":{"items":[]},"section_3_inclusion_exclusion":{"criteria":[]},"section_4_trial_participation":{"visits":[{"visitnum":"1.0","visit":"SCREENING","start_dtc":"2024-01-20","end_dtc":"2024-01-20","updes":null},{"visitnum":"2.0","visit":"BASELINE","start_dtc":"2024-03-11","end_dtc":"2024-03-11","updes":null},{"visitnum":"3.0","visit":"WEEK 2","start_dtc":"2024-03-24","end_dtc":"2024-03-24","updes":null},{"visitnum":"4.0","visit":"WEEK 4","start_dtc":"2024-04-09","end_dtc":"2024-04-09","updes":null},{"visitnum":"5.0","visit":"WEEK 8","start_dtc":"2024-05-04","end_dtc":"2024-05-04","updes":null},{"visitnum":"6.0","visit":"WEEK 12","start_dtc":"2024-06-04","end_dtc":"2024-06-04","updes":null},{"visitnum":"7.0","visit":"FOLLOW-UP","start_dtc":"2024-07-07","end_dtc":"2024-07-07","updes":null}],"epochs":[{"seq":"1","etcd":"SCRN","element":"Screening","start_dtc":"2024-02-12","end_dtc":"2024-03-11","updes":null},{"seq":"2","etcd":"TRT","element":"Treatment","start_dtc":"2024-03-11","end_dtc":"2024-06-03","updes":null},{"seq":"3","etcd":"FU","element":"Follow-up","start_dtc":"2024-06-03","end_dtc":"2024-06-30","updes":null}],"visit_count":7},"section_5_concomitant_medications":{"medications":[{"seq":"1","trt":"IBUPROFEN","decod":"IBUPROFEN","cat":"CONCOMITANT","dose":"400","doseu":null,"dosef":"PRN","route":"ORAL","indication":"SINUSITIS","start_dtc":"2024-03-16","end_dtc":"2024-04-05","ongoing":null,"visit":null},{"seq":"2","trt":"PARACETAMOL","decod":"PARACETAMOL","cat":"CONCOMITANT","dose":"500","doseu":null,"dosef":"PRN","route":"ORAL","indication":"NASOPHARYNGITIS","start_dtc":"2024-04-17","end_dtc":"2024-05-17","ongoing":null,"visit":null},{"seq":"3","trt":"ASPIRIN","decod":"ASPIRIN","cat":"CONCOMITANT","dose":null,"doseu":null,"dosef":"QD","route":"ORAL","indication":null,"start_dtc":"2024-07-25","end_dtc":"2024-07-28","ongoing":null,"visit":null}]},"section_6_exposure":{"exposure_as_administered":[{"seq":"1","trt":"PLACEBO","dose":"0.0","doseu":null,"dosef":"QD","route":"ORAL","lot":null,"start_dtc":"2024-03-11","end_dtc":"2024-05-16","start_dy":"1","end_dy":"67","epoch":"TREATMENT","visit":null}],"exposure_as_collected":[{"seq":"1","trt":"PLACEBO","dose":null,"doseu":null,"dosef":"QD","route":"ORAL","start_dtc":"2024-03-11","end_dtc":"2024-03-11","visit":"BASELINE"},{"seq":"2","trt":"PLACEBO","dose":null,"doseu":null,"dosef":"QD","route":"ORAL","start_dtc":"2024-03-12","end_dtc":"2024-03-12","visit":"BASELINE"},{"seq":"3","trt":"PLACEBO","dose":null,"doseu":null,"dosef":"QD","route":"ORAL","start_dtc":"2024-03-13","end_dtc":"2024-03-13","visit":"BASELINE"},{"seq":"4","trt":"PLACEBO","dose":null,"doseu":null,"dosef":"QD","route":"ORAL","start_dtc":"2024-03-14","end_dtc":"2024-03-14","visit":"BASELINE"},{"seq":"5","trt":"PLACEBO","dose":null,"doseu":null,"dosef":"QD","route":"ORAL","start_dtc":"2024-03-15","end_dtc":"2024-03-15","visit":null},{"seq":"6","trt":"PLACEBO","dose":null,"doseu":null,"dosef":"QD","route":"ORAL","start_dtc":"2024-03-16","end_dtc":"2024-03-16","visit":null},{"seq":"7","trt":"PLACEBO","dose":null,"doseu":null,"dosef":"QD","route":"ORAL","start_dtc":"2024-03-17","end_dtc":"2024-03-17","visit":null},{"seq":"8","trt":"PLACEBO","dose":null,"doseu":null,"dosef":"QD","route":"ORAL","start_dtc":"2024-03-18","end_dtc":"2024-03-18","visit":null},{"seq":"9","trt":"PLACEBO","dose":null,"doseu":null,"dosef":"QD","route":"ORAL","start_dtc":"2024-03-19","end_dtc":"2024-03-19","visit":null},{"seq":"10","trt":"PLACEBO","dose":null,"doseu":null,"dosef":"QD","route":"ORAL","start_dtc":"2024-03-20","end_dtc":"2024-03-20","visit":null},{"seq":"11","trt":"PLACEBO","dose":null,"doseu":null,"dosef":"QD","route":"ORAL","start_dtc":"2024-03-21","end_dtc":"2024-03-21","visit":null},{"seq":"12","trt":"PLACEBO","dose":null,"doseu":null,"dosef":"QD","route":"ORAL","start_dtc":"2024-03-22","end_dtc":"2024-03-22","visit":"WEEK 2"},{"seq":"13","trt":"PLACEBO","dose":null,"doseu":null,"dosef":"QD","route":"ORAL","start_dtc":"2024-03-23","end_dtc":"2024-03-23","visit":"WEEK 2"},{"seq":"14","trt":"PLACEBO","dose":null,"doseu":null,"dosef":"QD","route":"ORAL","start_dtc":"2024-03-24","end_dtc":"2024-03-24","visit":"WEEK 2"},{"seq":"15","trt":"PLACEBO","dose":null,"doseu":null,"dosef":"QD","route":"ORAL","start_dtc":"2024-03-25","end_dtc":"2024-03-25","visit":"WEEK 2"},{"seq":"16","trt":"PLACEBO","dose":null,"doseu":null,"dosef":"QD","route":"ORAL","start_dtc":"2024-03-26","end_dtc":"2024-03-26","visit":"WEEK 2"},{"seq":"17","trt":"PLACEBO","dose":null,"doseu":null,"dosef":"QD","route":"ORAL","start_dtc":"2024-03-27","end_dtc":"2024-03-27","visit":"WEEK 2"},{"seq":"18","trt":"PLACEBO","dose":null,"doseu":null,"dosef":"QD","route":"ORAL","start_dtc":"2024-03-28","end_dtc":"2024-03-28","visit":"WEEK 2"},{"seq":"19","trt":"PLACEBO","dose":null,"doseu":null,"dosef":"QD","route":"ORAL","start_dtc":"2024-03-29","end_dtc":"2024-03-29","visit":null},{"seq":"20","trt":"PLACEBO","dose":null,"doseu":null,"dosef":"QD","route":"ORAL","start_dtc":"2024-03-30","end_dtc":"2024-03-30","visit":null},{"seq":"21","trt":"PLACEBO","dose":null,"doseu":null,"dosef":"QD","route":"ORAL","start_dtc":"2024-03-31","end_dtc":"2024-03-31","visit":null},{"seq":"22","trt":"PLACEBO","dose":null,"doseu":null,"dosef":"QD","route":"ORAL","start_dtc":"2024-04-01","end_dtc":"2024-04-01","visit":null},{"seq":"23","trt":"PLACEBO","dose":null,"doseu":null,"dosef":"QD","route":"ORAL","start_dtc":"2024-04-02","end_dtc":"2024-04-02","visit":null},{"seq":"24","trt":"PLACEBO","dose":null,"doseu":null,"dosef":"QD","route":"ORAL","start_dtc":"2024-04-03","end_dtc":"2024-04-03","visit":null},{"seq":"25","trt":"PLACEBO","dose":null,"doseu":null,"dosef":"QD","route":"ORAL","start_dtc":"2024-04-04","end_dtc":"2024-04-04","visit":null},{"seq":"26","trt":"PLACEBO","dose":null,"doseu":null,"dosef":"QD","route":"ORAL","start_dtc":"2024-04-05","end_dtc":"2024-04-05","visit":"WEEK 4"},{"seq":"27","trt":"PLACEBO","dose":null,"doseu":null,"dosef":"QD","route":"ORAL","start_dtc":"2024-04-06","end_dtc":"2024-04-06","visit":"WEEK 4"},{"seq":"28","trt":"PLACEBO","dose":null,"doseu":null,"dosef":"QD","route":"ORAL","start_dtc":"2024-04-07","end_dtc":"2024-04-07","visit":"WEEK 4"},{"seq":"29","trt":"PLACEBO","dose":null,"doseu":null,"dosef":"QD","route":"ORAL","start_dtc":"2024-04-08","end_dtc":"2024-04-08","visit":"WEEK 4"},{"seq":"30","trt":"PLACEBO","dose":null,"doseu":null,"dosef":"QD","route":"ORAL","start_dtc":"2024-04-09","end_dtc":"2024-04-09","visit":"WEEK 4"},{"seq":"31","trt":"PLACEBO","dose":null,"doseu":null,"dosef":"QD","route":"ORAL","start_dtc":"2024-04-10","end_dtc":"2024-04-10","visit":"WEEK 4"},{"seq":"32","trt":"PLACEBO","dose":null,"doseu":null,"dosef":"QD","route":"ORAL","start_dtc":"2024-04-11","end_dtc":"2024-04-11","visit":"WEEK 4"},{"seq":"33","trt":"PLACEBO","dose":null,"doseu":null,"dosef":"QD","route":"ORAL","start_dtc":"2024-04-12","end_dtc":"2024-04-12","visit":null},{"seq":"34","trt":"PLACEBO","dose":null,"doseu":null,"dosef":"QD","route":"ORAL","start_dtc":"2024-04-13","end_dtc":"2024-04-13","visit":null},{"seq":"35","trt":"PLACEBO","dose":null,"doseu":null,"dosef":"QD","route":"ORAL","start_dtc":"2024-04-14","end_dtc":"2024-04-14","visit":null},{"seq":"36","trt":"PLACEBO","dose":null,"doseu":null,"dosef":"QD","route":"ORAL","start_dtc":"2024-04-15","end_dtc":"2024-04-15","visit":null},{"seq":"37","trt":"PLACEBO","dose":null,"doseu":null,"dosef":"QD","route":"ORAL","start_dtc":"2024-04-16","end_dtc":"2024-04-16","visit":null},{"seq":"38","trt":"PLACEBO","dose":null,"doseu":null,"dosef":"QD","route":"ORAL","start_dtc":"2024-04-17","end_dtc":"2024-04-17","visit":null},{"seq":"39","trt":"PLACEBO","dose":null,"doseu":null,"dosef":"QD","route":"ORAL","start_dtc":"2024-04-18","end_dtc":"2024-04-18","visit":null},{"seq":"40","trt":"PLACEBO","dose":null,"doseu":null,"dosef":"QD","route":"ORAL","start_dtc":"2024-04-19","end_dtc":"2024-04-19","visit":null},{"seq":"41","trt":"PLACEBO","dose":null,"doseu":null,"dosef":"QD","route":"ORAL","start_dtc":"2024-04-20","end_dtc":"2024-04-20","visit":null},{"seq":"42","trt":"PLACEBO","dose":null,"doseu":null,"dosef":"QD","route":"ORAL","start_dtc":"2024-04-21","end_dtc":"2024-04-21","visit":null},{"seq":"43","trt":"PLACEBO","dose":null,"doseu":null,"dosef":"QD","route":"ORAL","start_dtc":"2024-04-22","end_dtc":"2024-04-22","visit":null},{"seq":"44","trt":"PLACEBO","dose":null,"doseu":null,"dosef":"QD","route":"ORAL","start_dtc":"2024-04-23","end_dtc":"2024-04-23","visit":null},{"seq":"45","trt":"PLACEBO","dose":null,"doseu":null,"dosef":"QD","route":"ORAL","start_dtc":"2024-04-24","end_dtc":"2024-04-24","visit":null},{"seq":"46","trt":"PLACEBO","dose":null,"doseu":null,"dosef":"QD","route":"ORAL","start_dtc":"2024-04-25","end_dtc":"2024-04-25","visit":null},{"seq":"47","trt":"PLACEBO","dose":null,"doseu":null,"dosef":"QD","route":"ORAL","start_dtc":"2024-04-26","end_dtc":"2024-04-26","visit":null},{"seq":"48","trt":"PLACEBO","dose":null,"doseu":null,"dosef":"QD","route":"ORAL","start_dtc":"2024-04-27","end_dtc":"2024-04-27","visit":null},{"seq":"49","trt":"PLACEBO","dose":null,"doseu":null,"dosef":"QD","route":"ORAL","start_dtc":"2024-04-28","end_dtc":"2024-04-28","visit":null},{"seq":"50","trt":"PLACEBO","dose":null,"doseu":null,"dosef":"QD","route":"ORAL","start_dtc":"2024-04-29","end_dtc":"2024-04-29","visit":null},{"seq":"51","trt":"PLACEBO","dose":null,"doseu":null,"dosef":"QD","route":"ORAL","start_dtc":"2024-04-30","end_dtc":"2024-04-30","visit":null},{"seq":"52","trt":"PLACEBO","dose":null,"doseu":null,"dosef":"QD","route":"ORAL","start_dtc":"2024-05-01","end_dtc":"2024-05-01","visit":null},{"seq":"53","trt":"PLACEBO","dose":null,"doseu":null,"dosef":"QD","route":"ORAL","start_dtc":"2024-05-02","end_dtc":"2024-05-02","visit":null},{"seq":"54","trt":"PLACEBO","dose":null,"doseu":null,"dosef":"QD","route":"ORAL","start_dtc":"2024-05-03","end_dtc":"2024-05-03","visit":"WEEK 8"},{"seq":"55","trt":"PLACEBO","dose":null,"doseu":null,"dosef":"QD","route":"ORAL","start_dtc":"2024-05-04","end_dtc":"2024-05-04","visit":"WEEK 8"},{"seq":"56","trt":"PLACEBO","dose":null,"doseu":null,"dosef":"QD","route":"ORAL","start_dtc":"2024-05-05","end_dtc":"2024-05-05","visit":"WEEK 8"},{"seq":"57","trt":"PLACEBO","dose":null,"doseu":null,"dosef":"QD","route":"ORAL","start_dtc":"2024-05-06","end_dtc":"2024-05-06","visit":"WEEK 8"},{"seq":"58","trt":"PLACEBO","dose":null,"doseu":null,"dosef":"QD","route":"ORAL","start_dtc":"2024-05-07","end_dtc":"2024-05-07","visit":"WEEK 8"},{"seq":"59","trt":"PLACEBO","dose":null,"doseu":null,"dosef":"QD","route":"ORAL","start_dtc":"2024-05-08","end_dtc":"2024-05-08","visit":"WEEK 8"},{"seq":"60","trt":"PLACEBO","dose":null,"doseu":null,"dosef":"QD","route":"ORAL","start_dtc":"2024-05-09","end_dtc":"2024-05-09","visit":"WEEK 8"},{"seq":"61","trt":"PLACEBO","dose":null,"doseu":null,"dosef":"QD","route":"ORAL","start_dtc":"2024-05-10","end_dtc":"2024-05-10","visit":null},{"seq":"62","trt":"PLACEBO","dose":null,"doseu":null,"dosef":"QD","route":"ORAL","start_dtc":"2024-05-11","end_dtc":"2024-05-11","visit":null},{"seq":"63","trt":"PLACEBO","dose":null,"doseu":null,"dosef":"QD","route":"ORAL","start_dtc":"2024-05-12","end_dtc":"2024-05-12","visit":null},{"seq":"64","trt":"PLACEBO","dose":null,"doseu":null,"dosef":"QD","route":"ORAL","start_dtc":"2024-05-13","end_dtc":"2024-05-13","visit":null},{"seq":"65","trt":"PLACEBO","dose":null,"doseu":null,"dosef":"QD","route":"ORAL","start_dtc":"2024-05-14","end_dtc":"2024-05-14","visit":null},{"seq":"66","trt":"PLACEBO","dose":null,"doseu":null,"dosef":"QD","route":"ORAL","start_dtc":"2024-05-15","end_dtc":"2024-05-15","visit":null},{"seq":"67","trt":"PLACEBO","dose":null,"doseu":null,"dosef":"QD","route":"ORAL","start_dtc":"2024-05-16","end_dtc":"2024-05-16","visit":null}]},"section_7_adverse_events":{"summary":{"total_aes":2,"serious_aes":0,"fatal_aes":0,"by_severity":{"MILD":1,"MODERATE":1},"by_soc":{"Infections and infestations":2}},"events":[{"seq":"1","term":"SINUSITIS","decod":"Sinusitis","llt":"Sinusitis","hlt":"Upper respiratory tract infections","hlgt":"Upper respiratory tract infections","soc":"Infections and infestations","bodsys":"Infections and infestations","severity":"MILD","serious":"N","causality":"NOT RELATED","action_taken":"DOSE NOT CHANGED","outcome":"RECOVERED/RESOLVED","fatal":"N","hospitalization":"N","life_threatening":"N","onset_dtc":"2024-03-16","end_dtc":"2024-03-18","onset_dy":"6","end_dy":"8","duration":null,"epoch":"TREATMENT","visit":null,"supplemental":{"AETRTEM":"Y"}},{"seq":"2","term":"NASOPHARYNGITIS","decod":"Nasopharyngitis","llt":"Nasopharyngitis","hlt":"Upper respiratory tract infections","hlgt":"Upper respiratory tract infections","soc":"Infections and infestations","bodsys":"Infections and infestations","severity":"MODERATE","serious":"N","causality":"UNLIKELY RELATED","action_taken":"DOSE NOT CHANGED","outcome":"RECOVERED/RESOLVED","fatal":"N","hospitalization":"N","life_threatening":"N","onset_dtc":"2024-04-17","end_dtc":"2024-05-05","onset_dy":"38","end_dy":"56","duration":null,"epoch":"TREATMENT","visit":null,"supplemental":{"AETRTEM":"Y"}}]},"section_8_laboratory_results":{"summary":{"total_records":49,"abnormal_count":7,"abnormal_pct":14.3},"shift_summary":[{"testcd":"ALT","baseline_value":18.62,"baseline_nrind":"NORMAL","worst_post_baseline_value":18.39,"worst_post_baseline_nrind":"NORMAL","worst_visit":"WEEK 12"},{"testcd":"AST","baseline_value":23.53,"baseline_nrind":"NORMAL","worst_post_baseline_value":23.64,"worst_post_baseline_nrind":"NORMAL","worst_visit":"BASELINE"},{"testcd":"CREAT","baseline_value":49.66,"baseline_nrind":"LOW","worst_post_baseline_value":54.31,"worst_post_baseline_nrind":"LOW","worst_visit":"WEEK 12"},{"testcd":"GLUC","baseline_value":4.3,"baseline_nrind":"NORMAL","worst_post_baseline_value":4.4,"worst_post_baseline_nrind":"NORMAL","worst_visit":"FOLLOW-UP"},{"testcd":"HGB","baseline_value":161.88,"baseline_nrind":"NORMAL","worst_post_baseline_value":159.78,"worst_post_baseline_nrind":"NORMAL","worst_visit":"WEEK 2"},{"testcd":"PLAT","baseline_value":262.53,"baseline_nrind":"NORMAL","worst_post_baseline_value":275.06,"worst_post_baseline_nrind":"NORMAL","worst_visit":"BASELINE"},{"testcd":"WBC","baseline_value":8.67,"baseline_nrind":"NORMAL","worst_post_baseline_value":8.86,"worst_post_baseline_nrind":"NORMAL","worst_visit":"WEEK 8"}],"results":[{"seq":"1","testcd":"ALT","test":"Alanine Aminotransferase","cat":"CHEMISTRY","orres":"18.62","orresu":"U/L","stresc":"18.62","stresn":"18.62","stresu":"U/L","stnrlo":"7","stnrhi":"56","nrind":"NORMAL","fast":null,"dtc":"2024-01-20","dy":"-51","visit":"SCREENING","visitnum":"1.0","epoch":"SCREENING","spec":null,"method":null},{"seq":"2","testcd":"AST","test":"Aspartate Aminotransferase","cat":"CHEMISTRY","orres":"23.53","orresu":"U/L","stresc":"23.53","stresn":"23.53","stresu":"U/L","stnrlo":"10","stnrhi":"40","nrind":"NORMAL","fast":null,"dtc":"2024-01-20","dy":"-51","visit":"SCREENING","visitnum":"1.0","epoch":"SCREENING","spec":null,"method":null},{"seq":"3","testcd":"CREAT","test":"Creatinine","cat":"CHEMISTRY","orres":"49.66","orresu":"umol/L","stresc":"49.66","stresn":"49.66","stresu":"umol/L","stnrlo":"62","stnrhi":"106","nrind":"LOW","fast":null,"dtc":"2024-01-20","dy":"-51","visit":"SCREENING","visitnum":"1.0","epoch":"SCREENING","spec":null,"method":null},{"seq":"4","testcd":"GLUC","test":"Glucose","cat":"CHEMISTRY","orres":"4.3","orresu":"mmol/L","stresc":"4.3","stresn":"4.3","stresu":"mmol/L","stnrlo":"3.9","stnrhi":"5.6","nrind":"NORMAL","fast":null,"dtc":"2024-01-20","dy":"-51","visit":"SCREENING","visitnum":"1.0","epoch":"SCREENING","spec":null,"method":null},{"seq":"5","testcd":"HGB","test":"Hemoglobin","cat":"HEMATOLOGY","orres":"161.88","orresu":"g/L","stresc":"161.88","stresn":"161.88","stresu":"g/L","stnrlo":"130","stnrhi":"175","nrind":"NORMAL","fast":null,"dtc":"2024-01-20","dy":"-51","visit":"SCREENING","visitnum":"1.0","epoch":"SCREENING","spec":null,"method":null},{"seq":"6","testcd":"PLAT","test":"Platelets","cat":"HEMATOLOGY","orres":"262.53","orresu":"10^9/L","stresc":"262.53","stresn":"262.53","stresu":"10^9/L","stnrlo":"150","stnrhi":"400","nrind":"NORMAL","fast":null,"dtc":"2024-01-20","dy":"-51","visit":"SCREENING","visitnum":"1.0","epoch":"SCREENING","spec":null,"method":null},{"seq":"7","testcd":"WBC","test":"Leukocytes","cat":"HEMATOLOGY","orres":"8.67","orresu":"10^9/L","stresc":"8.67","stresn":"8.67","stresu":"10^9/L","stnrlo":"4.0","stnrhi":"11.0","nrind":"NORMAL","fast":null,"dtc":"2024-01-20","dy":"-51","visit":"SCREENING","visitnum":"1.0","epoch":"SCREENING","spec":null,"method":null},{"seq":"8","testcd":"ALT","test":"Alanine Aminotransferase","cat":"CHEMISTRY","orres":"17.05","orresu":"U/L","stresc":"17.05","stresn":"17.05","stresu":"U/L","stnrlo":"7","stnrhi":"56","nrind":"NORMAL","fast":null,"dtc":"2024-03-11","dy":"1","visit":"BASELINE","visitnum":"2.0","epoch":"TREATMENT","spec":null,"method":null},{"seq":"9","testcd":"AST","test":"Aspartate Aminotransferase","cat":"CHEMISTRY","orres":"23.64","orresu":"U/L","stresc":"23.64","stresn":"23.64","stresu":"U/L","stnrlo":"10","stnrhi":"40","nrind":"NORMAL","fast":null,"dtc":"2024-03-11","dy":"1","visit":"BASELINE","visitnum":"2.0","epoch":"TREATMENT","spec":null,"method":null},{"seq":"10","testcd":"CREAT","test":"Creatinine","cat":"CHEMISTRY","orres":"54.18","orresu":"umol/L","stresc":"54.18","stresn":"54.18","stresu":"umol/L","stnrlo":"62","stnrhi":"106","nrind":"LOW","fast":null,"dtc":"2024-03-11","dy":"1","visit":"BASELINE","visitnum":"2.0","epoch":"TREATMENT","spec":null,"method":null},{"seq":"11","testcd":"GLUC","test":"Glucose","cat":"CHEMISTRY","orres":"4.38","orresu":"mmol/L","stresc":"4.38","stresn":"4.38","stresu":"mmol/L","stnrlo":"3.9","stnrhi":"5.6","nrind":"NORMAL","fast":null,"dtc":"2024-03-11","dy":"1","visit":"BASELINE","visitnum":"2.0","epoch":"TREATMENT","spec":null,"method":null},{"seq":"12","testcd":"HGB","test":"Hemoglobin","cat":"HEMATOLOGY","orres":"161.49","orresu":"g/L","stresc":"161.49","stresn":"161.49","stresu":"g/L","stnrlo":"130","stnrhi":"175","nrind":"NORMAL","fast":null,"dtc":"2024-03-11","dy":"1","visit":"BASELINE","visitnum":"2.0","epoch":"TREATMENT","spec":null,"method":null},{"seq":"13","testcd":"PLAT","test":"Platelets","cat":"HEMATOLOGY","orres":"275.06","orresu":"10^9/L","stresc":"275.06","stresn":"275.06","stresu":"10^9/L","stnrlo":"150","stnrhi":"400","nrind":"NORMAL","fast":null,"dtc":"2024-03-11","dy":"1","visit":"BASELINE","visitnum":"2.0","epoch":"TREATMENT","spec":null,"method":null},{"seq":"14","testcd":"WBC","test":"Leukocytes","cat":"HEMATOLOGY","orres":"8.82","orresu":"10^9/L","stresc":"8.82","stresn":"8.82","stresu":"10^9/L","stnrlo":"4.0","stnrhi":"11.0","nrind":"NORMAL","fast":null,"dtc":"2024-03-11","dy":"1","visit":"BASELINE","visitnum":"2.0","epoch":"TREATMENT","spec":null,"method":null},{"seq":"15","testcd":"ALT","test":"Alanine Aminotransferase","cat":"CHEMISTRY","orres":"16.5","orresu":"U/L","stresc":"16.5","stresn":"16.5","stresu":"U/L","stnrlo":"7","stnrhi":"56","nrind":"NORMAL","fast":null,"dtc":"2024-03-24","dy":"14","visit":"WEEK 2","visitnum":"3.0","epoch":"TREATMENT","spec":null,"method":null},{"seq":"16","testcd":"AST","test":"Aspartate Aminotransferase","cat":"CHEMISTRY","orres":"22.56","orresu":"U/L","stresc":"22.56","stresn":"22.56","stresu":"U/L","stnrlo":"10","stnrhi":"40","nrind":"NORMAL","fast":null,"dtc":"2024-03-24","dy":"14","visit":"WEEK 2","visitnum":"3.0","epoch":"TREATMENT","spec":null,"method":null},{"seq":"17","testcd":"CREAT","test":"Creatinine","cat":"CHEMISTRY","orres":"52.37","orresu":"umol/L","stresc":"52.37","stresn":"52.37","stresu":"umol/L","stnrlo":"62","stnrhi":"106","nrind":"LOW","fast":null,"dtc":"2024-03-24","dy":"14","visit":"WEEK 2","visitnum":"3.0","epoch":"TREATMENT","spec":null,"method":null},{"seq":"18","testcd":"GLUC","test":"Glucose","cat":"CHEMISTRY","orres":"4.23","orresu":"mmol/L","stresc":"4.23","stresn":"4.23","stresu":"mmol/L","stnrlo":"3.9","stnrhi":"5.6","nrind":"NORMAL","fast":null,"dtc":"2024-03-24","dy":"14","visit":"WEEK 2","visitnum":"3.0","epoch":"TREATMENT","spec":null,"method":null},{"seq":"19","testcd":"HGB","test":"Hemoglobin","cat":"HEMATOLOGY","orres":"159.78","orresu":"g/L","stresc":"159.78","stresn":"159.78","stresu":"g/L","stnrlo":"130","stnrhi":"175","nrind":"NORMAL","fast":null,"dtc":"2024-03-24","dy":"14","visit":"WEEK 2","visitnum":"3.0","epoch":"TREATMENT","spec":null,"method":null},{"seq":"20","testcd":"PLAT","test":"Platelets","cat":"HEMATOLOGY","orres":"264.76","orresu":"10^9/L","stresc":"264.76","stresn":"264.76","stresu":"10^9/L","stnrlo":"150","stnrhi":"400","nrind":"NORMAL","fast":null,"dtc":"2024-03-24","dy":"14","visit":"WEEK 2","visitnum":"3.0","epoch":"TREATMENT","spec":null,"method":null},{"seq":"21","testcd":"WBC","test":"Leukocytes","cat":"HEMATOLOGY","orres":"8.24","orresu":"10^9/L","stresc":"8.24","stresn":"8.24","stresu":"10^9/L","stnrlo":"4.0","stnrhi":"11.0","nrind":"NORMAL","fast":null,"dtc":"2024-03-24","dy":"14","visit":"WEEK 2","visitnum":"3.0","epoch":"TREATMENT","spec":null,"method":null},{"seq":"22","testcd":"ALT","test":"Alanine Aminotransferase","cat":"CHEMISTRY","orres":"16.24","orresu":"U/L","stresc":"16.24","stresn":"16.24","stresu":"U/L","stnrlo":"7","stnrhi":"56","nrind":"NORMAL","fast":null,"dtc":"2024-04-09","dy":"30","visit":"WEEK 4","visitnum":"4.0","epoch":"TREATMENT","spec":null,"method":null},{"seq":"23","testcd":"AST","test":"Aspartate Aminotransferase","cat":"CHEMISTRY","orres":"22.46","orresu":"U/L","stresc":"22.46","stresn":"22.46","stresu":"U/L","stnrlo":"10","stnrhi":"40","nrind":"NORMAL","fast":null,"dtc":"2024-04-09","dy":"30","visit":"WEEK 4","visitnum":"4.0","epoch":"TREATMENT","spec":null,"method":null},{"seq":"24","testcd":"CREAT","test":"Creatinine","cat":"CHEMISTRY","orres":"47.84","orresu":"umol/L","stresc":"47.84","stresn":"47.84","stresu":"umol/L","stnrlo":"62","stnrhi":"106","nrind":"LOW","fast":null,"dtc":"2024-04-09","dy":"30","visit":"WEEK 4","visitnum":"4.0","epoch":"TREATMENT","spec":null,"method":null},{"seq":"25","testcd":"GLUC","test":"Glucose","cat":"CHEMISTRY","orres":"4.13","orresu":"mmol/L","stresc":"4.13","stresn":"4.13","stresu":"mmol/L","stnrlo":"3.9","stnrhi":"5.6","nrind":"NORMAL","fast":null,"dtc":"2024-04-09","dy":"30","visit":"WEEK 4","visitnum":"4.0","epoch":"TREATMENT","spec":null,"method":null},{"seq":"26","testcd":"HGB","test":"Hemoglobin","cat":"HEMATOLOGY","orres":"161.15","orresu":"g/L","stresc":"161.15","stresn":"161.15","stresu":"g/L","stnrlo":"130","stnrhi":"175","nrind":"NORMAL","fast":null,"dtc":"2024-04-09","dy":"30","visit":"WEEK 4","visitnum":"4.0","epoch":"TREATMENT","spec":null,"method":null},{"seq":"27","testcd":"PLAT","test":"Platelets","cat":"HEMATOLOGY","orres":"266.23","orresu":"10^9/L","stresc":"266.23","stresn":"266.23","stresu":"10^9/L","stnrlo":"150","stnrhi":"400","nrind":"NORMAL","fast":null,"dtc":"2024-04-09","dy":"30","visit":"WEEK 4","visitnum":"4.0","epoch":"TREATMENT","spec":null,"method":null},{"seq":"28","testcd":"WBC","test":"Leukocytes","cat":"HEMATOLOGY","orres":"8.36","orresu":"10^9/L","stresc":"8.36","stresn":"8.36","stresu":"10^9/L","stnrlo":"4.0","stnrhi":"11.0","nrind":"NORMAL","fast":null,"dtc":"2024-04-09","dy":"30","visit":"WEEK 4","visitnum":"4.0","epoch":"TREATMENT","spec":null,"method":null},{"seq":"29","testcd":"ALT","test":"Alanine Aminotransferase","cat":"CHEMISTRY","orres":"15.58","orresu":"U/L","stresc":"15.58","stresn":"15.58","stresu":"U/L","stnrlo":"7","stnrhi":"56","nrind":"NORMAL","fast":null,"dtc":"2024-05-04","dy":"55","visit":"WEEK 8","visitnum":"5.0","epoch":"TREATMENT","spec":null,"method":null},{"seq":"30","testcd":"AST","test":"Aspartate Aminotransferase","cat":"CHEMISTRY","orres":"22.84","orresu":"U/L","stresc":"22.84","stresn":"22.84","stresu":"U/L","stnrlo":"10","stnrhi":"40","nrind":"NORMAL","fast":null,"dtc":"2024-05-04","dy":"55","visit":"WEEK 8","visitnum":"5.0","epoch":"TREATMENT","spec":null,"method":null},{"seq":"31","testcd":"CREAT","test":"Creatinine","cat":"CHEMISTRY","orres":"54.04","orresu":"umol/L","stresc":"54.04","stresn":"54.04","stresu":"umol/L","stnrlo":"62","stnrhi":"106","nrind":"LOW","fast":null,"dtc":"2024-05-04","dy":"55","visit":"WEEK 8","visitnum":"5.0","epoch":"TREATMENT","spec":null,"method":null},{"seq":"32","testcd":"GLUC","test":"Glucose","cat":"CHEMISTRY","orres":"4.08","orresu":"mmol/L","stresc":"4.08","stresn":"4.08","stresu":"mmol/L","stnrlo":"3.9","stnrhi":"5.6","nrind":"NORMAL","fast":null,"dtc":"2024-05-04","dy":"55","visit":"WEEK 8","visitnum":"5.0","epoch":"TREATMENT","spec":null,"method":null},{"seq":"33","testcd":"HGB","test":"Hemoglobin","cat":"HEMATOLOGY","orres":"162.56","orresu":"g/L","stresc":"162.56","stresn":"162.56","stresu":"g/L","stnrlo":"130","stnrhi":"175","nrind":"NORMAL","fast":null,"dtc":"2024-05-04","dy":"55","visit":"WEEK 8","visitnum":"5.0","epoch":"TREATMENT","spec":null,"method":null},{"seq":"34","testcd":"PLAT","test":"Platelets","cat":"HEMATOLOGY","orres":"273.0","orresu":"10^9/L","stresc":"273.0","stresn":"273.0","stresu":"10^9/L","stnrlo":"150","stnrhi":"400","nrind":"NORMAL","fast":null,"dtc":"2024-05-04","dy":"55","visit":"WEEK 8","visitnum":"5.0","epoch":"TREATMENT","spec":null,"method":null},{"seq":"35","testcd":"WBC","test":"Leukocytes","cat":"HEMATOLOGY","orres":"8.86","orresu":"10^9/L","stresc":"8.86","stresn":"8.86","stresu":"10^9/L","stnrlo":"4.0","stnrhi":"11.0","nrind":"NORMAL","fast":null,"dtc":"2024-05-04","dy":"55","visit":"WEEK 8","visitnum":"5.0","epoch":"TREATMENT","spec":null,"method":null},{"seq":"36","testcd":"ALT","test":"Alanine Aminotransferase","cat":"CHEMISTRY","orres":"18.39","orresu":"U/L","stresc":"18.39","stresn":"18.39","stresu":"U/L","stnrlo":"7","stnrhi":"56","nrind":"NORMAL","fast":null,"dtc":"2024-06-04","dy":"86","visit":"WEEK 12","visitnum":"6.0","epoch":"TREATMENT","spec":null,"method":null},{"seq":"37","testcd":"AST","test":"Aspartate Aminotransferase","cat":"CHEMISTRY","orres":"20.61","orresu":"U/L","stresc":"20.61","stresn":"20.61","stresu":"U/L","stnrlo":"10","stnrhi":"40","nrind":"NORMAL","fast":null,"dtc":"2024-06-04","dy":"86","visit":"WEEK 12","visitnum":"6.0","epoch":"TREATMENT","spec":null,"method":null},{"seq":"38","testcd":"CREAT","test":"Creatinine","cat":"CHEMISTRY","orres":"54.31","orresu":"umol/L","stresc":"54.31","stresn":"54.31","stresu":"umol/L","stnrlo":"62","stnrhi":"106","nrind":"LOW","fast":null,"dtc":"2024-06-04","dy":"86","visit":"WEEK 12","visitnum":"6.0","epoch":"TREATMENT","spec":null,"method":null},{"seq":"39","testcd":"GLUC","test":"Glucose","cat":"CHEMISTRY","orres":"4.11","orresu":"mmol/L","stresc":"4.11","stresn":"4.11","stresu":"mmol/L","stnrlo":"3.9","stnrhi":"5.6","nrind":"NORMAL","fast":null,"dtc":"2024-06-04","dy":"86","visit":"WEEK 12","visitnum":"6.0","epoch":"TREATMENT","spec":null,"method":null},{"seq":"40","testcd":"HGB","test":"Hemoglobin","cat":"HEMATOLOGY","orres":"162.02","orresu":"g/L","stresc":"162.02","stresn":"162.02","stresu":"g/L","stnrlo":"130","stnrhi":"175","nrind":"NORMAL","fast":null,"dtc":"2024-06-04","dy":"86","visit":"WEEK 12","visitnum":"6.0","epoch":"TREATMENT","spec":null,"method":null},{"seq":"41","testcd":"PLAT","test":"Platelets","cat":"HEMATOLOGY","orres":"259.81","orresu":"10^9/L","stresc":"259.81","stresn":"259.81","stresu":"10^9/L","stnrlo":"150","stnrhi":"400","nrind":"NORMAL","fast":null,"dtc":"2024-06-04","dy":"86","visit":"WEEK 12","visitnum":"6.0","epoch":"TREATMENT","spec":null,"method":null},{"seq":"42","testcd":"WBC","test":"Leukocytes","cat":"HEMATOLOGY","orres":"8.82","orresu":"10^9/L","stresc":"8.82","stresn":"8.82","stresu":"10^9/L","stnrlo":"4.0","stnrhi":"11.0","nrind":"NORMAL","fast":null,"dtc":"2024-06-04","dy":"86","visit":"WEEK 12","visitnum":"6.0","epoch":"TREATMENT","spec":null,"method":null},{"seq":"43","testcd":"ALT","test":"Alanine Aminotransferase","cat":"CHEMISTRY","orres":"17.58","orresu":"U/L","stresc":"17.58","stresn":"17.58","stresu":"U/L","stnrlo":"7","stnrhi":"56","nrind":"NORMAL","fast":null,"dtc":"2024-07-07","dy":"119","visit":"FOLLOW-UP","visitnum":"7.0","epoch":"FOLLOW-UP","spec":null,"method":null},{"seq":"44","testcd":"AST","test":"Aspartate Aminotransferase","cat":"CHEMISTRY","orres":"21.12","orresu":"U/L","stresc":"21.12","stresn":"21.12","stresu":"U/L","stnrlo":"10","stnrhi":"40","nrind":"NORMAL","fast":null,"dtc":"2024-07-07","dy":"119","visit":"FOLLOW-UP","visitnum":"7.0","epoch":"FOLLOW-UP","spec":null,"method":null},{"seq":"45","testcd":"CREAT","test":"Creatinine","cat":"CHEMISTRY","orres":"53.58","orresu":"umol/L","stresc":"53.58","stresn":"53.58","stresu":"umol/L","stnrlo":"62","stnrhi":"106","nrind":"LOW","fast":null,"dtc":"2024-07-07","dy":"119","visit":"FOLLOW-UP","visitnum":"7.0","epoch":"FOLLOW-UP","spec":null,"method":null},{"seq":"46","testcd":"GLUC","test":"Glucose","cat":"CHEMISTRY","orres":"4.4","orresu":"mmol/L","stresc":"4.4","stresn":"4.4","stresu":"mmol/L","stnrlo":"3.9","stnrhi":"5.6","nrind":"NORMAL","fast":null,"dtc":"2024-07-07","dy":"119","visit":"FOLLOW-UP","visitnum":"7.0","epoch":"FOLLOW-UP","spec":null,"method":null},{"seq":"47","testcd":"HGB","test":"Hemoglobin","cat":"HEMATOLOGY","orres":"162.47","orresu":"g/L","stresc":"162.47","stresn":"162.47","stresu":"g/L","stnrlo":"130","stnrhi":"175","nrind":"NORMAL","fast":null,"dtc":"2024-07-07","dy":"119","visit":"FOLLOW-UP","visitnum":"7.0","epoch":"FOLLOW-UP","spec":null,"method":null},{"seq":"48","testcd":"PLAT","test":"Platelets","cat":"HEMATOLOGY","orres":"237.66","orresu":"10^9/L","stresc":"237.66","stresn":"237.66","stresu":"10^9/L","stnrlo":"150","stnrhi":"400","nrind":"NORMAL","fast":null,"dtc":"2024-07-07","dy":"119","visit":"FOLLOW-UP","visitnum":"7.0","epoch":"FOLLOW-UP","spec":null,"method":null},{"seq":"49","testcd":"WBC","test":"Leukocytes","cat":"HEMATOLOGY","orres":"8.59","orresu":"10^9/L","stresc":"8.59","stresn":"8.59","stresu":"10^9/L","stnrlo":"4.0","stnrhi":"11.0","nrind":"NORMAL","fast":null,"dtc":"2024-07-07","dy":"119","visit":"FOLLOW-UP","visitnum":"7.0","epoch":"FOLLOW-UP","spec":null,"method":null}]},"section_9_vital_signs":{"summary":{"total_records":56},"trends":{"BMI":[{"visit":"SCREENING","visitnum":"1.0","dtc":"2024-01-20","value":"26.3","unit":"kg/m2"},{"visit":"BASELINE","visitnum":"2.0","dtc":"2024-03-11","value":"25.7","unit":"kg/m2"},{"visit":"WEEK 2","visitnum":"3.0","dtc":"2024-03-24","value":"24.8","unit":"kg/m2"},{"visit":"WEEK 4","visitnum":"4.0","dtc":"2024-04-09","value":"25.1","unit":"kg/m2"},{"visit":"WEEK 8","visitnum":"5.0","dtc":"2024-05-04","value":"25.5","unit":"kg/m2"},{"visit":"WEEK 12","visitnum":"6.0","dtc":"2024-06-04","value":"25.8","unit":"kg/m2"},{"visit":"FOLLOW-UP","visitnum":"7.0","dtc":"2024-07-07","value":"27.0","unit":"kg/m2"}],"DIABP":[{"visit":"SCREENING","visitnum":"1.0","dtc":"2024-01-20","value":"73.9","unit":"mmHg"},{"visit":"BASELINE","visitnum":"2.0","dtc":"2024-03-11","value":"74.5","unit":"mmHg"},{"visit":"WEEK 2","visitnum":"3.0","dtc":"2024-03-24","value":"71.6","unit":"mmHg"},{"visit":"WEEK 4","visitnum":"4.0","dtc":"2024-04-09","value":"70.9","unit":"mmHg"},{"visit":"WEEK 8","visitnum":"5.0","dtc":"2024-05-04","value":"71.6","unit":"mmHg"},{"visit":"WEEK 12","visitnum":"6.0","dtc":"2024-06-04","value":"72.2","unit":"mmHg"},{"visit":"FOLLOW-UP","visitnum":"7.0","dtc":"2024-07-07","value":"73.8","unit":"mmHg"}],"HEIGHT":[{"visit":"SCREENING","visitnum":"1.0","dtc":"2024-01-20","value":"169.4","unit":"cm"},{"visit":"BASELINE","visitnum":"2.0","dtc":"2024-03-11","value":"168.8","unit":"cm"},{"visit":"WEEK 2","visitnum":"3.0","dtc":"2024-03-24","value":"169.3","unit":"cm"},{"visit":"WEEK 4","visitnum":"4.0","dtc":"2024-04-09","value":"169.3","unit":"cm"},{"visit":"WEEK 8","visitnum":"5.0","dtc":"2024-05-04","value":"169.3","unit":"cm"},{"visit":"WEEK 12","visitnum":"6.0","dtc":"2024-06-04","value":"168.7","unit":"cm"},{"visit":"FOLLOW-UP","visitnum":"7.0","dtc":"2024-07-07","value":"168.5","unit":"cm"}],"PULSE":[{"visit":"SCREENING","visitnum":"1.0","dtc":"2024-01-20","value":"97.3","unit":"beats/min"},{"visit":"BASELINE","visitnum":"2.0","dtc":"2024-03-11","value":"97.9","unit":"beats/min"},{"visit":"WEEK 2","visitnum":"3.0","dtc":"2024-03-24","value":"93.0","unit":"beats/min"},{"visit":"WEEK 4","visitnum":"4.0","dtc":"2024-04-09","value":"93.1","unit":"beats/min"},{"visit":"WEEK 8","visitnum":"5.0","dtc":"2024-05-04","value":"94.8","unit":"beats/min"},{"visit":"WEEK 12","visitnum":"6.0","dtc":"2024-06-04","value":"96.4","unit":"beats/min"},{"visit":"FOLLOW-UP","visitnum":"7.0","dtc":"2024-07-07","value":"100.8","unit":"beats/min"}],"RESP":[{"visit":"BASELINE","visitnum":"2.0","dtc":"2024-03-11","value":"16.2","unit":"breaths/min"},{"visit":"WEEK 2","visitnum":"3.0","dtc":"2024-03-24","value":"17.2","unit":"breaths/min"},{"visit":"WEEK 4","visitnum":"4.0","dtc":"2024-04-09","value":"18.7","unit":"breaths/min"},{"visit":"WEEK 8","visitnum":"5.0","dtc":"2024-05-04","value":"16.5","unit":"breaths/min"},{"visit":"FOLLOW-UP","visitnum":"7.0","dtc":"2024-07-07","value":"16.2","unit":"breaths/min"}],"SYSBP":[{"visit":"SCREENING","visitnum":"1.0","dtc":"2024-01-20","value":"117.3","unit":"mmHg"},{"visit":"BASELINE","visitnum":"2.0","dtc":"2024-03-11","value":"115.6","unit":"mmHg"},{"visit":"WEEK 2","visitnum":"3.0","dtc":"2024-03-24","value":"111.7","unit":"mmHg"},{"visit":"WEEK 4","visitnum":"4.0","dtc":"2024-04-09","value":"110.2","unit":"mmHg"},{"visit":"WEEK 8","visitnum":"5.0","dtc":"2024-05-04","value":"110.8","unit":"mmHg"},{"visit":"WEEK 12","visitnum":"6.0","dtc":"2024-06-04","value":"112.4","unit":"mmHg"},{"visit":"FOLLOW-UP","visitnum":"7.0","dtc":"2024-07-07","value":"113.9","unit":"mmHg"}],"TEMP":[{"visit":"SCREENING","visitnum":"1.0","dtc":"2024-01-20","value":"37.7","unit":"C"},{"visit":"BASELINE","visitnum":"2.0","dtc":"2024-03-11","value":"37.5","unit":"C"},{"visit":"WEEK 4","visitnum":"4.0","dtc":"2024-04-09","value":"37.4","unit":"C"},{"visit":"WEEK 8","visitnum":"5.0","dtc":"2024-05-04","value":"37.3","unit":"C"},{"visit":"WEEK 12","visitnum":"6.0","dtc":"2024-06-04","value":"37.2","unit":"C"},{"visit":"FOLLOW-UP","visitnum":"7.0","dtc":"2024-07-07","value":"37.2","unit":"C"}],"WEIGHT":[{"visit":"SCREENING","visitnum":"1.0","dtc":"2024-01-20","value":"75.4","unit":"kg"},{"visit":"BASELINE","visitnum":"2.0","dtc":"2024-03-11","value":"73.3","unit":"kg"},{"visit":"WEEK 2","visitnum":"3.0","dtc":"2024-03-24","value":"71.1","unit":"kg"},{"visit":"WEEK 4","visitnum":"4.0","dtc":"2024-04-09","value":"72.0","unit":"kg"},{"visit":"WEEK 8","visitnum":"5.0","dtc":"2024-05-04","value":"73.1","unit":"kg"},{"visit":"WEEK 12","visitnum":"6.0","dtc":"2024-06-04","value":"73.3","unit":"kg"},{"visit":"FOLLOW-UP","visitnum":"7.0","dtc":"2024-07-07","value":"76.6","unit":"kg"}]},"results":[{"seq":"1","testcd":"BMI","test":"BMI","cat":null,"orres":"26.3","orresu":"kg/m2","stresc":"26.3","stresn":"26.3","stresu":"kg/m2","stnrlo":null,"stnrhi":null,"nrind":null,"pos":null,"loc":null,"dtc":"2024-01-20","dy":"-51","visit":"SCREENING","visitnum":"1.0","epoch":"SCREENING"},{"seq":"2","testcd":"DIABP","test":"Diastolic Blood Pressure","cat":null,"orres":"73.9","orresu":"mmHg","stresc":"73.9","stresn":"73.9","stresu":"mmHg","stnrlo":null,"stnrhi":null,"nrind":null,"pos":null,"loc":null,"dtc":"2024-01-20","dy":"-51","visit":"SCREENING","visitnum":"1.0","epoch":"SCREENING"},{"seq":"3","testcd":"HEIGHT","test":"Height","cat":null,"orres":"169.4","orresu":"cm","stresc":"169.4","stresn":"169.4","stresu":"cm","stnrlo":null,"stnrhi":null,"nrind":null,"pos":null,"loc":null,"dtc":"2024-01-20","dy":"-51","visit":"SCREENING","visitnum":"1.0","epoch":"SCREENING"},{"seq":"4","testcd":"PULSE","test":"Pulse Rate","cat":null,"orres":"97.3","orresu":"beats/min","stresc":"97.3","stresn":"97.3","stresu":"beats/min","stnrlo":null,"stnrhi":null,"nrind":null,"pos":null,"loc":null,"dtc":"2024-01-20","dy":"-51","visit":"SCREENING","visitnum":"1.0","epoch":"SCREENING"},{"seq":"5","testcd":"RESP","test":"Respiratory Rate","cat":null,"orres":null,"orresu":null,"stresc":null,"stresn":null,"stresu":null,"stnrlo":null,"stnrhi":null,"nrind":null,"pos":null,"loc":null,"dtc":"2024-01-20","dy":"-51","visit":"SCREENING","visitnum":"1.0","epoch":"SCREENING"},{"seq":"6","testcd":"SYSBP","test":"Systolic Blood Pressure","cat":null,"orres":"117.3","orresu":"mmHg","stresc":"117.3","stresn":"117.3","stresu":"mmHg","stnrlo":null,"stnrhi":null,"nrind":null,"pos":null,"loc":null,"dtc":"2024-01-20","dy":"-51","visit":"SCREENING","visitnum":"1.0","epoch":"SCREENING"},{"seq":"7","testcd":"TEMP","test":"Temperature","cat":null,"orres":"37.7","orresu":"C","stresc":"37.7","stresn":"37.7","stresu":"C","stnrlo":null,"stnrhi":null,"nrind":null,"pos":null,"loc":null,"dtc":"2024-01-20","dy":"-51","visit":"SCREENING","visitnum":"1.0","epoch":"SCREENING"},{"seq":"8","testcd":"WEIGHT","test":"Weight","cat":null,"orres":"75.4","orresu":"kg","stresc":"75.4","stresn":"75.4","stresu":"kg","stnrlo":null,"stnrhi":null,"nrind":null,"pos":null,"loc":null,"dtc":"2024-01-20","dy":"-51","visit":"SCREENING","visitnum":"1.0","epoch":"SCREENING"},{"seq":"9","testcd":"BMI","test":"BMI","cat":null,"orres":"25.7","orresu":"kg/m2","stresc":"25.7","stresn":"25.7","stresu":"kg/m2","stnrlo":null,"stnrhi":null,"nrind":null,"pos":null,"loc":null,"dtc":"2024-03-11","dy":"1","visit":"BASELINE","visitnum":"2.0","epoch":"TREATMENT"},{"seq":"10","testcd":"DIABP","test":"Diastolic Blood Pressure","cat":null,"orres":"74.5","orresu":"mmHg","stresc":"74.5","stresn":"74.5","stresu":"mmHg","stnrlo":null,"stnrhi":null,"nrind":null,"pos":null,"loc":null,"dtc":"2024-03-11","dy":"1","visit":"BASELINE","visitnum":"2.0","epoch":"TREATMENT"},{"seq":"11","testcd":"HEIGHT","test":"Height","cat":null,"orres":"168.8","orresu":"cm","stresc":"168.8","stresn":"168.8","stresu":"cm","stnrlo":null,"stnrhi":null,"nrind":null,"pos":null,"loc":null,"dtc":"2024-03-11","dy":"1","visit":"BASELINE","visitnum":"2.0","epoch":"TREATMENT"},{"seq":"12","testcd":"PULSE","test":"Pulse Rate","cat":null,"orres":"97.9","orresu":"beats/min","stresc":"97.9","stresn":"97.9","stresu":"beats/min","stnrlo":null,"stnrhi":null,"nrind":null,"pos":null,"loc":null,"dtc":"2024-03-11","dy":"1","visit":"BASELINE","visitnum":"2.0","epoch":"TREATMENT"},{"seq":"13","testcd":"RESP","test":"Respiratory Rate","cat":null,"orres":"16.2","orresu":"breaths/min","stresc":"16.2","stresn":"16.2","stresu":"breaths/min","stnrlo":null,"stnrhi":null,"nrind":null,"pos":null,"loc":null,"dtc":"2024-03-11","dy":"1","visit":"BASELINE","visitnum":"2.0","epoch":"TREATMENT"},{"seq":"14","testcd":"SYSBP","test":"Systolic Blood Pressure","cat":null,"orres":"115.6","orresu":"mmHg","stresc":"115.6","stresn":"115.6","stresu":"mmHg","stnrlo":null,"stnrhi":null,"nrind":null,"pos":null,"loc":null,"dtc":"2024-03-11","dy":"1","visit":"BASELINE","visitnum":"2.0","epoch":"TREATMENT"},{"seq":"15","testcd":"TEMP","test":"Temperature","cat":null,"orres":"37.5","orresu":"C","stresc":"37.5","stresn":"37.5","stresu":"C","stnrlo":null,"stnrhi":null,"nrind":null,"pos":null,"loc":null,"dtc":"2024-03-11","dy":"1","visit":"BASELINE","visitnum":"2.0","epoch":"TREATMENT"},{"seq":"16","testcd":"WEIGHT","test":"Weight","cat":null,"orres":"73.3","orresu":"kg","stresc":"73.3","stresn":"73.3","stresu":"kg","stnrlo":null,"stnrhi":null,"nrind":null,"pos":null,"loc":null,"dtc":"2024-03-11","dy":"1","visit":"BASELINE","visitnum":"2.0","epoch":"TREATMENT"},{"seq":"17","testcd":"BMI","test":"BMI","cat":null,"orres":"24.8","orresu":"kg/m2","stresc":"24.8","stresn":"24.8","stresu":"kg/m2","stnrlo":null,"stnrhi":null,"nrind":null,"pos":null,"loc":null,"dtc":"2024-03-24","dy":"14","visit":"WEEK 2","visitnum":"3.0","epoch":"TREATMENT"},{"seq":"18","testcd":"DIABP","test":"Diastolic Blood Pressure","cat":null,"orres":"71.6","orresu":"mmHg","stresc":"71.6","stresn":"71.6","stresu":"mmHg","stnrlo":null,"stnrhi":null,"nrind":null,"pos":null,"loc":null,"dtc":"2024-03-24","dy":"14","visit":"WEEK 2","visitnum":"3.0","epoch":"TREATMENT"},{"seq":"19","testcd":"HEIGHT","test":"Height","cat":null,"orres":"169.3","orresu":"cm","stresc":"169.3","stresn":"169.3","stresu":"cm","stnrlo":null,"stnrhi":null,"nrind":null,"pos":null,"loc":null,"dtc":"2024-03-24","dy":"14","visit":"WEEK 2","visitnum":"3.0","epoch":"TREATMENT"},{"seq":"20","testcd":"PULSE","test":"Pulse Rate","cat":null,"orres":"93.0","orresu":"beats/min","stresc":"93.0","stresn":"93.0","stresu":"beats/min","stnrlo":null,"stnrhi":null,"nrind":null,"pos":null,"loc":null,"dtc":"2024-03-24","dy":"14","visit":"WEEK 2","visitnum":"3.0","epoch":"TREATMENT"},{"seq":"21","testcd":"RESP","test":"Respiratory Rate","cat":null,"orres":"17.2","orresu":"breaths/min","stresc":"17.2","stresn":"17.2","stresu":"breaths/min","stnrlo":null,"stnrhi":null,"nrind":null,"pos":null,"loc":null,"dtc":"2024-03-24","dy":"14","visit":"WEEK 2","visitnum":"3.0","epoch":"TREATMENT"},{"seq":"22","testcd":"SYSBP","test":"Systolic Blood Pressure","cat":null,"orres":"111.7","orresu":"mmHg","stresc":"111.7","stresn":"111.7","stresu":"mmHg","stnrlo":null,"stnrhi":null,"nrind":null,"pos":null,"loc":null,"dtc":"2024-03-24","dy":"14","visit":"WEEK 2","visitnum":"3.0","epoch":"TREATMENT"},{"seq":"23","testcd":"TEMP","test":"Temperature","cat":null,"orres":null,"orresu":null,"stresc":null,"stresn":null,"stresu":null,"stnrlo":null,"stnrhi":null,"nrind":null,"pos":null,"loc":null,"dtc":"2024-03-24","dy":"14","visit":"WEEK 2","visitnum":"3.0","epoch":"TREATMENT"},{"seq":"24","testcd":"WEIGHT","test":"Weight","cat":null,"orres":"71.1","orresu":"kg","stresc":"71.1","stresn":"71.1","stresu":"kg","stnrlo":null,"stnrhi":null,"nrind":null,"pos":null,"loc":null,"dtc":"2024-03-24","dy":"14","visit":"WEEK 2","visitnum":"3.0","epoch":"TREATMENT"},{"seq":"25","testcd":"BMI","test":"BMI","cat":null,"orres":"25.1","orresu":"kg/m2","stresc":"25.1","stresn":"25.1","stresu":"kg/m2","stnrlo":null,"stnrhi":null,"nrind":null,"pos":null,"loc":null,"dtc":"2024-04-09","dy":"30","visit":"WEEK 4","visitnum":"4.0","epoch":"TREATMENT"},{"seq":"26","testcd":"DIABP","test":"Diastolic Blood Pressure","cat":null,"orres":"70.9","orresu":"mmHg","stresc":"70.9","stresn":"70.9","stresu":"mmHg","stnrlo":null,"stnrhi":null,"nrind":null,"pos":null,"loc":null,"dtc":"2024-04-09","dy":"30","visit":"WEEK 4","visitnum":"4.0","epoch":"TREATMENT"},{"seq":"27","testcd":"HEIGHT","test":"Height","cat":null,"orres":"169.3","orresu":"cm","stresc":"169.3","stresn":"169.3","stresu":"cm","stnrlo":null,"stnrhi":null,"nrind":null,"pos":null,"loc":null,"dtc":"2024-04-09","dy":"30","visit":"WEEK 4","visitnum":"4.0","epoch":"TREATMENT"},{"seq":"28","testcd":"PULSE","test":"Pulse Rate","cat":null,"orres":"93.1","orresu":"beats/min","stresc":"93.1","stresn":"93.1","stresu":"beats/min","stnrlo":null,"stnrhi":null,"nrind":null,"pos":null,"loc":null,"dtc":"2024-04-09","dy":"30","visit":"WEEK 4","visitnum":"4.0","epoch":"TREATMENT"},{"seq":"29","testcd":"RESP","test":"Respiratory Rate","cat":null,"orres":"18.7","orresu":"breaths/min","stresc":"18.7","stresn":"18.7","stresu":"breaths/min","stnrlo":null,"stnrhi":null,"nrind":null,"pos":null,"loc":null,"dtc":"2024-04-09","dy":"30","visit":"WEEK 4","visitnum":"4.0","epoch":"TREATMENT"},{"seq":"30","testcd":"SYSBP","test":"Systolic Blood Pressure","cat":null,"orres":"110.2","orresu":"mmHg","stresc":"110.2","stresn":"110.2","stresu":"mmHg","stnrlo":null,"stnrhi":null,"nrind":null,"pos":null,"loc":null,"dtc":"2024-04-09","dy":"30","visit":"WEEK 4","visitnum":"4.0","epoch":"TREATMENT"},{"seq":"31","testcd":"TEMP","test":"Temperature","cat":null,"orres":"37.4","orresu":"C","stresc":"37.4","stresn":"37.4","stresu":"C","stnrlo":null,"stnrhi":null,"nrind":null,"pos":null,"loc":null,"dtc":"2024-04-09","dy":"30","visit":"WEEK 4","visitnum":"4.0","epoch":"TREATMENT"},{"seq":"32","testcd":"WEIGHT","test":"Weight","cat":null,"orres":"72.0","orresu":"kg","stresc":"72.0","stresn":"72.0","stresu":"kg","stnrlo":null,"stnrhi":null,"nrind":null,"pos":null,"loc":null,"dtc":"2024-04-09","dy":"30","visit":"WEEK 4","visitnum":"4.0","epoch":"TREATMENT"},{"seq":"33","testcd":"BMI","test":"BMI","cat":null,"orres":"25.5","orresu":"kg/m2","stresc":"25.5","stresn":"25.5","stresu":"kg/m2","stnrlo":null,"stnrhi":null,"nrind":null,"pos":null,"loc":null,"dtc":"2024-05-04","dy":"55","visit":"WEEK 8","visitnum":"5.0","epoch":"TREATMENT"},{"seq":"34","testcd":"DIABP","test":"Diastolic Blood Pressure","cat":null,"orres":"71.6","orresu":"mmHg","stresc":"71.6","stresn":"71.6","stresu":"mmHg","stnrlo":null,"stnrhi":null,"nrind":null,"pos":null,"loc":null,"dtc":"2024-05-04","dy":"55","visit":"WEEK 8","visitnum":"5.0","epoch":"TREATMENT"},{"seq":"35","testcd":"HEIGHT","test":"Height","cat":null,"orres":"169.3","orresu":"cm","stresc":"169.3","stresn":"169.3","stresu":"cm","stnrlo":null,"stnrhi":null,"nrind":null,"pos":null,"loc":null,"dtc":"2024-05-04","dy":"55","visit":"WEEK 8","visitnum":"5.0","epoch":"TREATMENT"},{"seq":"36","testcd":"PULSE","test":"Pulse Rate","cat":null,"orres":"94.8","orresu":"beats/min","stresc":"94.8","stresn":"94.8","stresu":"beats/min","stnrlo":null,"stnrhi":null,"nrind":null,"pos":null,"loc":null,"dtc":"2024-05-04","dy":"55","visit":"WEEK 8","visitnum":"5.0","epoch":"TREATMENT"},{"seq":"37","testcd":"RESP","test":"Respiratory Rate","cat":null,"orres":"16.5","orresu":"breaths/min","stresc":"16.5","stresn":"16.5","stresu":"breaths/min","stnrlo":null,"stnrhi":null,"nrind":null,"pos":null,"loc":null,"dtc":"2024-05-04","dy":"55","visit":"WEEK 8","visitnum":"5.0","epoch":"TREATMENT"},{"seq":"38","testcd":"SYSBP","test":"Systolic Blood Pressure","cat":null,"orres":"110.8","orresu":"mmHg","stresc":"110.8","stresn":"110.8","stresu":"mmHg","stnrlo":null,"stnrhi":null,"nrind":null,"pos":null,"loc":null,"dtc":"2024-05-04","dy":"55","visit":"WEEK 8","visitnum":"5.0","epoch":"TREATMENT"},{"seq":"39","testcd":"TEMP","test":"Temperature","cat":null,"orres":"37.3","orresu":"C","stresc":"37.3","stresn":"37.3","stresu":"C","stnrlo":null,"stnrhi":null,"nrind":null,"pos":null,"loc":null,"dtc":"2024-05-04","dy":"55","visit":"WEEK 8","visitnum":"5.0","epoch":"TREATMENT"},{"seq":"40","testcd":"WEIGHT","test":"Weight","cat":null,"orres":"73.1","orresu":"kg","stresc":"73.1","stresn":"73.1","stresu":"kg","stnrlo":null,"stnrhi":null,"nrind":null,"pos":null,"loc":null,"dtc":"2024-05-04","dy":"55","visit":"WEEK 8","visitnum":"5.0","epoch":"TREATMENT"},{"seq":"41","testcd":"BMI","test":"BMI","cat":null,"orres":"25.8","orresu":"kg/m2","stresc":"25.8","stresn":"25.8","stresu":"kg/m2","stnrlo":null,"stnrhi":null,"nrind":null,"pos":null,"loc":null,"dtc":"2024-06-04","dy":"86","visit":"WEEK 12","visitnum":"6.0","epoch":"TREATMENT"},{"seq":"42","testcd":"DIABP","test":"Diastolic Blood Pressure","cat":null,"orres":"72.2","orresu":"mmHg","stresc":"72.2","stresn":"72.2","stresu":"mmHg","stnrlo":null,"stnrhi":null,"nrind":null,"pos":null,"loc":null,"dtc":"2024-06-04","dy":"86","visit":"WEEK 12","visitnum":"6.0","epoch":"TREATMENT"},{"seq":"43","testcd":"HEIGHT","test":"Height","cat":null,"orres":"168.7","orresu":"cm","stresc":"168.7","stresn":"168.7","stresu":"cm","stnrlo":null,"stnrhi":null,"nrind":null,"pos":null,"loc":null,"dtc":"2024-06-04","dy":"86","visit":"WEEK 12","visitnum":"6.0","epoch":"TREATMENT"},{"seq":"44","testcd":"PULSE","test":"Pulse Rate","cat":null,"orres":"96.4","orresu":"beats/min","stresc":"96.4","stresn":"96.4","stresu":"beats/min","stnrlo":null,"stnrhi":null,"nrind":null,"pos":null,"loc":null,"dtc":"2024-06-04","dy":"86","visit":"WEEK 12","visitnum":"6.0","epoch":"TREATMENT"},{"seq":"45","testcd":"RESP","test":"Respiratory Rate","cat":null,"orres":null,"orresu":null,"stresc":null,"stresn":null,"stresu":null,"stnrlo":null,"stnrhi":null,"nrind":null,"pos":null,"loc":null,"dtc":"2024-06-04","dy":"86","visit":"WEEK 12","visitnum":"6.0","epoch":"TREATMENT"},{"seq":"46","testcd":"SYSBP","test":"Systolic Blood Pressure","cat":null,"orres":"112.4","orresu":"mmHg","stresc":"112.4","stresn":"112.4","stresu":"mmHg","stnrlo":null,"stnrhi":null,"nrind":null,"pos":null,"loc":null,"dtc":"2024-06-04","dy":"86","visit":"WEEK 12","visitnum":"6.0","epoch":"TREATMENT"},{"seq":"47","testcd":"TEMP","test":"Temperature","cat":null,"orres":"37.2","orresu":"C","stresc":"37.2","stresn":"37.2","stresu":"C","stnrlo":null,"stnrhi":null,"nrind":null,"pos":null,"loc":null,"dtc":"2024-06-04","dy":"86","visit":"WEEK 12","visitnum":"6.0","epoch":"TREATMENT"},{"seq":"48","testcd":"WEIGHT","test":"Weight","cat":null,"orres":"73.3","orresu":"kg","stresc":"73.3","stresn":"73.3","stresu":"kg","stnrlo":null,"stnrhi":null,"nrind":null,"pos":null,"loc":null,"dtc":"2024-06-04","dy":"86","visit":"WEEK 12","visitnum":"6.0","epoch":"TREATMENT"},{"seq":"49","testcd":"BMI","test":"BMI","cat":null,"orres":"27.0","orresu":"kg/m2","stresc":"27.0","stresn":"27.0","stresu":"kg/m2","stnrlo":null,"stnrhi":null,"nrind":null,"pos":null,"loc":null,"dtc":"2024-07-07","dy":"119","visit":"FOLLOW-UP","visitnum":"7.0","epoch":"FOLLOW-UP"},{"seq":"50","testcd":"DIABP","test":"Diastolic Blood Pressure","cat":null,"orres":"73.8","orresu":"mmHg","stresc":"73.8","stresn":"73.8","stresu":"mmHg","stnrlo":null,"stnrhi":null,"nrind":null,"pos":null,"loc":null,"dtc":"2024-07-07","dy":"119","visit":"FOLLOW-UP","visitnum":"7.0","epoch":"FOLLOW-UP"},{"seq":"51","testcd":"HEIGHT","test":"Height","cat":null,"orres":"168.5","orresu":"cm","stresc":"168.5","stresn":"168.5","stresu":"cm","stnrlo":null,"stnrhi":null,"nrind":null,"pos":null,"loc":null,"dtc":"2024-07-07","dy":"119","visit":"FOLLOW-UP","visitnum":"7.0","epoch":"FOLLOW-UP"},{"seq":"52","testcd":"PULSE","test":"Pulse Rate","cat":null,"orres":"100.8","orresu":"beats/min","stresc":"100.8","stresn":"100.8","stresu":"beats/min","stnrlo":null,"stnrhi":null,"nrind":null,"pos":null,"loc":null,"dtc":"2024-07-07","dy":"119","visit":"FOLLOW-UP","visitnum":"7.0","epoch":"FOLLOW-UP"},{"seq":"53","testcd":"RESP","test":"Respiratory Rate","cat":null,"orres":"16.2","orresu":"breaths/min","stresc":"16.2","stresn":"16.2","stresu":"breaths/min","stnrlo":null,"stnrhi":null,"nrind":null,"pos":null,"loc":null,"dtc":"2024-07-07","dy":"119","visit":"FOLLOW-UP","visitnum":"7.0","epoch":"FOLLOW-UP"},{"seq":"54","testcd":"SYSBP","test":"Systolic Blood Pressure","cat":null,"orres":"113.9","orresu":"mmHg","stresc":"113.9","stresn":"113.9","stresu":"mmHg","stnrlo":null,"stnrhi":null,"nrind":null,"pos":null,"loc":null,"dtc":"2024-07-07","dy":"119","visit":"FOLLOW-UP","visitnum":"7.0","epoch":"FOLLOW-UP"},{"seq":"55","testcd":"TEMP","test":"Temperature","cat":null,"orres":"37.2","orresu":"C","stresc":"37.2","stresn":"37.2","stresu":"C","stnrlo":null,"stnrhi":null,"nrind":null,"pos":null,"loc":null,"dtc":"2024-07-07","dy":"119","visit":"FOLLOW-UP","visitnum":"7.0","epoch":"FOLLOW-UP"},{"seq":"56","testcd":"WEIGHT","test":"Weight","cat":null,"orres":"76.6","orresu":"kg","stresc":"76.6","stresn":"76.6","stresu":"kg","stnrlo":null,"stnrhi":null,"nrind":null,"pos":null,"loc":null,"dtc":"2024-07-07","dy":"119","visit":"FOLLOW-UP","visitnum":"7.0","epoch":"FOLLOW-UP"}]},"section_10_questionnaires_and_scores":{"questionnaires":[],"findings_about":[]},"section_11_protocol_deviations":{"deviations":[{"seq":"1","term":"Missed PLACEBO dose on 2024-03-15","decod":"MISSED DOSE","cat":"MINOR","scat":"DOSING","start_dtc":"2024-03-15","end_dtc":null,"visit":null},{"seq":"2","term":"Vital signs assessment not performed at WEEK 2","decod":"MISSED ASSESSMENT","cat":"MINOR","scat":"ASSESSMENT","start_dtc":"2024-03-24","end_dtc":null,"visit":null},{"seq":"3","term":"Missed PLACEBO dose on 2024-03-29","decod":"MISSED DOSE","cat":"MINOR","scat":"DOSING","start_dtc":"2024-03-29","end_dtc":null,"visit":null},{"seq":"4","term":"Missed PLACEBO dose on 2024-04-17","decod":"MISSED DOSE","cat":"MINOR","scat":"DOSING","start_dtc":"2024-04-17","end_dtc":null,"visit":null},{"seq":"5","term":"Visit WEEK 8 occurred 2 days early (Day 55 vs planned Day 57)","decod":"VISIT OCCURRED OUTSIDE VISIT WINDOW","cat":"MINOR","scat":"VISIT WINDOW","start_dtc":"2024-05-04","end_dtc":null,"visit":null},{"seq":"6","term":"Missed PLACEBO dose on 2024-05-13","decod":"MISSED DOSE","cat":"MINOR","scat":"DOSING","start_dtc":"2024-05-13","end_dtc":null,"visit":null},{"seq":"7","term":"Vital signs assessment not performed at WEEK 12","decod":"MISSED ASSESSMENT","cat":"MINOR","scat":"ASSESSMENT","start_dtc":"2024-06-04","end_dtc":null,"visit":null}],"total":7},"section_12_disposition":{"completion_status":"COMPLETED","disposition_records":[{"seq":"1","term":"INFORMED CONSENT OBTAINED","decod":"INFORMED CONSENT OBTAINED","cat":"PROTOCOL MILESTONE","scat":null,"dtc":"2024-02-28","dy":null,"visit":null,"epoch":"SCREENING"},{"seq":"2","term":"RANDOMIZED","decod":"RANDOMIZED","cat":"PROTOCOL MILESTONE","scat":null,"dtc":"2024-03-11","dy":null,"visit":null,"epoch":"TREATMENT"},{"seq":"3","term":"COMPLETED","decod":"COMPLETED","cat":"DISPOSITION EVENT","scat":null,"dtc":"2024-07-28","dy":null,"visit":null,"epoch":"FOLLOW-UP"}],"death":null},"section_13_hospitalizations":{"items":[],"total":0},"section_14_substance_use":{"items":[{"seq":"1","substance":"ALCOHOL","decod":"ALCOHOL","cat":"ALCOHOL","scat":null,"usage":"Y","dose":"13.0","dosu":"DRINKS/WEEK","freq":"QW","start_dtc":"2017-03-01","end_dtc":null},{"seq":"2","substance":"COFFEE","decod":"COFFEE","cat":"CAFFEINE","scat":null,"usage":"Y","dose":"2.0","dosu":"CUPS/DAY","freq":"QD","start_dtc":"2017-03-01","end_dtc":null},{"seq":"3","substance":"CIGARETTES","decod":"CIGARETTES","cat":"TOBACCO","scat":"CIGARETTES","usage":"Y","dose":null,"dosu":null,"freq":null,"start_dtc":"1995-03-07","end_dtc":"1999-03-06"}],"total":3},"section_15_subject_status":{"items":[{"seq":"1","testcd":"SURVSTAT","test":"Survival Status","orres":"ALIVE","stresc":"ALIVE","dtc":"2024-07-28","visit":"END OF STUDY","epoch":"FOLLOW-UP"}],"total":1}}