{"subject_id":"GB001-ASTHMA-201-SITE003-0018","study_id":"GB001-ASTHMA-201","generated_at":"2026-06-16T07:22:47.915980+00:00","sdtmig_version":"3.4","flags":{"has_serious_ae":false,"has_fatal_ae":false,"has_protocol_deviation":true,"n_protocol_deviations":6,"n_adverse_events":1,"n_concomitant_meds":0,"max_ae_severity":"MODERATE","screen_failure":false,"discontinued_early":false,"discontinuation_reason":null,"death":false,"exposure_days":48},"timeline":[{"dtc":"2024-02-13","dy":"-48","event":"VISIT: SCREENING","domain":"SV","category":"visit"},{"dtc":"2024-03-15","dy":"-17","event":"INFORMED CONSENT OBTAINED","domain":"DS","category":"milestone"},{"dtc":"2024-04-01","dy":"1","event":"RANDOMIZED","domain":"DS","category":"milestone"},{"dtc":"2024-04-01","dy":"1","event":"FIRST DOSE: GB001","domain":"EX","category":"exposure"},{"dtc":"2024-04-01","dy":"1","event":"VISIT: BASELINE","domain":"SV","category":"visit"},{"dtc":"2024-04-12","dy":"12","event":"DEVIATION: MISSED DOSE","domain":"DV","category":"deviation"},{"dtc":"2024-04-17","dy":"17","event":"VISIT: WEEK 2","domain":"SV","category":"visit"},{"dtc":"2024-04-23","dy":"23","event":"DEVIATION: MISSED DOSE","domain":"DV","category":"deviation"},{"dtc":"2024-04-26","dy":"26","event":"DEVIATION: MISSED DOSE","domain":"DV","category":"deviation"},{"dtc":"2024-04-30","dy":"30","event":"VISIT: WEEK 4","domain":"SV","category":"visit"},{"dtc":"2024-05-10","dy":"40","event":"DEVIATION: MISSED DOSE","domain":"DV","category":"deviation"},{"dtc":"2024-05-13","dy":"43","event":"DEVIATION: MISSED DOSE","domain":"DV","category":"deviation"},{"dtc":"2024-05-15","dy":"45","event":"DEVIATION: MISSED DOSE","domain":"DV","category":"deviation"},{"dtc":"2024-05-25","dy":"55","event":"VISIT: WEEK 8","domain":"SV","category":"visit"},{"dtc":"2024-06-20","dy":"81","event":"AE: Sinusitis (MODERATE)","domain":"AE","category":"adverse_event"},{"dtc":"2024-06-25","dy":"86","event":"VISIT: WEEK 12","domain":"SV","category":"visit"},{"dtc":"2024-07-21","dy":"112","event":"VISIT: FOLLOW-UP","domain":"SV","category":"visit"},{"dtc":"2024-08-18","dy":"140","event":"COMPLETED","domain":"DS","category":"milestone"}],"section_1_demographics":{"usubjid":"GB001-ASTHMA-201-SITE003-0018","subjid":"0018","siteid":"SITE003","age":"61","ageu":"YEARS","sex":"M","race":"WHITE","ethnicity":"NOT HISPANIC OR LATINO","country":"USA","arm":"GB001 40mg QD","armcd":"GB40","actarm":"GB001 40mg QD","actarmcd":"GB40","randomization_date":null,"informed_consent_date":"2024-03-15","reference_start_date":"2024-04-01","reference_end_date":"2024-08-18","screen_failure":false,"death_flag":null,"death_date":null,"subject_characteristics":[{"testcd":"ALCUSE","test":"Alcohol Use","orres":"HEAVY DRINKER","stresc":"HEAVY DRINKER","visit":null,"dtc":"2024-03-15"},{"testcd":"BMI","test":"Body Mass Index","orres":"25.2","stresc":"25.2","visit":null,"dtc":"2024-03-15"},{"testcd":"DURDIS","test":"Duration of Disease","orres":"109 months","stresc":"109","visit":null,"dtc":"2024-03-15"},{"testcd":"TOBUSE","test":"Tobacco Use","orres":"NEVER SMOKED","stresc":"NEVER SMOKED","visit":null,"dtc":"2024-03-15"}]},"section_2_medical_history":{"items":[{"seq":"1","term":"DIABETES MELLITUS TYPE 2","decod":"DIABETES MELLITUS TYPE 2","cat":"ENDOCRINE","scat":null,"presp":null,"occur":null,"status":null,"onset_dtc":"2015-03","end_dtc":"2019-07-20","visit":null}]},"section_3_inclusion_exclusion":{"criteria":[]},"section_4_trial_participation":{"visits":[{"visitnum":"1.0","visit":"SCREENING","start_dtc":"2024-02-13","end_dtc":"2024-02-13","updes":null},{"visitnum":"2.0","visit":"BASELINE","start_dtc":"2024-04-01","end_dtc":"2024-04-01","updes":null},{"visitnum":"3.0","visit":"WEEK 2","start_dtc":"2024-04-17","end_dtc":"2024-04-17","updes":null},{"visitnum":"4.0","visit":"WEEK 4","start_dtc":"2024-04-30","end_dtc":"2024-04-30","updes":null},{"visitnum":"5.0","visit":"WEEK 8","start_dtc":"2024-05-25","end_dtc":"2024-05-25","updes":null},{"visitnum":"6.0","visit":"WEEK 12","start_dtc":"2024-06-25","end_dtc":"2024-06-25","updes":null},{"visitnum":"7.0","visit":"FOLLOW-UP","start_dtc":"2024-07-21","end_dtc":"2024-07-21","updes":null}],"epochs":[{"seq":"1","etcd":"SCRN","element":"Screening","start_dtc":"2024-03-04","end_dtc":"2024-04-01","updes":null},{"seq":"2","etcd":"TRT","element":"Treatment","start_dtc":"2024-04-01","end_dtc":"2024-06-24","updes":null},{"seq":"3","etcd":"FU","element":"Follow-up","start_dtc":"2024-06-24","end_dtc":"2024-07-21","updes":null}],"visit_count":7},"section_5_concomitant_medications":{"medications":[]},"section_6_exposure":{"exposure_as_administered":[{"seq":"1","trt":"GB001","dose":"40.0","doseu":null,"dosef":"QD","route":"ORAL","lot":null,"start_dtc":"2024-04-01","end_dtc":"2024-05-19","start_dy":"1","end_dy":"49","epoch":"TREATMENT","visit":null}],"exposure_as_collected":[{"seq":"1","trt":"GB001","dose":"40.0","doseu":null,"dosef":"QD","route":"ORAL","start_dtc":"2024-04-01","end_dtc":"2024-04-01","visit":"BASELINE"},{"seq":"2","trt":"GB001","dose":"40.0","doseu":null,"dosef":"QD","route":"ORAL","start_dtc":"2024-04-02","end_dtc":"2024-04-02","visit":"BASELINE"},{"seq":"3","trt":"GB001","dose":"40.0","doseu":null,"dosef":"QD","route":"ORAL","start_dtc":"2024-04-03","end_dtc":"2024-04-03","visit":"BASELINE"},{"seq":"4","trt":"GB001","dose":"40.0","doseu":null,"dosef":"QD","route":"ORAL","start_dtc":"2024-04-04","end_dtc":"2024-04-04","visit":"BASELINE"},{"seq":"5","trt":"GB001","dose":"40.0","doseu":null,"dosef":"QD","route":"ORAL","start_dtc":"2024-04-05","end_dtc":"2024-04-05","visit":null},{"seq":"6","trt":"GB001","dose":"40.0","doseu":null,"dosef":"QD","route":"ORAL","start_dtc":"2024-04-06","end_dtc":"2024-04-06","visit":null},{"seq":"7","trt":"GB001","dose":"40.0","doseu":null,"dosef":"QD","route":"ORAL","start_dtc":"2024-04-07","end_dtc":"2024-04-07","visit":null},{"seq":"8","trt":"GB001","dose":"40.0","doseu":null,"dosef":"QD","route":"ORAL","start_dtc":"2024-04-08","end_dtc":"2024-04-08","visit":null},{"seq":"9","trt":"GB001","dose":"40.0","doseu":null,"dosef":"QD","route":"ORAL","start_dtc":"2024-04-09","end_dtc":"2024-04-09","visit":null},{"seq":"10","trt":"GB001","dose":null,"doseu":null,"dosef":"QD","route":"ORAL","start_dtc":"2024-04-10","end_dtc":"2024-04-10","visit":null},{"seq":"11","trt":"GB001","dose":"40.0","doseu":null,"dosef":"QD","route":"ORAL","start_dtc":"2024-04-11","end_dtc":"2024-04-11","visit":null},{"seq":"12","trt":"GB001","dose":null,"doseu":null,"dosef":"QD","route":"ORAL","start_dtc":"2024-04-12","end_dtc":"2024-04-12","visit":"WEEK 2"},{"seq":"13","trt":"GB001","dose":"40.0","doseu":null,"dosef":"QD","route":"ORAL","start_dtc":"2024-04-13","end_dtc":"2024-04-13","visit":"WEEK 2"},{"seq":"14","trt":"GB001","dose":"40.0","doseu":null,"dosef":"QD","route":"ORAL","start_dtc":"2024-04-14","end_dtc":"2024-04-14","visit":"WEEK 2"},{"seq":"15","trt":"GB001","dose":null,"doseu":null,"dosef":"QD","route":"ORAL","start_dtc":"2024-04-15","end_dtc":"2024-04-15","visit":"WEEK 2"},{"seq":"16","trt":"GB001","dose":"40.0","doseu":null,"dosef":"QD","route":"ORAL","start_dtc":"2024-04-16","end_dtc":"2024-04-16","visit":"WEEK 2"},{"seq":"17","trt":"GB001","dose":"40.0","doseu":null,"dosef":"QD","route":"ORAL","start_dtc":"2024-04-17","end_dtc":"2024-04-17","visit":"WEEK 2"},{"seq":"18","trt":"GB001","dose":"40.0","doseu":null,"dosef":"QD","route":"ORAL","start_dtc":"2024-04-18","end_dtc":"2024-04-18","visit":"WEEK 2"},{"seq":"19","trt":"GB001","dose":"40.0","doseu":null,"dosef":"QD","route":"ORAL","start_dtc":"2024-04-19","end_dtc":"2024-04-19","visit":null},{"seq":"20","trt":"GB001","dose":"40.0","doseu":null,"dosef":"QD","route":"ORAL","start_dtc":"2024-04-20","end_dtc":"2024-04-20","visit":null},{"seq":"21","trt":"GB001","dose":"40.0","doseu":null,"dosef":"QD","route":"ORAL","start_dtc":"2024-04-21","end_dtc":"2024-04-21","visit":null},{"seq":"22","trt":"GB001","dose":"40.0","doseu":null,"dosef":"QD","route":"ORAL","start_dtc":"2024-04-22","end_dtc":"2024-04-22","visit":null},{"seq":"23","trt":"GB001","dose":null,"doseu":null,"dosef":"QD","route":"ORAL","start_dtc":"2024-04-23","end_dtc":"2024-04-23","visit":null},{"seq":"24","trt":"GB001","dose":"40.0","doseu":null,"dosef":"QD","route":"ORAL","start_dtc":"2024-04-24","end_dtc":"2024-04-24","visit":null},{"seq":"25","trt":"GB001","dose":"40.0","doseu":null,"dosef":"QD","route":"ORAL","start_dtc":"2024-04-25","end_dtc":"2024-04-25","visit":null},{"seq":"26","trt":"GB001","dose":null,"doseu":null,"dosef":"QD","route":"ORAL","start_dtc":"2024-04-26","end_dtc":"2024-04-26","visit":"WEEK 4"},{"seq":"27","trt":"GB001","dose":"40.0","doseu":null,"dosef":"QD","route":"ORAL","start_dtc":"2024-04-27","end_dtc":"2024-04-27","visit":"WEEK 4"},{"seq":"28","trt":"GB001","dose":"40.0","doseu":null,"dosef":"QD","route":"ORAL","start_dtc":"2024-04-28","end_dtc":"2024-04-28","visit":"WEEK 4"},{"seq":"29","trt":"GB001","dose":"40.0","doseu":null,"dosef":"QD","route":"ORAL","start_dtc":"2024-04-29","end_dtc":"2024-04-29","visit":"WEEK 4"},{"seq":"30","trt":"GB001","dose":"40.0","doseu":null,"dosef":"QD","route":"ORAL","start_dtc":"2024-04-30","end_dtc":"2024-04-30","visit":"WEEK 4"},{"seq":"31","trt":"GB001","dose":"40.0","doseu":null,"dosef":"QD","route":"ORAL","start_dtc":"2024-05-01","end_dtc":"2024-05-01","visit":"WEEK 4"},{"seq":"32","trt":"GB001","dose":"40.0","doseu":null,"dosef":"QD","route":"ORAL","start_dtc":"2024-05-02","end_dtc":"2024-05-02","visit":"WEEK 4"},{"seq":"33","trt":"GB001","dose":"40.0","doseu":null,"dosef":"QD","route":"ORAL","start_dtc":"2024-05-03","end_dtc":"2024-05-03","visit":null},{"seq":"34","trt":"GB001","dose":"40.0","doseu":null,"dosef":"QD","route":"ORAL","start_dtc":"2024-05-04","end_dtc":"2024-05-04","visit":null},{"seq":"35","trt":"GB001","dose":"40.0","doseu":null,"dosef":"QD","route":"ORAL","start_dtc":"2024-05-05","end_dtc":"2024-05-05","visit":null},{"seq":"36","trt":"GB001","dose":"40.0","doseu":null,"dosef":"QD","route":"ORAL","start_dtc":"2024-05-06","end_dtc":"2024-05-06","visit":null},{"seq":"37","trt":"GB001","dose":"40.0","doseu":null,"dosef":"QD","route":"ORAL","start_dtc":"2024-05-07","end_dtc":"2024-05-07","visit":null},{"seq":"38","trt":"GB001","dose":"40.0","doseu":null,"dosef":"QD","route":"ORAL","start_dtc":"2024-05-08","end_dtc":"2024-05-08","visit":null},{"seq":"39","trt":"GB001","dose":"40.0","doseu":null,"dosef":"QD","route":"ORAL","start_dtc":"2024-05-09","end_dtc":"2024-05-09","visit":null},{"seq":"40","trt":"GB001","dose":null,"doseu":null,"dosef":"QD","route":"ORAL","start_dtc":"2024-05-10","end_dtc":"2024-05-10","visit":null},{"seq":"41","trt":"GB001","dose":"40.0","doseu":null,"dosef":"QD","route":"ORAL","start_dtc":"2024-05-11","end_dtc":"2024-05-11","visit":null},{"seq":"42","trt":"GB001","dose":"40.0","doseu":null,"dosef":"QD","route":"ORAL","start_dtc":"2024-05-12","end_dtc":"2024-05-12","visit":null},{"seq":"43","trt":"GB001","dose":null,"doseu":null,"dosef":"QD","route":"ORAL","start_dtc":"2024-05-13","end_dtc":"2024-05-13","visit":null},{"seq":"44","trt":"GB001","dose":"40.0","doseu":null,"dosef":"QD","route":"ORAL","start_dtc":"2024-05-14","end_dtc":"2024-05-14","visit":null},{"seq":"45","trt":"GB001","dose":null,"doseu":null,"dosef":"QD","route":"ORAL","start_dtc":"2024-05-15","end_dtc":"2024-05-15","visit":null},{"seq":"46","trt":"GB001","dose":"40.0","doseu":null,"dosef":"QD","route":"ORAL","start_dtc":"2024-05-16","end_dtc":"2024-05-16","visit":null},{"seq":"47","trt":"GB001","dose":"40.0","doseu":null,"dosef":"QD","route":"ORAL","start_dtc":"2024-05-17","end_dtc":"2024-05-17","visit":null},{"seq":"48","trt":"GB001","dose":"40.0","doseu":null,"dosef":"QD","route":"ORAL","start_dtc":"2024-05-18","end_dtc":"2024-05-18","visit":null},{"seq":"49","trt":"GB001","dose":"40.0","doseu":null,"dosef":"QD","route":"ORAL","start_dtc":"2024-05-19","end_dtc":"2024-05-19","visit":null}]},"section_7_adverse_events":{"summary":{"total_aes":1,"serious_aes":0,"fatal_aes":0,"by_severity":{"MODERATE":1},"by_soc":{"Infections and infestations":1}},"events":[{"seq":"1","term":"SINUSITIS","decod":"Sinusitis","llt":"Sinusitis","hlt":"Upper respiratory tract infections","hlgt":"Upper respiratory tract infections","soc":"Infections and infestations","bodsys":"Infections and infestations","severity":"MODERATE","serious":"N","causality":"POSSIBLY RELATED","action_taken":"DRUG INTERRUPTED","outcome":"RECOVERING/RESOLVING","fatal":"N","hospitalization":"N","life_threatening":"N","onset_dtc":"2024-06-20","end_dtc":"2024-06-30","onset_dy":"81","end_dy":"91","duration":null,"epoch":"TREATMENT","visit":null,"supplemental":{"AETRTEM":"Y"}}]},"section_8_laboratory_results":{"summary":{"total_records":42,"abnormal_count":6,"abnormal_pct":14.3},"shift_summary":[{"testcd":"ALT","baseline_value":28.46,"baseline_nrind":"NORMAL","worst_post_baseline_value":24.59,"worst_post_baseline_nrind":"NORMAL","worst_visit":"BASELINE"},{"testcd":"AST","baseline_value":13.84,"baseline_nrind":"NORMAL","worst_post_baseline_value":14.15,"worst_post_baseline_nrind":"NORMAL","worst_visit":"BASELINE"},{"testcd":"CREAT","baseline_value":90.64,"baseline_nrind":"NORMAL","worst_post_baseline_value":89.68,"worst_post_baseline_nrind":"NORMAL","worst_visit":"WEEK 8"},{"testcd":"GLUC","baseline_value":5.91,"baseline_nrind":"HIGH","worst_post_baseline_value":6.13,"worst_post_baseline_nrind":"HIGH","worst_visit":"FOLLOW-UP"},{"testcd":"HGB","baseline_value":132.32,"baseline_nrind":"NORMAL","worst_post_baseline_value":130.25,"worst_post_baseline_nrind":"NORMAL","worst_visit":"FOLLOW-UP"},{"testcd":"PLAT","baseline_value":270.02,"baseline_nrind":"NORMAL","worst_post_baseline_value":268.7,"worst_post_baseline_nrind":"NORMAL","worst_visit":"BASELINE"},{"testcd":"WBC","baseline_value":4.13,"baseline_nrind":"NORMAL","worst_post_baseline_value":5.2,"worst_post_baseline_nrind":"NORMAL","worst_visit":"WEEK 8"}],"results":[{"seq":"1","testcd":"ALT","test":"Alanine Aminotransferase","cat":"CHEMISTRY","orres":"28.46","orresu":"U/L","stresc":"28.46","stresn":"28.46","stresu":"U/L","stnrlo":"7","stnrhi":"56","nrind":"NORMAL","fast":null,"dtc":"2024-02-13","dy":"-48","visit":"SCREENING","visitnum":"1.0","epoch":"SCREENING","spec":null,"method":null},{"seq":"2","testcd":"AST","test":"Aspartate Aminotransferase","cat":"CHEMISTRY","orres":"13.84","orresu":"U/L","stresc":"13.84","stresn":"13.84","stresu":"U/L","stnrlo":"10","stnrhi":"40","nrind":"NORMAL","fast":null,"dtc":"2024-02-13","dy":"-48","visit":"SCREENING","visitnum":"1.0","epoch":"SCREENING","spec":null,"method":null},{"seq":"3","testcd":"CREAT","test":"Creatinine","cat":"CHEMISTRY","orres":"90.64","orresu":"umol/L","stresc":"90.64","stresn":"90.64","stresu":"umol/L","stnrlo":"62","stnrhi":"106","nrind":"NORMAL","fast":null,"dtc":"2024-02-13","dy":"-48","visit":"SCREENING","visitnum":"1.0","epoch":"SCREENING","spec":null,"method":null},{"seq":"4","testcd":"GLUC","test":"Glucose","cat":"CHEMISTRY","orres":"5.91","orresu":"mmol/L","stresc":"5.91","stresn":"5.91","stresu":"mmol/L","stnrlo":"3.9","stnrhi":"5.6","nrind":"HIGH","fast":null,"dtc":"2024-02-13","dy":"-48","visit":"SCREENING","visitnum":"1.0","epoch":"SCREENING","spec":null,"method":null},{"seq":"5","testcd":"HGB","test":"Hemoglobin","cat":"HEMATOLOGY","orres":"132.32","orresu":"g/L","stresc":"132.32","stresn":"132.32","stresu":"g/L","stnrlo":"130","stnrhi":"175","nrind":"NORMAL","fast":null,"dtc":"2024-02-13","dy":"-48","visit":"SCREENING","visitnum":"1.0","epoch":"SCREENING","spec":null,"method":null},{"seq":"6","testcd":"PLAT","test":"Platelets","cat":"HEMATOLOGY","orres":"270.02","orresu":"10^9/L","stresc":"270.02","stresn":"270.02","stresu":"10^9/L","stnrlo":"150","stnrhi":"400","nrind":"NORMAL","fast":null,"dtc":"2024-02-13","dy":"-48","visit":"SCREENING","visitnum":"1.0","epoch":"SCREENING","spec":null,"method":null},{"seq":"7","testcd":"WBC","test":"Leukocytes","cat":"HEMATOLOGY","orres":"4.13","orresu":"10^9/L","stresc":"4.13","stresn":"4.13","stresu":"10^9/L","stnrlo":"4.0","stnrhi":"11.0","nrind":"NORMAL","fast":null,"dtc":"2024-02-13","dy":"-48","visit":"SCREENING","visitnum":"1.0","epoch":"SCREENING","spec":null,"method":null},{"seq":"8","testcd":"ALT","test":"Alanine Aminotransferase","cat":"CHEMISTRY","orres":"24.59","orresu":"U/L","stresc":"24.59","stresn":"24.59","stresu":"U/L","stnrlo":"7","stnrhi":"56","nrind":"NORMAL","fast":null,"dtc":"2024-04-01","dy":"1","visit":"BASELINE","visitnum":"2.0","epoch":"TREATMENT","spec":null,"method":null},{"seq":"9","testcd":"AST","test":"Aspartate Aminotransferase","cat":"CHEMISTRY","orres":"14.15","orresu":"U/L","stresc":"14.15","stresn":"14.15","stresu":"U/L","stnrlo":"10","stnrhi":"40","nrind":"NORMAL","fast":null,"dtc":"2024-04-01","dy":"1","visit":"BASELINE","visitnum":"2.0","epoch":"TREATMENT","spec":null,"method":null},{"seq":"10","testcd":"CREAT","test":"Creatinine","cat":"CHEMISTRY","orres":"88.94","orresu":"umol/L","stresc":"88.94","stresn":"88.94","stresu":"umol/L","stnrlo":"62","stnrhi":"106","nrind":"NORMAL","fast":null,"dtc":"2024-04-01","dy":"1","visit":"BASELINE","visitnum":"2.0","epoch":"TREATMENT","spec":null,"method":null},{"seq":"11","testcd":"GLUC","test":"Glucose","cat":"CHEMISTRY","orres":"6.07","orresu":"mmol/L","stresc":"6.07","stresn":"6.07","stresu":"mmol/L","stnrlo":"3.9","stnrhi":"5.6","nrind":"HIGH","fast":null,"dtc":"2024-04-01","dy":"1","visit":"BASELINE","visitnum":"2.0","epoch":"TREATMENT","spec":null,"method":null},{"seq":"12","testcd":"HGB","test":"Hemoglobin","cat":"HEMATOLOGY","orres":"131.73","orresu":"g/L","stresc":"131.73","stresn":"131.73","stresu":"g/L","stnrlo":"130","stnrhi":"175","nrind":"NORMAL","fast":null,"dtc":"2024-04-01","dy":"1","visit":"BASELINE","visitnum":"2.0","epoch":"TREATMENT","spec":null,"method":null},{"seq":"13","testcd":"PLAT","test":"Platelets","cat":"HEMATOLOGY","orres":"268.7","orresu":"10^9/L","stresc":"268.7","stresn":"268.7","stresu":"10^9/L","stnrlo":"150","stnrhi":"400","nrind":"NORMAL","fast":null,"dtc":"2024-04-01","dy":"1","visit":"BASELINE","visitnum":"2.0","epoch":"TREATMENT","spec":null,"method":null},{"seq":"14","testcd":"WBC","test":"Leukocytes","cat":"HEMATOLOGY","orres":"3.98","orresu":"10^9/L","stresc":"3.98","stresn":"3.98","stresu":"10^9/L","stnrlo":"4.0","stnrhi":"11.0","nrind":"LOW","fast":null,"dtc":"2024-04-01","dy":"1","visit":"BASELINE","visitnum":"2.0","epoch":"TREATMENT","spec":null,"method":null},{"seq":"15","testcd":"ALT","test":"Alanine Aminotransferase","cat":"CHEMISTRY","orres":"22.63","orresu":"U/L","stresc":"22.63","stresn":"22.63","stresu":"U/L","stnrlo":"7","stnrhi":"56","nrind":"NORMAL","fast":null,"dtc":"2024-04-17","dy":"17","visit":"WEEK 2","visitnum":"3.0","epoch":"TREATMENT","spec":null,"method":null},{"seq":"16","testcd":"AST","test":"Aspartate Aminotransferase","cat":"CHEMISTRY","orres":"12.64","orresu":"U/L","stresc":"12.64","stresn":"12.64","stresu":"U/L","stnrlo":"10","stnrhi":"40","nrind":"NORMAL","fast":null,"dtc":"2024-04-17","dy":"17","visit":"WEEK 2","visitnum":"3.0","epoch":"TREATMENT","spec":null,"method":null},{"seq":"17","testcd":"CREAT","test":"Creatinine","cat":"CHEMISTRY","orres":"87.06","orresu":"umol/L","stresc":"87.06","stresn":"87.06","stresu":"umol/L","stnrlo":"62","stnrhi":"106","nrind":"NORMAL","fast":null,"dtc":"2024-04-17","dy":"17","visit":"WEEK 2","visitnum":"3.0","epoch":"TREATMENT","spec":null,"method":null},{"seq":"18","testcd":"GLUC","test":"Glucose","cat":"CHEMISTRY","orres":"6.03","orresu":"mmol/L","stresc":"6.03","stresn":"6.03","stresu":"mmol/L","stnrlo":"3.9","stnrhi":"5.6","nrind":"HIGH","fast":null,"dtc":"2024-04-17","dy":"17","visit":"WEEK 2","visitnum":"3.0","epoch":"TREATMENT","spec":null,"method":null},{"seq":"19","testcd":"HGB","test":"Hemoglobin","cat":"HEMATOLOGY","orres":"131.07","orresu":"g/L","stresc":"131.07","stresn":"131.07","stresu":"g/L","stnrlo":"130","stnrhi":"175","nrind":"NORMAL","fast":null,"dtc":"2024-04-17","dy":"17","visit":"WEEK 2","visitnum":"3.0","epoch":"TREATMENT","spec":null,"method":null},{"seq":"20","testcd":"PLAT","test":"Platelets","cat":"HEMATOLOGY","orres":"262.12","orresu":"10^9/L","stresc":"262.12","stresn":"262.12","stresu":"10^9/L","stnrlo":"150","stnrhi":"400","nrind":"NORMAL","fast":null,"dtc":"2024-04-17","dy":"17","visit":"WEEK 2","visitnum":"3.0","epoch":"TREATMENT","spec":null,"method":null},{"seq":"21","testcd":"WBC","test":"Leukocytes","cat":"HEMATOLOGY","orres":"4.26","orresu":"10^9/L","stresc":"4.26","stresn":"4.26","stresu":"10^9/L","stnrlo":"4.0","stnrhi":"11.0","nrind":"NORMAL","fast":null,"dtc":"2024-04-17","dy":"17","visit":"WEEK 2","visitnum":"3.0","epoch":"TREATMENT","spec":null,"method":null},{"seq":"22","testcd":"ALT","test":"Alanine Aminotransferase","cat":"CHEMISTRY","orres":"21.6","orresu":"U/L","stresc":"21.6","stresn":"21.6","stresu":"U/L","stnrlo":"7","stnrhi":"56","nrind":"NORMAL","fast":null,"dtc":"2024-04-30","dy":"30","visit":"WEEK 4","visitnum":"4.0","epoch":"TREATMENT","spec":null,"method":null},{"seq":"23","testcd":"AST","test":"Aspartate Aminotransferase","cat":"CHEMISTRY","orres":"11.27","orresu":"U/L","stresc":"11.27","stresn":"11.27","stresu":"U/L","stnrlo":"10","stnrhi":"40","nrind":"NORMAL","fast":null,"dtc":"2024-04-30","dy":"30","visit":"WEEK 4","visitnum":"4.0","epoch":"TREATMENT","spec":null,"method":null},{"seq":"24","testcd":"CREAT","test":"Creatinine","cat":"CHEMISTRY","orres":"87.75","orresu":"umol/L","stresc":"87.75","stresn":"87.75","stresu":"umol/L","stnrlo":"62","stnrhi":"106","nrind":"NORMAL","fast":null,"dtc":"2024-04-30","dy":"30","visit":"WEEK 4","visitnum":"4.0","epoch":"TREATMENT","spec":null,"method":null},{"seq":"25","testcd":"GLUC","test":"Glucose","cat":"CHEMISTRY","orres":null,"orresu":null,"stresc":null,"stresn":null,"stresu":null,"stnrlo":null,"stnrhi":null,"nrind":null,"fast":null,"dtc":"2024-04-30","dy":"30","visit":"WEEK 4","visitnum":"4.0","epoch":"TREATMENT","spec":null,"method":null},{"seq":"26","testcd":"HGB","test":"Hemoglobin","cat":"HEMATOLOGY","orres":"131.74","orresu":"g/L","stresc":"131.74","stresn":"131.74","stresu":"g/L","stnrlo":"130","stnrhi":"175","nrind":"NORMAL","fast":null,"dtc":"2024-04-30","dy":"30","visit":"WEEK 4","visitnum":"4.0","epoch":"TREATMENT","spec":null,"method":null},{"seq":"27","testcd":"PLAT","test":"Platelets","cat":"HEMATOLOGY","orres":null,"orresu":null,"stresc":null,"stresn":null,"stresu":null,"stnrlo":null,"stnrhi":null,"nrind":null,"fast":null,"dtc":"2024-04-30","dy":"30","visit":"WEEK 4","visitnum":"4.0","epoch":"TREATMENT","spec":null,"method":null},{"seq":"28","testcd":"WBC","test":"Leukocytes","cat":"HEMATOLOGY","orres":"4.19","orresu":"10^9/L","stresc":"4.19","stresn":"4.19","stresu":"10^9/L","stnrlo":"4.0","stnrhi":"11.0","nrind":"NORMAL","fast":null,"dtc":"2024-04-30","dy":"30","visit":"WEEK 4","visitnum":"4.0","epoch":"TREATMENT","spec":null,"method":null},{"seq":"29","testcd":"ALT","test":"Alanine Aminotransferase","cat":"CHEMISTRY","orres":"22.38","orresu":"U/L","stresc":"22.38","stresn":"22.38","stresu":"U/L","stnrlo":"7","stnrhi":"56","nrind":"NORMAL","fast":null,"dtc":"2024-05-25","dy":"55","visit":"WEEK 8","visitnum":"5.0","epoch":"TREATMENT","spec":null,"method":null},{"seq":"30","testcd":"AST","test":"Aspartate Aminotransferase","cat":"CHEMISTRY","orres":"11.97","orresu":"U/L","stresc":"11.97","stresn":"11.97","stresu":"U/L","stnrlo":"10","stnrhi":"40","nrind":"NORMAL","fast":null,"dtc":"2024-05-25","dy":"55","visit":"WEEK 8","visitnum":"5.0","epoch":"TREATMENT","spec":null,"method":null},{"seq":"31","testcd":"CREAT","test":"Creatinine","cat":"CHEMISTRY","orres":"89.68","orresu":"umol/L","stresc":"89.68","stresn":"89.68","stresu":"umol/L","stnrlo":"62","stnrhi":"106","nrind":"NORMAL","fast":null,"dtc":"2024-05-25","dy":"55","visit":"WEEK 8","visitnum":"5.0","epoch":"TREATMENT","spec":null,"method":null},{"seq":"32","testcd":"GLUC","test":"Glucose","cat":"CHEMISTRY","orres":"6.05","orresu":"mmol/L","stresc":"6.05","stresn":"6.05","stresu":"mmol/L","stnrlo":"3.9","stnrhi":"5.6","nrind":"HIGH","fast":null,"dtc":"2024-05-25","dy":"55","visit":"WEEK 8","visitnum":"5.0","epoch":"TREATMENT","spec":null,"method":null},{"seq":"33","testcd":"HGB","test":"Hemoglobin","cat":"HEMATOLOGY","orres":"131.78","orresu":"g/L","stresc":"131.78","stresn":"131.78","stresu":"g/L","stnrlo":"130","stnrhi":"175","nrind":"NORMAL","fast":null,"dtc":"2024-05-25","dy":"55","visit":"WEEK 8","visitnum":"5.0","epoch":"TREATMENT","spec":null,"method":null},{"seq":"34","testcd":"PLAT","test":"Platelets","cat":"HEMATOLOGY","orres":null,"orresu":null,"stresc":null,"stresn":null,"stresu":null,"stnrlo":null,"stnrhi":null,"nrind":null,"fast":null,"dtc":"2024-05-25","dy":"55","visit":"WEEK 8","visitnum":"5.0","epoch":"TREATMENT","spec":null,"method":null},{"seq":"35","testcd":"WBC","test":"Leukocytes","cat":"HEMATOLOGY","orres":"5.2","orresu":"10^9/L","stresc":"5.2","stresn":"5.2","stresu":"10^9/L","stnrlo":"4.0","stnrhi":"11.0","nrind":"NORMAL","fast":null,"dtc":"2024-05-25","dy":"55","visit":"WEEK 8","visitnum":"5.0","epoch":"TREATMENT","spec":null,"method":null},{"seq":"36","testcd":"ALT","test":"Alanine Aminotransferase","cat":"CHEMISTRY","orres":"22.11","orresu":"U/L","stresc":"22.11","stresn":"22.11","stresu":"U/L","stnrlo":"7","stnrhi":"56","nrind":"NORMAL","fast":null,"dtc":"2024-07-21","dy":"112","visit":"FOLLOW-UP","visitnum":"7.0","epoch":"FOLLOW-UP","spec":null,"method":null},{"seq":"37","testcd":"AST","test":"Aspartate Aminotransferase","cat":"CHEMISTRY","orres":"11.75","orresu":"U/L","stresc":"11.75","stresn":"11.75","stresu":"U/L","stnrlo":"10","stnrhi":"40","nrind":"NORMAL","fast":null,"dtc":"2024-07-21","dy":"112","visit":"FOLLOW-UP","visitnum":"7.0","epoch":"FOLLOW-UP","spec":null,"method":null},{"seq":"38","testcd":"CREAT","test":"Creatinine","cat":"CHEMISTRY","orres":"86.1","orresu":"umol/L","stresc":"86.1","stresn":"86.1","stresu":"umol/L","stnrlo":"62","stnrhi":"106","nrind":"NORMAL","fast":null,"dtc":"2024-07-21","dy":"112","visit":"FOLLOW-UP","visitnum":"7.0","epoch":"FOLLOW-UP","spec":null,"method":null},{"seq":"39","testcd":"GLUC","test":"Glucose","cat":"CHEMISTRY","orres":"6.13","orresu":"mmol/L","stresc":"6.13","stresn":"6.13","stresu":"mmol/L","stnrlo":"3.9","stnrhi":"5.6","nrind":"HIGH","fast":null,"dtc":"2024-07-21","dy":"112","visit":"FOLLOW-UP","visitnum":"7.0","epoch":"FOLLOW-UP","spec":null,"method":null},{"seq":"40","testcd":"HGB","test":"Hemoglobin","cat":"HEMATOLOGY","orres":"130.25","orresu":"g/L","stresc":"130.25","stresn":"130.25","stresu":"g/L","stnrlo":"130","stnrhi":"175","nrind":"NORMAL","fast":null,"dtc":"2024-07-21","dy":"112","visit":"FOLLOW-UP","visitnum":"7.0","epoch":"FOLLOW-UP","spec":null,"method":null},{"seq":"41","testcd":"PLAT","test":"Platelets","cat":"HEMATOLOGY","orres":"249.11","orresu":"10^9/L","stresc":"249.11","stresn":"249.11","stresu":"10^9/L","stnrlo":"150","stnrhi":"400","nrind":"NORMAL","fast":null,"dtc":"2024-07-21","dy":"112","visit":"FOLLOW-UP","visitnum":"7.0","epoch":"FOLLOW-UP","spec":null,"method":null},{"seq":"42","testcd":"WBC","test":"Leukocytes","cat":"HEMATOLOGY","orres":"4.63","orresu":"10^9/L","stresc":"4.63","stresn":"4.63","stresu":"10^9/L","stnrlo":"4.0","stnrhi":"11.0","nrind":"NORMAL","fast":null,"dtc":"2024-07-21","dy":"112","visit":"FOLLOW-UP","visitnum":"7.0","epoch":"FOLLOW-UP","spec":null,"method":null}]},"section_9_vital_signs":{"summary":{"total_records":56},"trends":{"BMI":[{"visit":"SCREENING","visitnum":"1.0","dtc":"2024-02-13","value":"25.2","unit":"kg/m2"},{"visit":"BASELINE","visitnum":"2.0","dtc":"2024-04-01","value":"25.2","unit":"kg/m2"},{"visit":"WEEK 2","visitnum":"3.0","dtc":"2024-04-17","value":"25.0","unit":"kg/m2"},{"visit":"WEEK 4","visitnum":"4.0","dtc":"2024-04-30","value":"24.8","unit":"kg/m2"},{"visit":"WEEK 8","visitnum":"5.0","dtc":"2024-05-25","value":"24.3","unit":"kg/m2"},{"visit":"WEEK 12","visitnum":"6.0","dtc":"2024-06-25","value":"24.7","unit":"kg/m2"},{"visit":"FOLLOW-UP","visitnum":"7.0","dtc":"2024-07-21","value":"24.8","unit":"kg/m2"}],"DIABP":[{"visit":"SCREENING","visitnum":"1.0","dtc":"2024-02-13","value":"78.1","unit":"mmHg"},{"visit":"BASELINE","visitnum":"2.0","dtc":"2024-04-01","value":"78.4","unit":"mmHg"},{"visit":"WEEK 2","visitnum":"3.0","dtc":"2024-04-17","value":"77.5","unit":"mmHg"},{"visit":"WEEK 4","visitnum":"4.0","dtc":"2024-04-30","value":"78.9","unit":"mmHg"},{"visit":"WEEK 8","visitnum":"5.0","dtc":"2024-05-25","value":"80.4","unit":"mmHg"},{"visit":"WEEK 12","visitnum":"6.0","dtc":"2024-06-25","value":"80.0","unit":"mmHg"},{"visit":"FOLLOW-UP","visitnum":"7.0","dtc":"2024-07-21","value":"79.7","unit":"mmHg"}],"HEIGHT":[{"visit":"SCREENING","visitnum":"1.0","dtc":"2024-02-13","value":"173.3","unit":"cm"},{"visit":"BASELINE","visitnum":"2.0","dtc":"2024-04-01","value":"172.6","unit":"cm"},{"visit":"WEEK 2","visitnum":"3.0","dtc":"2024-04-17","value":"173.0","unit":"cm"},{"visit":"WEEK 4","visitnum":"4.0","dtc":"2024-04-30","value":"173.4","unit":"cm"},{"visit":"WEEK 8","visitnum":"5.0","dtc":"2024-05-25","value":"173.3","unit":"cm"},{"visit":"WEEK 12","visitnum":"6.0","dtc":"2024-06-25","value":"173.3","unit":"cm"},{"visit":"FOLLOW-UP","visitnum":"7.0","dtc":"2024-07-21","value":"173.1","unit":"cm"}],"PULSE":[{"visit":"SCREENING","visitnum":"1.0","dtc":"2024-02-13","value":"55.2","unit":"beats/min"},{"visit":"BASELINE","visitnum":"2.0","dtc":"2024-04-01","value":"53.3","unit":"beats/min"},{"visit":"WEEK 2","visitnum":"3.0","dtc":"2024-04-17","value":"56.2","unit":"beats/min"},{"visit":"WEEK 4","visitnum":"4.0","dtc":"2024-04-30","value":"56.4","unit":"beats/min"},{"visit":"WEEK 8","visitnum":"5.0","dtc":"2024-05-25","value":"57.1","unit":"beats/min"},{"visit":"WEEK 12","visitnum":"6.0","dtc":"2024-06-25","value":"57.4","unit":"beats/min"},{"visit":"FOLLOW-UP","visitnum":"7.0","dtc":"2024-07-21","value":"60.2","unit":"beats/min"}],"RESP":[{"visit":"SCREENING","visitnum":"1.0","dtc":"2024-02-13","value":"20.0","unit":"breaths/min"},{"visit":"BASELINE","visitnum":"2.0","dtc":"2024-04-01","value":"18.0","unit":"breaths/min"},{"visit":"WEEK 2","visitnum":"3.0","dtc":"2024-04-17","value":"19.7","unit":"breaths/min"},{"visit":"WEEK 4","visitnum":"4.0","dtc":"2024-04-30","value":"19.1","unit":"breaths/min"},{"visit":"WEEK 8","visitnum":"5.0","dtc":"2024-05-25","value":"20.7","unit":"breaths/min"},{"visit":"WEEK 12","visitnum":"6.0","dtc":"2024-06-25","value":"18.0","unit":"breaths/min"},{"visit":"FOLLOW-UP","visitnum":"7.0","dtc":"2024-07-21","value":"18.8","unit":"breaths/min"}],"SYSBP":[{"visit":"SCREENING","visitnum":"1.0","dtc":"2024-02-13","value":"122.3","unit":"mmHg"},{"visit":"BASELINE","visitnum":"2.0","dtc":"2024-04-01","value":"122.5","unit":"mmHg"},{"visit":"WEEK 2","visitnum":"3.0","dtc":"2024-04-17","value":"121.6","unit":"mmHg"},{"visit":"WEEK 4","visitnum":"4.0","dtc":"2024-04-30","value":"123.1","unit":"mmHg"},{"visit":"WEEK 8","visitnum":"5.0","dtc":"2024-05-25","value":"124.0","unit":"mmHg"},{"visit":"WEEK 12","visitnum":"6.0","dtc":"2024-06-25","value":"123.8","unit":"mmHg"},{"visit":"FOLLOW-UP","visitnum":"7.0","dtc":"2024-07-21","value":"124.2","unit":"mmHg"}],"TEMP":[{"visit":"SCREENING","visitnum":"1.0","dtc":"2024-02-13","value":"37.0","unit":"C"},{"visit":"BASELINE","visitnum":"2.0","dtc":"2024-04-01","value":"37.0","unit":"C"},{"visit":"WEEK 2","visitnum":"3.0","dtc":"2024-04-17","value":"37.1","unit":"C"},{"visit":"WEEK 4","visitnum":"4.0","dtc":"2024-04-30","value":"37.3","unit":"C"},{"visit":"WEEK 8","visitnum":"5.0","dtc":"2024-05-25","value":"36.9","unit":"C"},{"visit":"WEEK 12","visitnum":"6.0","dtc":"2024-06-25","value":"36.9","unit":"C"},{"visit":"FOLLOW-UP","visitnum":"7.0","dtc":"2024-07-21","value":"36.8","unit":"C"}],"WEIGHT":[{"visit":"SCREENING","visitnum":"1.0","dtc":"2024-02-13","value":"75.7","unit":"kg"},{"visit":"BASELINE","visitnum":"2.0","dtc":"2024-04-01","value":"75.1","unit":"kg"},{"visit":"WEEK 2","visitnum":"3.0","dtc":"2024-04-17","value":"74.9","unit":"kg"},{"visit":"WEEK 4","visitnum":"4.0","dtc":"2024-04-30","value":"74.7","unit":"kg"},{"visit":"WEEK 8","visitnum":"5.0","dtc":"2024-05-25","value":"72.9","unit":"kg"},{"visit":"WEEK 12","visitnum":"6.0","dtc":"2024-06-25","value":"74.1","unit":"kg"},{"visit":"FOLLOW-UP","visitnum":"7.0","dtc":"2024-07-21","value":"74.3","unit":"kg"}]},"results":[{"seq":"1","testcd":"BMI","test":"BMI","cat":null,"orres":"25.2","orresu":"kg/m2","stresc":"25.2","stresn":"25.2","stresu":"kg/m2","stnrlo":null,"stnrhi":null,"nrind":null,"pos":null,"loc":null,"dtc":"2024-02-13","dy":"-48","visit":"SCREENING","visitnum":"1.0","epoch":"SCREENING"},{"seq":"2","testcd":"DIABP","test":"Diastolic Blood Pressure","cat":null,"orres":"78.1","orresu":"mmHg","stresc":"78.1","stresn":"78.1","stresu":"mmHg","stnrlo":null,"stnrhi":null,"nrind":null,"pos":null,"loc":null,"dtc":"2024-02-13","dy":"-48","visit":"SCREENING","visitnum":"1.0","epoch":"SCREENING"},{"seq":"3","testcd":"HEIGHT","test":"Height","cat":null,"orres":"173.3","orresu":"cm","stresc":"173.3","stresn":"173.3","stresu":"cm","stnrlo":null,"stnrhi":null,"nrind":null,"pos":null,"loc":null,"dtc":"2024-02-13","dy":"-48","visit":"SCREENING","visitnum":"1.0","epoch":"SCREENING"},{"seq":"4","testcd":"PULSE","test":"Pulse Rate","cat":null,"orres":"55.2","orresu":"beats/min","stresc":"55.2","stresn":"55.2","stresu":"beats/min","stnrlo":null,"stnrhi":null,"nrind":null,"pos":null,"loc":null,"dtc":"2024-02-13","dy":"-48","visit":"SCREENING","visitnum":"1.0","epoch":"SCREENING"},{"seq":"5","testcd":"RESP","test":"Respiratory Rate","cat":null,"orres":"20.0","orresu":"breaths/min","stresc":"20.0","stresn":"20.0","stresu":"breaths/min","stnrlo":null,"stnrhi":null,"nrind":null,"pos":null,"loc":null,"dtc":"2024-02-13","dy":"-48","visit":"SCREENING","visitnum":"1.0","epoch":"SCREENING"},{"seq":"6","testcd":"SYSBP","test":"Systolic Blood Pressure","cat":null,"orres":"122.3","orresu":"mmHg","stresc":"122.3","stresn":"122.3","stresu":"mmHg","stnrlo":null,"stnrhi":null,"nrind":null,"pos":null,"loc":null,"dtc":"2024-02-13","dy":"-48","visit":"SCREENING","visitnum":"1.0","epoch":"SCREENING"},{"seq":"7","testcd":"TEMP","test":"Temperature","cat":null,"orres":"37.0","orresu":"C","stresc":"37.0","stresn":"37.0","stresu":"C","stnrlo":null,"stnrhi":null,"nrind":null,"pos":null,"loc":null,"dtc":"2024-02-13","dy":"-48","visit":"SCREENING","visitnum":"1.0","epoch":"SCREENING"},{"seq":"8","testcd":"WEIGHT","test":"Weight","cat":null,"orres":"75.7","orresu":"kg","stresc":"75.7","stresn":"75.7","stresu":"kg","stnrlo":null,"stnrhi":null,"nrind":null,"pos":null,"loc":null,"dtc":"2024-02-13","dy":"-48","visit":"SCREENING","visitnum":"1.0","epoch":"SCREENING"},{"seq":"9","testcd":"BMI","test":"BMI","cat":null,"orres":"25.2","orresu":"kg/m2","stresc":"25.2","stresn":"25.2","stresu":"kg/m2","stnrlo":null,"stnrhi":null,"nrind":null,"pos":null,"loc":null,"dtc":"2024-04-01","dy":"1","visit":"BASELINE","visitnum":"2.0","epoch":"TREATMENT"},{"seq":"10","testcd":"DIABP","test":"Diastolic Blood Pressure","cat":null,"orres":"78.4","orresu":"mmHg","stresc":"78.4","stresn":"78.4","stresu":"mmHg","stnrlo":null,"stnrhi":null,"nrind":null,"pos":null,"loc":null,"dtc":"2024-04-01","dy":"1","visit":"BASELINE","visitnum":"2.0","epoch":"TREATMENT"},{"seq":"11","testcd":"HEIGHT","test":"Height","cat":null,"orres":"172.6","orresu":"cm","stresc":"172.6","stresn":"172.6","stresu":"cm","stnrlo":null,"stnrhi":null,"nrind":null,"pos":null,"loc":null,"dtc":"2024-04-01","dy":"1","visit":"BASELINE","visitnum":"2.0","epoch":"TREATMENT"},{"seq":"12","testcd":"PULSE","test":"Pulse Rate","cat":null,"orres":"53.3","orresu":"beats/min","stresc":"53.3","stresn":"53.3","stresu":"beats/min","stnrlo":null,"stnrhi":null,"nrind":null,"pos":null,"loc":null,"dtc":"2024-04-01","dy":"1","visit":"BASELINE","visitnum":"2.0","epoch":"TREATMENT"},{"seq":"13","testcd":"RESP","test":"Respiratory Rate","cat":null,"orres":"18.0","orresu":"breaths/min","stresc":"18.0","stresn":"18.0","stresu":"breaths/min","stnrlo":null,"stnrhi":null,"nrind":null,"pos":null,"loc":null,"dtc":"2024-04-01","dy":"1","visit":"BASELINE","visitnum":"2.0","epoch":"TREATMENT"},{"seq":"14","testcd":"SYSBP","test":"Systolic Blood Pressure","cat":null,"orres":"122.5","orresu":"mmHg","stresc":"122.5","stresn":"122.5","stresu":"mmHg","stnrlo":null,"stnrhi":null,"nrind":null,"pos":null,"loc":null,"dtc":"2024-04-01","dy":"1","visit":"BASELINE","visitnum":"2.0","epoch":"TREATMENT"},{"seq":"15","testcd":"TEMP","test":"Temperature","cat":null,"orres":"37.0","orresu":"C","stresc":"37.0","stresn":"37.0","stresu":"C","stnrlo":null,"stnrhi":null,"nrind":null,"pos":null,"loc":null,"dtc":"2024-04-01","dy":"1","visit":"BASELINE","visitnum":"2.0","epoch":"TREATMENT"},{"seq":"16","testcd":"WEIGHT","test":"Weight","cat":null,"orres":"75.1","orresu":"kg","stresc":"75.1","stresn":"75.1","stresu":"kg","stnrlo":null,"stnrhi":null,"nrind":null,"pos":null,"loc":null,"dtc":"2024-04-01","dy":"1","visit":"BASELINE","visitnum":"2.0","epoch":"TREATMENT"},{"seq":"17","testcd":"BMI","test":"BMI","cat":null,"orres":"25.0","orresu":"kg/m2","stresc":"25.0","stresn":"25.0","stresu":"kg/m2","stnrlo":null,"stnrhi":null,"nrind":null,"pos":null,"loc":null,"dtc":"2024-04-17","dy":"17","visit":"WEEK 2","visitnum":"3.0","epoch":"TREATMENT"},{"seq":"18","testcd":"DIABP","test":"Diastolic Blood Pressure","cat":null,"orres":"77.5","orresu":"mmHg","stresc":"77.5","stresn":"77.5","stresu":"mmHg","stnrlo":null,"stnrhi":null,"nrind":null,"pos":null,"loc":null,"dtc":"2024-04-17","dy":"17","visit":"WEEK 2","visitnum":"3.0","epoch":"TREATMENT"},{"seq":"19","testcd":"HEIGHT","test":"Height","cat":null,"orres":"173.0","orresu":"cm","stresc":"173.0","stresn":"173.0","stresu":"cm","stnrlo":null,"stnrhi":null,"nrind":null,"pos":null,"loc":null,"dtc":"2024-04-17","dy":"17","visit":"WEEK 2","visitnum":"3.0","epoch":"TREATMENT"},{"seq":"20","testcd":"PULSE","test":"Pulse Rate","cat":null,"orres":"56.2","orresu":"beats/min","stresc":"56.2","stresn":"56.2","stresu":"beats/min","stnrlo":null,"stnrhi":null,"nrind":null,"pos":null,"loc":null,"dtc":"2024-04-17","dy":"17","visit":"WEEK 2","visitnum":"3.0","epoch":"TREATMENT"},{"seq":"21","testcd":"RESP","test":"Respiratory Rate","cat":null,"orres":"19.7","orresu":"breaths/min","stresc":"19.7","stresn":"19.7","stresu":"breaths/min","stnrlo":null,"stnrhi":null,"nrind":null,"pos":null,"loc":null,"dtc":"2024-04-17","dy":"17","visit":"WEEK 2","visitnum":"3.0","epoch":"TREATMENT"},{"seq":"22","testcd":"SYSBP","test":"Systolic Blood Pressure","cat":null,"orres":"121.6","orresu":"mmHg","stresc":"121.6","stresn":"121.6","stresu":"mmHg","stnrlo":null,"stnrhi":null,"nrind":null,"pos":null,"loc":null,"dtc":"2024-04-17","dy":"17","visit":"WEEK 2","visitnum":"3.0","epoch":"TREATMENT"},{"seq":"23","testcd":"TEMP","test":"Temperature","cat":null,"orres":"37.1","orresu":"C","stresc":"37.1","stresn":"37.1","stresu":"C","stnrlo":null,"stnrhi":null,"nrind":null,"pos":null,"loc":null,"dtc":"2024-04-17","dy":"17","visit":"WEEK 2","visitnum":"3.0","epoch":"TREATMENT"},{"seq":"24","testcd":"WEIGHT","test":"Weight","cat":null,"orres":"74.9","orresu":"kg","stresc":"74.9","stresn":"74.9","stresu":"kg","stnrlo":null,"stnrhi":null,"nrind":null,"pos":null,"loc":null,"dtc":"2024-04-17","dy":"17","visit":"WEEK 2","visitnum":"3.0","epoch":"TREATMENT"},{"seq":"25","testcd":"BMI","test":"BMI","cat":null,"orres":"24.8","orresu":"kg/m2","stresc":"24.8","stresn":"24.8","stresu":"kg/m2","stnrlo":null,"stnrhi":null,"nrind":null,"pos":null,"loc":null,"dtc":"2024-04-30","dy":"30","visit":"WEEK 4","visitnum":"4.0","epoch":"TREATMENT"},{"seq":"26","testcd":"DIABP","test":"Diastolic Blood Pressure","cat":null,"orres":"78.9","orresu":"mmHg","stresc":"78.9","stresn":"78.9","stresu":"mmHg","stnrlo":null,"stnrhi":null,"nrind":null,"pos":null,"loc":null,"dtc":"2024-04-30","dy":"30","visit":"WEEK 4","visitnum":"4.0","epoch":"TREATMENT"},{"seq":"27","testcd":"HEIGHT","test":"Height","cat":null,"orres":"173.4","orresu":"cm","stresc":"173.4","stresn":"173.4","stresu":"cm","stnrlo":null,"stnrhi":null,"nrind":null,"pos":null,"loc":null,"dtc":"2024-04-30","dy":"30","visit":"WEEK 4","visitnum":"4.0","epoch":"TREATMENT"},{"seq":"28","testcd":"PULSE","test":"Pulse Rate","cat":null,"orres":"56.4","orresu":"beats/min","stresc":"56.4","stresn":"56.4","stresu":"beats/min","stnrlo":null,"stnrhi":null,"nrind":null,"pos":null,"loc":null,"dtc":"2024-04-30","dy":"30","visit":"WEEK 4","visitnum":"4.0","epoch":"TREATMENT"},{"seq":"29","testcd":"RESP","test":"Respiratory Rate","cat":null,"orres":"19.1","orresu":"breaths/min","stresc":"19.1","stresn":"19.1","stresu":"breaths/min","stnrlo":null,"stnrhi":null,"nrind":null,"pos":null,"loc":null,"dtc":"2024-04-30","dy":"30","visit":"WEEK 4","visitnum":"4.0","epoch":"TREATMENT"},{"seq":"30","testcd":"SYSBP","test":"Systolic Blood Pressure","cat":null,"orres":"123.1","orresu":"mmHg","stresc":"123.1","stresn":"123.1","stresu":"mmHg","stnrlo":null,"stnrhi":null,"nrind":null,"pos":null,"loc":null,"dtc":"2024-04-30","dy":"30","visit":"WEEK 4","visitnum":"4.0","epoch":"TREATMENT"},{"seq":"31","testcd":"TEMP","test":"Temperature","cat":null,"orres":"37.3","orresu":"C","stresc":"37.3","stresn":"37.3","stresu":"C","stnrlo":null,"stnrhi":null,"nrind":null,"pos":null,"loc":null,"dtc":"2024-04-30","dy":"30","visit":"WEEK 4","visitnum":"4.0","epoch":"TREATMENT"},{"seq":"32","testcd":"WEIGHT","test":"Weight","cat":null,"orres":"74.7","orresu":"kg","stresc":"74.7","stresn":"74.7","stresu":"kg","stnrlo":null,"stnrhi":null,"nrind":null,"pos":null,"loc":null,"dtc":"2024-04-30","dy":"30","visit":"WEEK 4","visitnum":"4.0","epoch":"TREATMENT"},{"seq":"33","testcd":"BMI","test":"BMI","cat":null,"orres":"24.3","orresu":"kg/m2","stresc":"24.3","stresn":"24.3","stresu":"kg/m2","stnrlo":null,"stnrhi":null,"nrind":null,"pos":null,"loc":null,"dtc":"2024-05-25","dy":"55","visit":"WEEK 8","visitnum":"5.0","epoch":"TREATMENT"},{"seq":"34","testcd":"DIABP","test":"Diastolic Blood Pressure","cat":null,"orres":"80.4","orresu":"mmHg","stresc":"80.4","stresn":"80.4","stresu":"mmHg","stnrlo":null,"stnrhi":null,"nrind":null,"pos":null,"loc":null,"dtc":"2024-05-25","dy":"55","visit":"WEEK 8","visitnum":"5.0","epoch":"TREATMENT"},{"seq":"35","testcd":"HEIGHT","test":"Height","cat":null,"orres":"173.3","orresu":"cm","stresc":"173.3","stresn":"173.3","stresu":"cm","stnrlo":null,"stnrhi":null,"nrind":null,"pos":null,"loc":null,"dtc":"2024-05-25","dy":"55","visit":"WEEK 8","visitnum":"5.0","epoch":"TREATMENT"},{"seq":"36","testcd":"PULSE","test":"Pulse Rate","cat":null,"orres":"57.1","orresu":"beats/min","stresc":"57.1","stresn":"57.1","stresu":"beats/min","stnrlo":null,"stnrhi":null,"nrind":null,"pos":null,"loc":null,"dtc":"2024-05-25","dy":"55","visit":"WEEK 8","visitnum":"5.0","epoch":"TREATMENT"},{"seq":"37","testcd":"RESP","test":"Respiratory Rate","cat":null,"orres":"20.7","orresu":"breaths/min","stresc":"20.7","stresn":"20.7","stresu":"breaths/min","stnrlo":null,"stnrhi":null,"nrind":null,"pos":null,"loc":null,"dtc":"2024-05-25","dy":"55","visit":"WEEK 8","visitnum":"5.0","epoch":"TREATMENT"},{"seq":"38","testcd":"SYSBP","test":"Systolic Blood Pressure","cat":null,"orres":"124.0","orresu":"mmHg","stresc":"124.0","stresn":"124.0","stresu":"mmHg","stnrlo":null,"stnrhi":null,"nrind":null,"pos":null,"loc":null,"dtc":"2024-05-25","dy":"55","visit":"WEEK 8","visitnum":"5.0","epoch":"TREATMENT"},{"seq":"39","testcd":"TEMP","test":"Temperature","cat":null,"orres":"36.9","orresu":"C","stresc":"36.9","stresn":"36.9","stresu":"C","stnrlo":null,"stnrhi":null,"nrind":null,"pos":null,"loc":null,"dtc":"2024-05-25","dy":"55","visit":"WEEK 8","visitnum":"5.0","epoch":"TREATMENT"},{"seq":"40","testcd":"WEIGHT","test":"Weight","cat":null,"orres":"72.9","orresu":"kg","stresc":"72.9","stresn":"72.9","stresu":"kg","stnrlo":null,"stnrhi":null,"nrind":null,"pos":null,"loc":null,"dtc":"2024-05-25","dy":"55","visit":"WEEK 8","visitnum":"5.0","epoch":"TREATMENT"},{"seq":"41","testcd":"BMI","test":"BMI","cat":null,"orres":"24.7","orresu":"kg/m2","stresc":"24.7","stresn":"24.7","stresu":"kg/m2","stnrlo":null,"stnrhi":null,"nrind":null,"pos":null,"loc":null,"dtc":"2024-06-25","dy":"86","visit":"WEEK 12","visitnum":"6.0","epoch":"TREATMENT"},{"seq":"42","testcd":"DIABP","test":"Diastolic Blood Pressure","cat":null,"orres":"80.0","orresu":"mmHg","stresc":"80.0","stresn":"80.0","stresu":"mmHg","stnrlo":null,"stnrhi":null,"nrind":null,"pos":null,"loc":null,"dtc":"2024-06-25","dy":"86","visit":"WEEK 12","visitnum":"6.0","epoch":"TREATMENT"},{"seq":"43","testcd":"HEIGHT","test":"Height","cat":null,"orres":"173.3","orresu":"cm","stresc":"173.3","stresn":"173.3","stresu":"cm","stnrlo":null,"stnrhi":null,"nrind":null,"pos":null,"loc":null,"dtc":"2024-06-25","dy":"86","visit":"WEEK 12","visitnum":"6.0","epoch":"TREATMENT"},{"seq":"44","testcd":"PULSE","test":"Pulse Rate","cat":null,"orres":"57.4","orresu":"beats/min","stresc":"57.4","stresn":"57.4","stresu":"beats/min","stnrlo":null,"stnrhi":null,"nrind":null,"pos":null,"loc":null,"dtc":"2024-06-25","dy":"86","visit":"WEEK 12","visitnum":"6.0","epoch":"TREATMENT"},{"seq":"45","testcd":"RESP","test":"Respiratory Rate","cat":null,"orres":"18.0","orresu":"breaths/min","stresc":"18.0","stresn":"18.0","stresu":"breaths/min","stnrlo":null,"stnrhi":null,"nrind":null,"pos":null,"loc":null,"dtc":"2024-06-25","dy":"86","visit":"WEEK 12","visitnum":"6.0","epoch":"TREATMENT"},{"seq":"46","testcd":"SYSBP","test":"Systolic Blood Pressure","cat":null,"orres":"123.8","orresu":"mmHg","stresc":"123.8","stresn":"123.8","stresu":"mmHg","stnrlo":null,"stnrhi":null,"nrind":null,"pos":null,"loc":null,"dtc":"2024-06-25","dy":"86","visit":"WEEK 12","visitnum":"6.0","epoch":"TREATMENT"},{"seq":"47","testcd":"TEMP","test":"Temperature","cat":null,"orres":"36.9","orresu":"C","stresc":"36.9","stresn":"36.9","stresu":"C","stnrlo":null,"stnrhi":null,"nrind":null,"pos":null,"loc":null,"dtc":"2024-06-25","dy":"86","visit":"WEEK 12","visitnum":"6.0","epoch":"TREATMENT"},{"seq":"48","testcd":"WEIGHT","test":"Weight","cat":null,"orres":"74.1","orresu":"kg","stresc":"74.1","stresn":"74.1","stresu":"kg","stnrlo":null,"stnrhi":null,"nrind":null,"pos":null,"loc":null,"dtc":"2024-06-25","dy":"86","visit":"WEEK 12","visitnum":"6.0","epoch":"TREATMENT"},{"seq":"49","testcd":"BMI","test":"BMI","cat":null,"orres":"24.8","orresu":"kg/m2","stresc":"24.8","stresn":"24.8","stresu":"kg/m2","stnrlo":null,"stnrhi":null,"nrind":null,"pos":null,"loc":null,"dtc":"2024-07-21","dy":"112","visit":"FOLLOW-UP","visitnum":"7.0","epoch":"FOLLOW-UP"},{"seq":"50","testcd":"DIABP","test":"Diastolic Blood Pressure","cat":null,"orres":"79.7","orresu":"mmHg","stresc":"79.7","stresn":"79.7","stresu":"mmHg","stnrlo":null,"stnrhi":null,"nrind":null,"pos":null,"loc":null,"dtc":"2024-07-21","dy":"112","visit":"FOLLOW-UP","visitnum":"7.0","epoch":"FOLLOW-UP"},{"seq":"51","testcd":"HEIGHT","test":"Height","cat":null,"orres":"173.1","orresu":"cm","stresc":"173.1","stresn":"173.1","stresu":"cm","stnrlo":null,"stnrhi":null,"nrind":null,"pos":null,"loc":null,"dtc":"2024-07-21","dy":"112","visit":"FOLLOW-UP","visitnum":"7.0","epoch":"FOLLOW-UP"},{"seq":"52","testcd":"PULSE","test":"Pulse Rate","cat":null,"orres":"60.2","orresu":"beats/min","stresc":"60.2","stresn":"60.2","stresu":"beats/min","stnrlo":null,"stnrhi":null,"nrind":null,"pos":null,"loc":null,"dtc":"2024-07-21","dy":"112","visit":"FOLLOW-UP","visitnum":"7.0","epoch":"FOLLOW-UP"},{"seq":"53","testcd":"RESP","test":"Respiratory Rate","cat":null,"orres":"18.8","orresu":"breaths/min","stresc":"18.8","stresn":"18.8","stresu":"breaths/min","stnrlo":null,"stnrhi":null,"nrind":null,"pos":null,"loc":null,"dtc":"2024-07-21","dy":"112","visit":"FOLLOW-UP","visitnum":"7.0","epoch":"FOLLOW-UP"},{"seq":"54","testcd":"SYSBP","test":"Systolic Blood Pressure","cat":null,"orres":"124.2","orresu":"mmHg","stresc":"124.2","stresn":"124.2","stresu":"mmHg","stnrlo":null,"stnrhi":null,"nrind":null,"pos":null,"loc":null,"dtc":"2024-07-21","dy":"112","visit":"FOLLOW-UP","visitnum":"7.0","epoch":"FOLLOW-UP"},{"seq":"55","testcd":"TEMP","test":"Temperature","cat":null,"orres":"36.8","orresu":"C","stresc":"36.8","stresn":"36.8","stresu":"C","stnrlo":null,"stnrhi":null,"nrind":null,"pos":null,"loc":null,"dtc":"2024-07-21","dy":"112","visit":"FOLLOW-UP","visitnum":"7.0","epoch":"FOLLOW-UP"},{"seq":"56","testcd":"WEIGHT","test":"Weight","cat":null,"orres":"74.3","orresu":"kg","stresc":"74.3","stresn":"74.3","stresu":"kg","stnrlo":null,"stnrhi":null,"nrind":null,"pos":null,"loc":null,"dtc":"2024-07-21","dy":"112","visit":"FOLLOW-UP","visitnum":"7.0","epoch":"FOLLOW-UP"}]},"section_10_questionnaires_and_scores":{"questionnaires":[],"findings_about":[]},"section_11_protocol_deviations":{"deviations":[{"seq":"1","term":"Missed GB001 dose on 2024-04-12","decod":"MISSED DOSE","cat":"MINOR","scat":"DOSING","start_dtc":"2024-04-12","end_dtc":null,"visit":null},{"seq":"2","term":"Missed GB001 dose on 2024-04-23","decod":"MISSED DOSE","cat":"MINOR","scat":"DOSING","start_dtc":"2024-04-23","end_dtc":null,"visit":null},{"seq":"3","term":"Missed GB001 dose on 2024-04-26","decod":"MISSED DOSE","cat":"MINOR","scat":"DOSING","start_dtc":"2024-04-26","end_dtc":null,"visit":null},{"seq":"4","term":"Missed GB001 dose on 2024-05-10","decod":"MISSED DOSE","cat":"MINOR","scat":"DOSING","start_dtc":"2024-05-10","end_dtc":null,"visit":null},{"seq":"5","term":"Missed GB001 dose on 2024-05-13","decod":"MISSED DOSE","cat":"MINOR","scat":"DOSING","start_dtc":"2024-05-13","end_dtc":null,"visit":null},{"seq":"6","term":"Missed GB001 dose on 2024-05-15","decod":"MISSED DOSE","cat":"MINOR","scat":"DOSING","start_dtc":"2024-05-15","end_dtc":null,"visit":null}],"total":6},"section_12_disposition":{"completion_status":"COMPLETED","disposition_records":[{"seq":"1","term":"INFORMED CONSENT OBTAINED","decod":"INFORMED CONSENT OBTAINED","cat":"PROTOCOL MILESTONE","scat":null,"dtc":"2024-03-15","dy":null,"visit":null,"epoch":"SCREENING"},{"seq":"2","term":"RANDOMIZED","decod":"RANDOMIZED","cat":"PROTOCOL MILESTONE","scat":null,"dtc":"2024-04-01","dy":null,"visit":null,"epoch":"TREATMENT"},{"seq":"3","term":"COMPLETED","decod":"COMPLETED","cat":"DISPOSITION EVENT","scat":null,"dtc":"2024-08-18","dy":null,"visit":null,"epoch":"FOLLOW-UP"}],"death":null},"section_13_hospitalizations":{"items":[],"total":0},"section_14_substance_use":{"items":[{"seq":"1","substance":"ALCOHOL","decod":"ALCOHOL","cat":"ALCOHOL","scat":null,"usage":"Y","dose":"9.0","dosu":"DRINKS/WEEK","freq":"QW","start_dtc":"2007-03-20","end_dtc":null},{"seq":"2","substance":"COFFEE","decod":"COFFEE","cat":"CAFFEINE","scat":null,"usage":"Y","dose":"1.0","dosu":"CUPS/DAY","freq":"QD","start_dtc":"2006-03-20","end_dtc":null},{"seq":"3","substance":"CIGARETTES","decod":"CIGARETTES","cat":"TOBACCO","scat":"CIGARETTES","usage":"N","dose":null,"dosu":null,"freq":null,"start_dtc":null,"end_dtc":null}],"total":3},"section_15_subject_status":{"items":[{"seq":"1","testcd":"SURVSTAT","test":"Survival Status","orres":"ALIVE","stresc":"ALIVE","dtc":"2024-08-18","visit":"END OF STUDY","epoch":"FOLLOW-UP"}],"total":1}}