{"subject_id":"GB001-ASTHMA-201-SITE001-0496","study_id":"GB001-ASTHMA-201","generated_at":"2026-06-16T07:22:31.006528+00:00","sdtmig_version":"3.4","flags":{"has_serious_ae":true,"has_fatal_ae":false,"has_protocol_deviation":true,"n_protocol_deviations":6,"n_adverse_events":2,"n_concomitant_meds":1,"max_ae_severity":"SEVERE","screen_failure":false,"discontinued_early":false,"discontinuation_reason":null,"death":false,"exposure_days":79},"timeline":[{"dtc":"2024-01-07","dy":"-56","event":"VISIT: SCREENING","domain":"SV","category":"visit"},{"dtc":"2024-02-13","dy":"-19","event":"INFORMED CONSENT OBTAINED","domain":"DS","category":"milestone"},{"dtc":"2024-03-03","dy":"1","event":"RANDOMIZED","domain":"DS","category":"milestone"},{"dtc":"2024-03-03","dy":"1","event":"FIRST DOSE: PLACEBO","domain":"EX","category":"exposure"},{"dtc":"2024-03-03","dy":"1","event":"VISIT: BASELINE","domain":"SV","category":"visit"},{"dtc":"2024-03-15","dy":"13","event":"AE: Fatigue (MILD)","domain":"AE","category":"adverse_event"},{"dtc":"2024-03-18","dy":"16","event":"DEVIATION: MISSED DOSE","domain":"DV","category":"deviation"},{"dtc":"2024-03-19","dy":"17","event":"DEVIATION: VISIT OCCURRED OUTSIDE VISIT WINDOW","domain":"DV","category":"deviation"},{"dtc":"2024-03-19","dy":"17","event":"VISIT: WEEK 2","domain":"SV","category":"visit"},{"dtc":"2024-04-02","dy":"31","event":"DEVIATION: VISIT OCCURRED OUTSIDE VISIT WINDOW","domain":"DV","category":"deviation"},{"dtc":"2024-04-02","dy":"31","event":"VISIT: WEEK 4","domain":"SV","category":"visit"},{"dtc":"2024-04-25","dy":"54","event":"DEVIATION: VISIT OCCURRED OUTSIDE VISIT WINDOW","domain":"DV","category":"deviation"},{"dtc":"2024-04-25","dy":"54","event":"VISIT: WEEK 8","domain":"SV","category":"visit"},{"dtc":"2024-05-01","dy":"60","event":"DEVIATION: MISSED DOSE","domain":"DV","category":"deviation"},{"dtc":"2024-05-06","dy":"65","event":"DEVIATION: MISSED DOSE","domain":"DV","category":"deviation"},{"dtc":"2024-05-08","dy":"67","event":"AE: Upper respiratory tract infection (SEVERE) [SERIOUS]","domain":"AE","category":"adverse_event"},{"dtc":"2024-05-08","dy":"67","event":"CM START: PARACETAMOL","domain":"CM","category":"concomitant_med"},{"dtc":"2024-05-25","dy":"84","event":"VISIT: WEEK 12","domain":"SV","category":"visit"},{"dtc":"2024-06-28","dy":"118","event":"VISIT: FOLLOW-UP","domain":"SV","category":"visit"},{"dtc":"2024-07-20","dy":"140","event":"COMPLETED","domain":"DS","category":"milestone"}],"section_1_demographics":{"usubjid":"GB001-ASTHMA-201-SITE001-0496","subjid":"0496","siteid":"SITE001","age":"36","ageu":"YEARS","sex":"F","race":"WHITE","ethnicity":"NOT HISPANIC OR LATINO","country":"USA","arm":"Placebo","armcd":"PBO","actarm":"Placebo","actarmcd":"PBO","randomization_date":null,"informed_consent_date":"2024-02-13","reference_start_date":"2024-03-03","reference_end_date":"2024-07-20","screen_failure":false,"death_flag":null,"death_date":null,"subject_characteristics":[{"testcd":"ALCUSE","test":"Alcohol Use","orres":"HEAVY DRINKER","stresc":"HEAVY DRINKER","visit":null,"dtc":"2024-02-13"},{"testcd":"BMI","test":"Body Mass Index","orres":"28.7","stresc":"28.7","visit":null,"dtc":"2024-02-13"},{"testcd":"DURDIS","test":"Duration of Disease","orres":"85 months","stresc":"85","visit":null,"dtc":"2024-02-13"},{"testcd":"TOBUSE","test":"Tobacco Use","orres":"NEVER SMOKED","stresc":"NEVER SMOKED","visit":null,"dtc":"2024-02-13"}]},"section_2_medical_history":{"items":[{"seq":"1","term":"DEPRESSION","decod":"DEPRESSION","cat":"PSYCHIATRIC","scat":null,"presp":null,"occur":null,"status":null,"onset_dtc":"2023-02","end_dtc":"2023-11-13","visit":null},{"seq":"2","term":"DIABETES MELLITUS TYPE 2","decod":"DIABETES MELLITUS TYPE 2","cat":"ENDOCRINE","scat":null,"presp":null,"occur":null,"status":null,"onset_dtc":"2018-02-14","end_dtc":null,"visit":null},{"seq":"3","term":"GASTROESOPHAGEAL REFLUX DISEASE","decod":"GASTROESOPHAGEAL REFLUX DISEASE","cat":"GASTROINTESTINAL","scat":null,"presp":null,"occur":null,"status":null,"onset_dtc":"2023-02-13","end_dtc":"2023-07-11","visit":null},{"seq":"4","term":"HYPERLIPIDEMIA","decod":"HYPERLIPIDEMIA","cat":"METABOLIC","scat":null,"presp":null,"occur":null,"status":null,"onset_dtc":"2018-02-14","end_dtc":"2019-12-15","visit":null},{"seq":"5","term":"HYPERTENSION","decod":"HYPERTENSION","cat":"CARDIOVASCULAR","scat":null,"presp":null,"occur":null,"status":null,"onset_dtc":"2017-02-14","end_dtc":null,"visit":null}]},"section_3_inclusion_exclusion":{"criteria":[]},"section_4_trial_participation":{"visits":[{"visitnum":"1.0","visit":"SCREENING","start_dtc":"2024-01-07","end_dtc":"2024-01-07","updes":null},{"visitnum":"2.0","visit":"BASELINE","start_dtc":"2024-03-03","end_dtc":"2024-03-03","updes":null},{"visitnum":"3.0","visit":"WEEK 2","start_dtc":"2024-03-19","end_dtc":"2024-03-19","updes":null},{"visitnum":"4.0","visit":"WEEK 4","start_dtc":"2024-04-02","end_dtc":"2024-04-02","updes":null},{"visitnum":"5.0","visit":"WEEK 8","start_dtc":"2024-04-25","end_dtc":"2024-04-25","updes":null},{"visitnum":"6.0","visit":"WEEK 12","start_dtc":"2024-05-25","end_dtc":"2024-05-25","updes":null},{"visitnum":"7.0","visit":"FOLLOW-UP","start_dtc":"2024-06-28","end_dtc":"2024-06-28","updes":null}],"epochs":[{"seq":"1","etcd":"SCRN","element":"Screening","start_dtc":"2024-02-04","end_dtc":"2024-03-03","updes":null},{"seq":"2","etcd":"TRT","element":"Treatment","start_dtc":"2024-03-03","end_dtc":"2024-05-26","updes":null},{"seq":"3","etcd":"FU","element":"Follow-up","start_dtc":"2024-05-26","end_dtc":"2024-06-22","updes":null}],"visit_count":7},"section_5_concomitant_medications":{"medications":[{"seq":"1","trt":"PARACETAMOL","decod":"PARACETAMOL","cat":"CONCOMITANT","dose":"500","doseu":null,"dosef":"PRN","route":"ORAL","indication":"UPPER RESPIRATORY TRACT INFECTION","start_dtc":"2024-05-08","end_dtc":"2024-06-05","ongoing":null,"visit":null}]},"section_6_exposure":{"exposure_as_administered":[{"seq":"1","trt":"PLACEBO","dose":"0.0","doseu":null,"dosef":"QD","route":"ORAL","lot":null,"start_dtc":"2024-03-03","end_dtc":"2024-05-21","start_dy":"1","end_dy":"80","epoch":"TREATMENT","visit":null}],"exposure_as_collected":[{"seq":"1","trt":"PLACEBO","dose":null,"doseu":null,"dosef":"QD","route":"ORAL","start_dtc":"2024-03-03","end_dtc":"2024-03-03","visit":"BASELINE"},{"seq":"2","trt":"PLACEBO","dose":null,"doseu":null,"dosef":"QD","route":"ORAL","start_dtc":"2024-03-04","end_dtc":"2024-03-04","visit":"BASELINE"},{"seq":"3","trt":"PLACEBO","dose":null,"doseu":null,"dosef":"QD","route":"ORAL","start_dtc":"2024-03-05","end_dtc":"2024-03-05","visit":"BASELINE"},{"seq":"4","trt":"PLACEBO","dose":null,"doseu":null,"dosef":"QD","route":"ORAL","start_dtc":"2024-03-06","end_dtc":"2024-03-06","visit":"BASELINE"},{"seq":"5","trt":"PLACEBO","dose":null,"doseu":null,"dosef":"QD","route":"ORAL","start_dtc":"2024-03-07","end_dtc":"2024-03-07","visit":null},{"seq":"6","trt":"PLACEBO","dose":null,"doseu":null,"dosef":"QD","route":"ORAL","start_dtc":"2024-03-08","end_dtc":"2024-03-08","visit":null},{"seq":"7","trt":"PLACEBO","dose":null,"doseu":null,"dosef":"QD","route":"ORAL","start_dtc":"2024-03-09","end_dtc":"2024-03-09","visit":null},{"seq":"8","trt":"PLACEBO","dose":null,"doseu":null,"dosef":"QD","route":"ORAL","start_dtc":"2024-03-10","end_dtc":"2024-03-10","visit":null},{"seq":"9","trt":"PLACEBO","dose":null,"doseu":null,"dosef":"QD","route":"ORAL","start_dtc":"2024-03-11","end_dtc":"2024-03-11","visit":null},{"seq":"10","trt":"PLACEBO","dose":null,"doseu":null,"dosef":"QD","route":"ORAL","start_dtc":"2024-03-12","end_dtc":"2024-03-12","visit":null},{"seq":"11","trt":"PLACEBO","dose":null,"doseu":null,"dosef":"QD","route":"ORAL","start_dtc":"2024-03-13","end_dtc":"2024-03-13","visit":null},{"seq":"12","trt":"PLACEBO","dose":null,"doseu":null,"dosef":"QD","route":"ORAL","start_dtc":"2024-03-14","end_dtc":"2024-03-14","visit":"WEEK 2"},{"seq":"13","trt":"PLACEBO","dose":null,"doseu":null,"dosef":"QD","route":"ORAL","start_dtc":"2024-03-15","end_dtc":"2024-03-15","visit":"WEEK 2"},{"seq":"14","trt":"PLACEBO","dose":null,"doseu":null,"dosef":"QD","route":"ORAL","start_dtc":"2024-03-16","end_dtc":"2024-03-16","visit":"WEEK 2"},{"seq":"15","trt":"PLACEBO","dose":null,"doseu":null,"dosef":"QD","route":"ORAL","start_dtc":"2024-03-17","end_dtc":"2024-03-17","visit":"WEEK 2"},{"seq":"16","trt":"PLACEBO","dose":null,"doseu":null,"dosef":"QD","route":"ORAL","start_dtc":"2024-03-18","end_dtc":"2024-03-18","visit":"WEEK 2"},{"seq":"17","trt":"PLACEBO","dose":null,"doseu":null,"dosef":"QD","route":"ORAL","start_dtc":"2024-03-19","end_dtc":"2024-03-19","visit":"WEEK 2"},{"seq":"18","trt":"PLACEBO","dose":null,"doseu":null,"dosef":"QD","route":"ORAL","start_dtc":"2024-03-20","end_dtc":"2024-03-20","visit":"WEEK 2"},{"seq":"19","trt":"PLACEBO","dose":null,"doseu":null,"dosef":"QD","route":"ORAL","start_dtc":"2024-03-21","end_dtc":"2024-03-21","visit":null},{"seq":"20","trt":"PLACEBO","dose":null,"doseu":null,"dosef":"QD","route":"ORAL","start_dtc":"2024-03-22","end_dtc":"2024-03-22","visit":null},{"seq":"21","trt":"PLACEBO","dose":null,"doseu":null,"dosef":"QD","route":"ORAL","start_dtc":"2024-03-23","end_dtc":"2024-03-23","visit":null},{"seq":"22","trt":"PLACEBO","dose":null,"doseu":null,"dosef":"QD","route":"ORAL","start_dtc":"2024-03-24","end_dtc":"2024-03-24","visit":null},{"seq":"23","trt":"PLACEBO","dose":null,"doseu":null,"dosef":"QD","route":"ORAL","start_dtc":"2024-03-25","end_dtc":"2024-03-25","visit":null},{"seq":"24","trt":"PLACEBO","dose":null,"doseu":null,"dosef":"QD","route":"ORAL","start_dtc":"2024-03-26","end_dtc":"2024-03-26","visit":null},{"seq":"25","trt":"PLACEBO","dose":null,"doseu":null,"dosef":"QD","route":"ORAL","start_dtc":"2024-03-27","end_dtc":"2024-03-27","visit":null},{"seq":"26","trt":"PLACEBO","dose":null,"doseu":null,"dosef":"QD","route":"ORAL","start_dtc":"2024-03-28","end_dtc":"2024-03-28","visit":"WEEK 4"},{"seq":"27","trt":"PLACEBO","dose":null,"doseu":null,"dosef":"QD","route":"ORAL","start_dtc":"2024-03-29","end_dtc":"2024-03-29","visit":"WEEK 4"},{"seq":"28","trt":"PLACEBO","dose":null,"doseu":null,"dosef":"QD","route":"ORAL","start_dtc":"2024-03-30","end_dtc":"2024-03-30","visit":"WEEK 4"},{"seq":"29","trt":"PLACEBO","dose":null,"doseu":null,"dosef":"QD","route":"ORAL","start_dtc":"2024-03-31","end_dtc":"2024-03-31","visit":"WEEK 4"},{"seq":"30","trt":"PLACEBO","dose":null,"doseu":null,"dosef":"QD","route":"ORAL","start_dtc":"2024-04-01","end_dtc":"2024-04-01","visit":"WEEK 4"},{"seq":"31","trt":"PLACEBO","dose":null,"doseu":null,"dosef":"QD","route":"ORAL","start_dtc":"2024-04-02","end_dtc":"2024-04-02","visit":"WEEK 4"},{"seq":"32","trt":"PLACEBO","dose":null,"doseu":null,"dosef":"QD","route":"ORAL","start_dtc":"2024-04-03","end_dtc":"2024-04-03","visit":"WEEK 4"},{"seq":"33","trt":"PLACEBO","dose":null,"doseu":null,"dosef":"QD","route":"ORAL","start_dtc":"2024-04-04","end_dtc":"2024-04-04","visit":null},{"seq":"34","trt":"PLACEBO","dose":null,"doseu":null,"dosef":"QD","route":"ORAL","start_dtc":"2024-04-05","end_dtc":"2024-04-05","visit":null},{"seq":"35","trt":"PLACEBO","dose":null,"doseu":null,"dosef":"QD","route":"ORAL","start_dtc":"2024-04-06","end_dtc":"2024-04-06","visit":null},{"seq":"36","trt":"PLACEBO","dose":null,"doseu":null,"dosef":"QD","route":"ORAL","start_dtc":"2024-04-07","end_dtc":"2024-04-07","visit":null},{"seq":"37","trt":"PLACEBO","dose":null,"doseu":null,"dosef":"QD","route":"ORAL","start_dtc":"2024-04-08","end_dtc":"2024-04-08","visit":null},{"seq":"38","trt":"PLACEBO","dose":null,"doseu":null,"dosef":"QD","route":"ORAL","start_dtc":"2024-04-09","end_dtc":"2024-04-09","visit":null},{"seq":"39","trt":"PLACEBO","dose":null,"doseu":null,"dosef":"QD","route":"ORAL","start_dtc":"2024-04-10","end_dtc":"2024-04-10","visit":null},{"seq":"40","trt":"PLACEBO","dose":null,"doseu":null,"dosef":"QD","route":"ORAL","start_dtc":"2024-04-11","end_dtc":"2024-04-11","visit":null},{"seq":"41","trt":"PLACEBO","dose":null,"doseu":null,"dosef":"QD","route":"ORAL","start_dtc":"2024-04-12","end_dtc":"2024-04-12","visit":null},{"seq":"42","trt":"PLACEBO","dose":null,"doseu":null,"dosef":"QD","route":"ORAL","start_dtc":"2024-04-13","end_dtc":"2024-04-13","visit":null},{"seq":"43","trt":"PLACEBO","dose":null,"doseu":null,"dosef":"QD","route":"ORAL","start_dtc":"2024-04-14","end_dtc":"2024-04-14","visit":null},{"seq":"44","trt":"PLACEBO","dose":null,"doseu":null,"dosef":"QD","route":"ORAL","start_dtc":"2024-04-15","end_dtc":"2024-04-15","visit":null},{"seq":"45","trt":"PLACEBO","dose":null,"doseu":null,"dosef":"QD","route":"ORAL","start_dtc":"2024-04-16","end_dtc":"2024-04-16","visit":null},{"seq":"46","trt":"PLACEBO","dose":null,"doseu":null,"dosef":"QD","route":"ORAL","start_dtc":"2024-04-17","end_dtc":"2024-04-17","visit":null},{"seq":"47","trt":"PLACEBO","dose":null,"doseu":null,"dosef":"QD","route":"ORAL","start_dtc":"2024-04-18","end_dtc":"2024-04-18","visit":null},{"seq":"48","trt":"PLACEBO","dose":null,"doseu":null,"dosef":"QD","route":"ORAL","start_dtc":"2024-04-19","end_dtc":"2024-04-19","visit":null},{"seq":"49","trt":"PLACEBO","dose":null,"doseu":null,"dosef":"QD","route":"ORAL","start_dtc":"2024-04-20","end_dtc":"2024-04-20","visit":null},{"seq":"50","trt":"PLACEBO","dose":null,"doseu":null,"dosef":"QD","route":"ORAL","start_dtc":"2024-04-21","end_dtc":"2024-04-21","visit":null},{"seq":"51","trt":"PLACEBO","dose":null,"doseu":null,"dosef":"QD","route":"ORAL","start_dtc":"2024-04-22","end_dtc":"2024-04-22","visit":null},{"seq":"52","trt":"PLACEBO","dose":null,"doseu":null,"dosef":"QD","route":"ORAL","start_dtc":"2024-04-23","end_dtc":"2024-04-23","visit":null},{"seq":"53","trt":"PLACEBO","dose":null,"doseu":null,"dosef":"QD","route":"ORAL","start_dtc":"2024-04-24","end_dtc":"2024-04-24","visit":null},{"seq":"54","trt":"PLACEBO","dose":null,"doseu":null,"dosef":"QD","route":"ORAL","start_dtc":"2024-04-25","end_dtc":"2024-04-25","visit":"WEEK 8"},{"seq":"55","trt":"PLACEBO","dose":null,"doseu":null,"dosef":"QD","route":"ORAL","start_dtc":"2024-04-26","end_dtc":"2024-04-26","visit":"WEEK 8"},{"seq":"56","trt":"PLACEBO","dose":null,"doseu":null,"dosef":"QD","route":"ORAL","start_dtc":"2024-04-27","end_dtc":"2024-04-27","visit":"WEEK 8"},{"seq":"57","trt":"PLACEBO","dose":null,"doseu":null,"dosef":"QD","route":"ORAL","start_dtc":"2024-04-28","end_dtc":"2024-04-28","visit":"WEEK 8"},{"seq":"58","trt":"PLACEBO","dose":null,"doseu":null,"dosef":"QD","route":"ORAL","start_dtc":"2024-04-29","end_dtc":"2024-04-29","visit":"WEEK 8"},{"seq":"59","trt":"PLACEBO","dose":null,"doseu":null,"dosef":"QD","route":"ORAL","start_dtc":"2024-04-30","end_dtc":"2024-04-30","visit":"WEEK 8"},{"seq":"60","trt":"PLACEBO","dose":null,"doseu":null,"dosef":"QD","route":"ORAL","start_dtc":"2024-05-01","end_dtc":"2024-05-01","visit":"WEEK 8"},{"seq":"61","trt":"PLACEBO","dose":null,"doseu":null,"dosef":"QD","route":"ORAL","start_dtc":"2024-05-02","end_dtc":"2024-05-02","visit":null},{"seq":"62","trt":"PLACEBO","dose":null,"doseu":null,"dosef":"QD","route":"ORAL","start_dtc":"2024-05-03","end_dtc":"2024-05-03","visit":null},{"seq":"63","trt":"PLACEBO","dose":null,"doseu":null,"dosef":"QD","route":"ORAL","start_dtc":"2024-05-04","end_dtc":"2024-05-04","visit":null},{"seq":"64","trt":"PLACEBO","dose":null,"doseu":null,"dosef":"QD","route":"ORAL","start_dtc":"2024-05-05","end_dtc":"2024-05-05","visit":null},{"seq":"65","trt":"PLACEBO","dose":null,"doseu":null,"dosef":"QD","route":"ORAL","start_dtc":"2024-05-06","end_dtc":"2024-05-06","visit":null},{"seq":"66","trt":"PLACEBO","dose":null,"doseu":null,"dosef":"QD","route":"ORAL","start_dtc":"2024-05-07","end_dtc":"2024-05-07","visit":null},{"seq":"67","trt":"PLACEBO","dose":null,"doseu":null,"dosef":"QD","route":"ORAL","start_dtc":"2024-05-08","end_dtc":"2024-05-08","visit":null},{"seq":"68","trt":"PLACEBO","dose":null,"doseu":null,"dosef":"QD","route":"ORAL","start_dtc":"2024-05-09","end_dtc":"2024-05-09","visit":null},{"seq":"69","trt":"PLACEBO","dose":null,"doseu":null,"dosef":"QD","route":"ORAL","start_dtc":"2024-05-10","end_dtc":"2024-05-10","visit":null},{"seq":"70","trt":"PLACEBO","dose":null,"doseu":null,"dosef":"QD","route":"ORAL","start_dtc":"2024-05-11","end_dtc":"2024-05-11","visit":null},{"seq":"71","trt":"PLACEBO","dose":null,"doseu":null,"dosef":"QD","route":"ORAL","start_dtc":"2024-05-12","end_dtc":"2024-05-12","visit":null},{"seq":"72","trt":"PLACEBO","dose":null,"doseu":null,"dosef":"QD","route":"ORAL","start_dtc":"2024-05-13","end_dtc":"2024-05-13","visit":null},{"seq":"73","trt":"PLACEBO","dose":null,"doseu":null,"dosef":"QD","route":"ORAL","start_dtc":"2024-05-14","end_dtc":"2024-05-14","visit":null},{"seq":"74","trt":"PLACEBO","dose":null,"doseu":null,"dosef":"QD","route":"ORAL","start_dtc":"2024-05-15","end_dtc":"2024-05-15","visit":null},{"seq":"75","trt":"PLACEBO","dose":null,"doseu":null,"dosef":"QD","route":"ORAL","start_dtc":"2024-05-16","end_dtc":"2024-05-16","visit":null},{"seq":"76","trt":"PLACEBO","dose":null,"doseu":null,"dosef":"QD","route":"ORAL","start_dtc":"2024-05-17","end_dtc":"2024-05-17","visit":null},{"seq":"77","trt":"PLACEBO","dose":null,"doseu":null,"dosef":"QD","route":"ORAL","start_dtc":"2024-05-18","end_dtc":"2024-05-18","visit":null},{"seq":"78","trt":"PLACEBO","dose":null,"doseu":null,"dosef":"QD","route":"ORAL","start_dtc":"2024-05-19","end_dtc":"2024-05-19","visit":null},{"seq":"79","trt":"PLACEBO","dose":null,"doseu":null,"dosef":"QD","route":"ORAL","start_dtc":"2024-05-20","end_dtc":"2024-05-20","visit":null},{"seq":"80","trt":"PLACEBO","dose":null,"doseu":null,"dosef":"QD","route":"ORAL","start_dtc":"2024-05-21","end_dtc":"2024-05-21","visit":null}]},"section_7_adverse_events":{"summary":{"total_aes":2,"serious_aes":1,"fatal_aes":0,"by_severity":{"MILD":1,"SEVERE":1},"by_soc":{"General disorders and administration site conditions":1,"Infections and infestations":1}},"events":[{"seq":"1","term":"FATIGUE","decod":"Fatigue","llt":"Fatigue","hlt":"Asthenic conditions","hlgt":"General system disorders NEC","soc":"General disorders and administration site conditions","bodsys":"General disorders and administration site conditions","severity":"MILD","serious":"N","causality":"NOT RELATED","action_taken":"DOSE NOT CHANGED","outcome":"RECOVERED/RESOLVED","fatal":"N","hospitalization":"N","life_threatening":"N","onset_dtc":"2024-03-15","end_dtc":"2024-03-21","onset_dy":"13","end_dy":"19","duration":null,"epoch":"TREATMENT","visit":null,"supplemental":{"AETRTEM":"Y"}},{"seq":"2","term":"UPPER RESPIRATORY TRACT INFECTION","decod":"Upper respiratory tract infection","llt":"Upper respiratory tract infection","hlt":"Upper respiratory tract infections","hlgt":"Upper respiratory tract infections","soc":"Infections and infestations","bodsys":"Infections and infestations","severity":"SEVERE","serious":"Y","causality":"UNLIKELY RELATED","action_taken":"DOSE NOT CHANGED","outcome":"RECOVERED/RESOLVED","fatal":"N","hospitalization":"Y","life_threatening":"N","onset_dtc":"2024-05-08","end_dtc":"2024-06-22","onset_dy":"67","end_dy":"112","duration":null,"epoch":"TREATMENT","visit":null,"supplemental":{"AETRTEM":"Y"}}]},"section_8_laboratory_results":{"summary":{"total_records":42,"abnormal_count":5,"abnormal_pct":11.9},"shift_summary":[{"testcd":"ALT","baseline_value":36.11,"baseline_nrind":"NORMAL","worst_post_baseline_value":37.93,"worst_post_baseline_nrind":"NORMAL","worst_visit":"BASELINE"},{"testcd":"AST","baseline_value":20.92,"baseline_nrind":"NORMAL","worst_post_baseline_value":23.72,"worst_post_baseline_nrind":"NORMAL","worst_visit":"WEEK 4"},{"testcd":"CREAT","baseline_value":58.41,"baseline_nrind":"NORMAL","worst_post_baseline_value":56.43,"worst_post_baseline_nrind":"NORMAL","worst_visit":"BASELINE"},{"testcd":"GLUC","baseline_value":5.71,"baseline_nrind":"HIGH","worst_post_baseline_value":5.79,"worst_post_baseline_nrind":"HIGH","worst_visit":"WEEK 2"},{"testcd":"HGB","baseline_value":136.35,"baseline_nrind":"NORMAL","worst_post_baseline_value":138.89,"worst_post_baseline_nrind":"NORMAL","worst_visit":"WEEK 12"},{"testcd":"PLAT","baseline_value":290.55,"baseline_nrind":"NORMAL","worst_post_baseline_value":289.65,"worst_post_baseline_nrind":"NORMAL","worst_visit":"WEEK 2"},{"testcd":"WBC","baseline_value":6.35,"baseline_nrind":"NORMAL","worst_post_baseline_value":6.43,"worst_post_baseline_nrind":"NORMAL","worst_visit":"WEEK 12"}],"results":[{"seq":"1","testcd":"ALT","test":"Alanine Aminotransferase","cat":"CHEMISTRY","orres":"36.11","orresu":"U/L","stresc":"36.11","stresn":"36.11","stresu":"U/L","stnrlo":"7","stnrhi":"56","nrind":"NORMAL","fast":null,"dtc":"2024-01-07","dy":"-56","visit":"SCREENING","visitnum":"1.0","epoch":"SCREENING","spec":null,"method":null},{"seq":"2","testcd":"AST","test":"Aspartate Aminotransferase","cat":"CHEMISTRY","orres":null,"orresu":null,"stresc":null,"stresn":null,"stresu":null,"stnrlo":null,"stnrhi":null,"nrind":null,"fast":null,"dtc":"2024-01-07","dy":"-56","visit":"SCREENING","visitnum":"1.0","epoch":"SCREENING","spec":null,"method":null},{"seq":"3","testcd":"CREAT","test":"Creatinine","cat":"CHEMISTRY","orres":"58.41","orresu":"umol/L","stresc":"58.41","stresn":"58.41","stresu":"umol/L","stnrlo":"44","stnrhi":"80","nrind":"NORMAL","fast":null,"dtc":"2024-01-07","dy":"-56","visit":"SCREENING","visitnum":"1.0","epoch":"SCREENING","spec":null,"method":null},{"seq":"4","testcd":"GLUC","test":"Glucose","cat":"CHEMISTRY","orres":"5.71","orresu":"mmol/L","stresc":"5.71","stresn":"5.71","stresu":"mmol/L","stnrlo":"3.9","stnrhi":"5.6","nrind":"HIGH","fast":null,"dtc":"2024-01-07","dy":"-56","visit":"SCREENING","visitnum":"1.0","epoch":"SCREENING","spec":null,"method":null},{"seq":"5","testcd":"HGB","test":"Hemoglobin","cat":"HEMATOLOGY","orres":"136.35","orresu":"g/L","stresc":"136.35","stresn":"136.35","stresu":"g/L","stnrlo":"120","stnrhi":"155","nrind":"NORMAL","fast":null,"dtc":"2024-01-07","dy":"-56","visit":"SCREENING","visitnum":"1.0","epoch":"SCREENING","spec":null,"method":null},{"seq":"6","testcd":"PLAT","test":"Platelets","cat":"HEMATOLOGY","orres":"290.55","orresu":"10^9/L","stresc":"290.55","stresn":"290.55","stresu":"10^9/L","stnrlo":"150","stnrhi":"400","nrind":"NORMAL","fast":null,"dtc":"2024-01-07","dy":"-56","visit":"SCREENING","visitnum":"1.0","epoch":"SCREENING","spec":null,"method":null},{"seq":"7","testcd":"WBC","test":"Leukocytes","cat":"HEMATOLOGY","orres":"6.35","orresu":"10^9/L","stresc":"6.35","stresn":"6.35","stresu":"10^9/L","stnrlo":"4.0","stnrhi":"11.0","nrind":"NORMAL","fast":null,"dtc":"2024-01-07","dy":"-56","visit":"SCREENING","visitnum":"1.0","epoch":"SCREENING","spec":null,"method":null},{"seq":"8","testcd":"ALT","test":"Alanine Aminotransferase","cat":"CHEMISTRY","orres":"37.93","orresu":"U/L","stresc":"37.93","stresn":"37.93","stresu":"U/L","stnrlo":"7","stnrhi":"56","nrind":"NORMAL","fast":null,"dtc":"2024-03-03","dy":"1","visit":"BASELINE","visitnum":"2.0","epoch":"TREATMENT","spec":null,"method":null},{"seq":"9","testcd":"AST","test":"Aspartate Aminotransferase","cat":"CHEMISTRY","orres":"20.92","orresu":"U/L","stresc":"20.92","stresn":"20.92","stresu":"U/L","stnrlo":"10","stnrhi":"40","nrind":"NORMAL","fast":null,"dtc":"2024-03-03","dy":"1","visit":"BASELINE","visitnum":"2.0","epoch":"TREATMENT","spec":null,"method":null},{"seq":"10","testcd":"CREAT","test":"Creatinine","cat":"CHEMISTRY","orres":"56.43","orresu":"umol/L","stresc":"56.43","stresn":"56.43","stresu":"umol/L","stnrlo":"44","stnrhi":"80","nrind":"NORMAL","fast":null,"dtc":"2024-03-03","dy":"1","visit":"BASELINE","visitnum":"2.0","epoch":"TREATMENT","spec":null,"method":null},{"seq":"11","testcd":"GLUC","test":"Glucose","cat":"CHEMISTRY","orres":"5.78","orresu":"mmol/L","stresc":"5.78","stresn":"5.78","stresu":"mmol/L","stnrlo":"3.9","stnrhi":"5.6","nrind":"HIGH","fast":null,"dtc":"2024-03-03","dy":"1","visit":"BASELINE","visitnum":"2.0","epoch":"TREATMENT","spec":null,"method":null},{"seq":"12","testcd":"HGB","test":"Hemoglobin","cat":"HEMATOLOGY","orres":"139.13","orresu":"g/L","stresc":"139.13","stresn":"139.13","stresu":"g/L","stnrlo":"120","stnrhi":"155","nrind":"NORMAL","fast":null,"dtc":"2024-03-03","dy":"1","visit":"BASELINE","visitnum":"2.0","epoch":"TREATMENT","spec":null,"method":null},{"seq":"13","testcd":"PLAT","test":"Platelets","cat":"HEMATOLOGY","orres":"282.81","orresu":"10^9/L","stresc":"282.81","stresn":"282.81","stresu":"10^9/L","stnrlo":"150","stnrhi":"400","nrind":"NORMAL","fast":null,"dtc":"2024-03-03","dy":"1","visit":"BASELINE","visitnum":"2.0","epoch":"TREATMENT","spec":null,"method":null},{"seq":"14","testcd":"WBC","test":"Leukocytes","cat":"HEMATOLOGY","orres":"6.07","orresu":"10^9/L","stresc":"6.07","stresn":"6.07","stresu":"10^9/L","stnrlo":"4.0","stnrhi":"11.0","nrind":"NORMAL","fast":null,"dtc":"2024-03-03","dy":"1","visit":"BASELINE","visitnum":"2.0","epoch":"TREATMENT","spec":null,"method":null},{"seq":"15","testcd":"ALT","test":"Alanine Aminotransferase","cat":"CHEMISTRY","orres":"36.74","orresu":"U/L","stresc":"36.74","stresn":"36.74","stresu":"U/L","stnrlo":"7","stnrhi":"56","nrind":"NORMAL","fast":null,"dtc":"2024-03-19","dy":"17","visit":"WEEK 2","visitnum":"3.0","epoch":"TREATMENT","spec":null,"method":null},{"seq":"16","testcd":"AST","test":"Aspartate Aminotransferase","cat":"CHEMISTRY","orres":"22.05","orresu":"U/L","stresc":"22.05","stresn":"22.05","stresu":"U/L","stnrlo":"10","stnrhi":"40","nrind":"NORMAL","fast":null,"dtc":"2024-03-19","dy":"17","visit":"WEEK 2","visitnum":"3.0","epoch":"TREATMENT","spec":null,"method":null},{"seq":"17","testcd":"CREAT","test":"Creatinine","cat":"CHEMISTRY","orres":"54.69","orresu":"umol/L","stresc":"54.69","stresn":"54.69","stresu":"umol/L","stnrlo":"44","stnrhi":"80","nrind":"NORMAL","fast":null,"dtc":"2024-03-19","dy":"17","visit":"WEEK 2","visitnum":"3.0","epoch":"TREATMENT","spec":null,"method":null},{"seq":"18","testcd":"GLUC","test":"Glucose","cat":"CHEMISTRY","orres":"5.79","orresu":"mmol/L","stresc":"5.79","stresn":"5.79","stresu":"mmol/L","stnrlo":"3.9","stnrhi":"5.6","nrind":"HIGH","fast":null,"dtc":"2024-03-19","dy":"17","visit":"WEEK 2","visitnum":"3.0","epoch":"TREATMENT","spec":null,"method":null},{"seq":"19","testcd":"HGB","test":"Hemoglobin","cat":"HEMATOLOGY","orres":"139.51","orresu":"g/L","stresc":"139.51","stresn":"139.51","stresu":"g/L","stnrlo":"120","stnrhi":"155","nrind":"NORMAL","fast":null,"dtc":"2024-03-19","dy":"17","visit":"WEEK 2","visitnum":"3.0","epoch":"TREATMENT","spec":null,"method":null},{"seq":"20","testcd":"PLAT","test":"Platelets","cat":"HEMATOLOGY","orres":"289.65","orresu":"10^9/L","stresc":"289.65","stresn":"289.65","stresu":"10^9/L","stnrlo":"150","stnrhi":"400","nrind":"NORMAL","fast":null,"dtc":"2024-03-19","dy":"17","visit":"WEEK 2","visitnum":"3.0","epoch":"TREATMENT","spec":null,"method":null},{"seq":"21","testcd":"WBC","test":"Leukocytes","cat":"HEMATOLOGY","orres":"6.19","orresu":"10^9/L","stresc":"6.19","stresn":"6.19","stresu":"10^9/L","stnrlo":"4.0","stnrhi":"11.0","nrind":"NORMAL","fast":null,"dtc":"2024-03-19","dy":"17","visit":"WEEK 2","visitnum":"3.0","epoch":"TREATMENT","spec":null,"method":null},{"seq":"22","testcd":"ALT","test":"Alanine Aminotransferase","cat":"CHEMISTRY","orres":"36.86","orresu":"U/L","stresc":"36.86","stresn":"36.86","stresu":"U/L","stnrlo":"7","stnrhi":"56","nrind":"NORMAL","fast":null,"dtc":"2024-04-02","dy":"31","visit":"WEEK 4","visitnum":"4.0","epoch":"TREATMENT","spec":null,"method":null},{"seq":"23","testcd":"AST","test":"Aspartate Aminotransferase","cat":"CHEMISTRY","orres":"23.72","orresu":"U/L","stresc":"23.72","stresn":"23.72","stresu":"U/L","stnrlo":"10","stnrhi":"40","nrind":"NORMAL","fast":null,"dtc":"2024-04-02","dy":"31","visit":"WEEK 4","visitnum":"4.0","epoch":"TREATMENT","spec":null,"method":null},{"seq":"24","testcd":"CREAT","test":"Creatinine","cat":"CHEMISTRY","orres":"53.76","orresu":"umol/L","stresc":"53.76","stresn":"53.76","stresu":"umol/L","stnrlo":"44","stnrhi":"80","nrind":"NORMAL","fast":null,"dtc":"2024-04-02","dy":"31","visit":"WEEK 4","visitnum":"4.0","epoch":"TREATMENT","spec":null,"method":null},{"seq":"25","testcd":"GLUC","test":"Glucose","cat":"CHEMISTRY","orres":"5.63","orresu":"mmol/L","stresc":"5.63","stresn":"5.63","stresu":"mmol/L","stnrlo":"3.9","stnrhi":"5.6","nrind":"HIGH","fast":null,"dtc":"2024-04-02","dy":"31","visit":"WEEK 4","visitnum":"4.0","epoch":"TREATMENT","spec":null,"method":null},{"seq":"26","testcd":"HGB","test":"Hemoglobin","cat":"HEMATOLOGY","orres":"139.05","orresu":"g/L","stresc":"139.05","stresn":"139.05","stresu":"g/L","stnrlo":"120","stnrhi":"155","nrind":"NORMAL","fast":null,"dtc":"2024-04-02","dy":"31","visit":"WEEK 4","visitnum":"4.0","epoch":"TREATMENT","spec":null,"method":null},{"seq":"27","testcd":"PLAT","test":"Platelets","cat":"HEMATOLOGY","orres":"274.93","orresu":"10^9/L","stresc":"274.93","stresn":"274.93","stresu":"10^9/L","stnrlo":"150","stnrhi":"400","nrind":"NORMAL","fast":null,"dtc":"2024-04-02","dy":"31","visit":"WEEK 4","visitnum":"4.0","epoch":"TREATMENT","spec":null,"method":null},{"seq":"28","testcd":"WBC","test":"Leukocytes","cat":"HEMATOLOGY","orres":"6.25","orresu":"10^9/L","stresc":"6.25","stresn":"6.25","stresu":"10^9/L","stnrlo":"4.0","stnrhi":"11.0","nrind":"NORMAL","fast":null,"dtc":"2024-04-02","dy":"31","visit":"WEEK 4","visitnum":"4.0","epoch":"TREATMENT","spec":null,"method":null},{"seq":"29","testcd":"ALT","test":"Alanine Aminotransferase","cat":"CHEMISTRY","orres":"37.56","orresu":"U/L","stresc":"37.56","stresn":"37.56","stresu":"U/L","stnrlo":"7","stnrhi":"56","nrind":"NORMAL","fast":null,"dtc":"2024-04-25","dy":"54","visit":"WEEK 8","visitnum":"5.0","epoch":"TREATMENT","spec":null,"method":null},{"seq":"30","testcd":"AST","test":"Aspartate Aminotransferase","cat":"CHEMISTRY","orres":"21.97","orresu":"U/L","stresc":"21.97","stresn":"21.97","stresu":"U/L","stnrlo":"10","stnrhi":"40","nrind":"NORMAL","fast":null,"dtc":"2024-04-25","dy":"54","visit":"WEEK 8","visitnum":"5.0","epoch":"TREATMENT","spec":null,"method":null},{"seq":"31","testcd":"CREAT","test":"Creatinine","cat":"CHEMISTRY","orres":null,"orresu":null,"stresc":null,"stresn":null,"stresu":null,"stnrlo":null,"stnrhi":null,"nrind":null,"fast":null,"dtc":"2024-04-25","dy":"54","visit":"WEEK 8","visitnum":"5.0","epoch":"TREATMENT","spec":null,"method":null},{"seq":"32","testcd":"GLUC","test":"Glucose","cat":"CHEMISTRY","orres":"5.76","orresu":"mmol/L","stresc":"5.76","stresn":"5.76","stresu":"mmol/L","stnrlo":"3.9","stnrhi":"5.6","nrind":"HIGH","fast":null,"dtc":"2024-04-25","dy":"54","visit":"WEEK 8","visitnum":"5.0","epoch":"TREATMENT","spec":null,"method":null},{"seq":"33","testcd":"HGB","test":"Hemoglobin","cat":"HEMATOLOGY","orres":"139.62","orresu":"g/L","stresc":"139.62","stresn":"139.62","stresu":"g/L","stnrlo":"120","stnrhi":"155","nrind":"NORMAL","fast":null,"dtc":"2024-04-25","dy":"54","visit":"WEEK 8","visitnum":"5.0","epoch":"TREATMENT","spec":null,"method":null},{"seq":"34","testcd":"PLAT","test":"Platelets","cat":"HEMATOLOGY","orres":"270.26","orresu":"10^9/L","stresc":"270.26","stresn":"270.26","stresu":"10^9/L","stnrlo":"150","stnrhi":"400","nrind":"NORMAL","fast":null,"dtc":"2024-04-25","dy":"54","visit":"WEEK 8","visitnum":"5.0","epoch":"TREATMENT","spec":null,"method":null},{"seq":"35","testcd":"WBC","test":"Leukocytes","cat":"HEMATOLOGY","orres":"6.27","orresu":"10^9/L","stresc":"6.27","stresn":"6.27","stresu":"10^9/L","stnrlo":"4.0","stnrhi":"11.0","nrind":"NORMAL","fast":null,"dtc":"2024-04-25","dy":"54","visit":"WEEK 8","visitnum":"5.0","epoch":"TREATMENT","spec":null,"method":null},{"seq":"36","testcd":"ALT","test":"Alanine Aminotransferase","cat":"CHEMISTRY","orres":"34.57","orresu":"U/L","stresc":"34.57","stresn":"34.57","stresu":"U/L","stnrlo":"7","stnrhi":"56","nrind":"NORMAL","fast":null,"dtc":"2024-05-25","dy":"84","visit":"WEEK 12","visitnum":"6.0","epoch":"TREATMENT","spec":null,"method":null},{"seq":"37","testcd":"AST","test":"Aspartate Aminotransferase","cat":"CHEMISTRY","orres":"22.94","orresu":"U/L","stresc":"22.94","stresn":"22.94","stresu":"U/L","stnrlo":"10","stnrhi":"40","nrind":"NORMAL","fast":null,"dtc":"2024-05-25","dy":"84","visit":"WEEK 12","visitnum":"6.0","epoch":"TREATMENT","spec":null,"method":null},{"seq":"38","testcd":"CREAT","test":"Creatinine","cat":"CHEMISTRY","orres":"50.91","orresu":"umol/L","stresc":"50.91","stresn":"50.91","stresu":"umol/L","stnrlo":"44","stnrhi":"80","nrind":"NORMAL","fast":null,"dtc":"2024-05-25","dy":"84","visit":"WEEK 12","visitnum":"6.0","epoch":"TREATMENT","spec":null,"method":null},{"seq":"39","testcd":"GLUC","test":"Glucose","cat":"CHEMISTRY","orres":null,"orresu":null,"stresc":null,"stresn":null,"stresu":null,"stnrlo":null,"stnrhi":null,"nrind":null,"fast":null,"dtc":"2024-05-25","dy":"84","visit":"WEEK 12","visitnum":"6.0","epoch":"TREATMENT","spec":null,"method":null},{"seq":"40","testcd":"HGB","test":"Hemoglobin","cat":"HEMATOLOGY","orres":"138.89","orresu":"g/L","stresc":"138.89","stresn":"138.89","stresu":"g/L","stnrlo":"120","stnrhi":"155","nrind":"NORMAL","fast":null,"dtc":"2024-05-25","dy":"84","visit":"WEEK 12","visitnum":"6.0","epoch":"TREATMENT","spec":null,"method":null},{"seq":"41","testcd":"PLAT","test":"Platelets","cat":"HEMATOLOGY","orres":"277.63","orresu":"10^9/L","stresc":"277.63","stresn":"277.63","stresu":"10^9/L","stnrlo":"150","stnrhi":"400","nrind":"NORMAL","fast":null,"dtc":"2024-05-25","dy":"84","visit":"WEEK 12","visitnum":"6.0","epoch":"TREATMENT","spec":null,"method":null},{"seq":"42","testcd":"WBC","test":"Leukocytes","cat":"HEMATOLOGY","orres":"6.43","orresu":"10^9/L","stresc":"6.43","stresn":"6.43","stresu":"10^9/L","stnrlo":"4.0","stnrhi":"11.0","nrind":"NORMAL","fast":null,"dtc":"2024-05-25","dy":"84","visit":"WEEK 12","visitnum":"6.0","epoch":"TREATMENT","spec":null,"method":null}]},"section_9_vital_signs":{"summary":{"total_records":56},"trends":{"BMI":[{"visit":"SCREENING","visitnum":"1.0","dtc":"2024-01-07","value":"28.7","unit":"kg/m2"},{"visit":"BASELINE","visitnum":"2.0","dtc":"2024-03-03","value":"29.8","unit":"kg/m2"},{"visit":"WEEK 2","visitnum":"3.0","dtc":"2024-03-19","value":"28.6","unit":"kg/m2"},{"visit":"WEEK 4","visitnum":"4.0","dtc":"2024-04-02","value":"29.0","unit":"kg/m2"},{"visit":"WEEK 8","visitnum":"5.0","dtc":"2024-04-25","value":"28.9","unit":"kg/m2"},{"visit":"WEEK 12","visitnum":"6.0","dtc":"2024-05-25","value":"29.3","unit":"kg/m2"},{"visit":"FOLLOW-UP","visitnum":"7.0","dtc":"2024-06-28","value":"29.5","unit":"kg/m2"}],"DIABP":[{"visit":"SCREENING","visitnum":"1.0","dtc":"2024-01-07","value":"85.7","unit":"mmHg"},{"visit":"BASELINE","visitnum":"2.0","dtc":"2024-03-03","value":"87.4","unit":"mmHg"},{"visit":"WEEK 2","visitnum":"3.0","dtc":"2024-03-19","value":"88.4","unit":"mmHg"},{"visit":"WEEK 4","visitnum":"4.0","dtc":"2024-04-02","value":"87.9","unit":"mmHg"},{"visit":"WEEK 8","visitnum":"5.0","dtc":"2024-04-25","value":"86.9","unit":"mmHg"},{"visit":"WEEK 12","visitnum":"6.0","dtc":"2024-05-25","value":"84.7","unit":"mmHg"},{"visit":"FOLLOW-UP","visitnum":"7.0","dtc":"2024-06-28","value":"86.8","unit":"mmHg"}],"HEIGHT":[{"visit":"SCREENING","visitnum":"1.0","dtc":"2024-01-07","value":"167.5","unit":"cm"},{"visit":"BASELINE","visitnum":"2.0","dtc":"2024-03-03","value":"166.8","unit":"cm"},{"visit":"WEEK 2","visitnum":"3.0","dtc":"2024-03-19","value":"166.8","unit":"cm"},{"visit":"WEEK 4","visitnum":"4.0","dtc":"2024-04-02","value":"167.4","unit":"cm"},{"visit":"WEEK 8","visitnum":"5.0","dtc":"2024-04-25","value":"167.1","unit":"cm"},{"visit":"WEEK 12","visitnum":"6.0","dtc":"2024-05-25","value":"166.4","unit":"cm"},{"visit":"FOLLOW-UP","visitnum":"7.0","dtc":"2024-06-28","value":"166.1","unit":"cm"}],"PULSE":[{"visit":"SCREENING","visitnum":"1.0","dtc":"2024-01-07","value":"57.9","unit":"beats/min"},{"visit":"BASELINE","visitnum":"2.0","dtc":"2024-03-03","value":"55.5","unit":"beats/min"},{"visit":"WEEK 2","visitnum":"3.0","dtc":"2024-03-19","value":"56.2","unit":"beats/min"},{"visit":"WEEK 4","visitnum":"4.0","dtc":"2024-04-02","value":"53.4","unit":"beats/min"},{"visit":"WEEK 8","visitnum":"5.0","dtc":"2024-04-25","value":"53.6","unit":"beats/min"},{"visit":"WEEK 12","visitnum":"6.0","dtc":"2024-05-25","value":"56.3","unit":"beats/min"},{"visit":"FOLLOW-UP","visitnum":"7.0","dtc":"2024-06-28","value":"57.4","unit":"beats/min"}],"RESP":[{"visit":"SCREENING","visitnum":"1.0","dtc":"2024-01-07","value":"15.7","unit":"breaths/min"},{"visit":"BASELINE","visitnum":"2.0","dtc":"2024-03-03","value":"14.9","unit":"breaths/min"},{"visit":"WEEK 2","visitnum":"3.0","dtc":"2024-03-19","value":"15.0","unit":"breaths/min"},{"visit":"WEEK 4","visitnum":"4.0","dtc":"2024-04-02","value":"15.3","unit":"breaths/min"},{"visit":"WEEK 8","visitnum":"5.0","dtc":"2024-04-25","value":"14.4","unit":"breaths/min"},{"visit":"WEEK 12","visitnum":"6.0","dtc":"2024-05-25","value":"15.4","unit":"breaths/min"},{"visit":"FOLLOW-UP","visitnum":"7.0","dtc":"2024-06-28","value":"14.9","unit":"breaths/min"}],"SYSBP":[{"visit":"SCREENING","visitnum":"1.0","dtc":"2024-01-07","value":"102.7","unit":"mmHg"},{"visit":"BASELINE","visitnum":"2.0","dtc":"2024-03-03","value":"105.3","unit":"mmHg"},{"visit":"WEEK 2","visitnum":"3.0","dtc":"2024-03-19","value":"105.4","unit":"mmHg"},{"visit":"WEEK 4","visitnum":"4.0","dtc":"2024-04-02","value":"105.1","unit":"mmHg"},{"visit":"WEEK 8","visitnum":"5.0","dtc":"2024-04-25","value":"103.8","unit":"mmHg"},{"visit":"WEEK 12","visitnum":"6.0","dtc":"2024-05-25","value":"101.0","unit":"mmHg"},{"visit":"FOLLOW-UP","visitnum":"7.0","dtc":"2024-06-28","value":"105.8","unit":"mmHg"}],"TEMP":[{"visit":"SCREENING","visitnum":"1.0","dtc":"2024-01-07","value":"36.7","unit":"C"},{"visit":"BASELINE","visitnum":"2.0","dtc":"2024-03-03","value":"36.7","unit":"C"},{"visit":"WEEK 2","visitnum":"3.0","dtc":"2024-03-19","value":"37.1","unit":"C"},{"visit":"WEEK 4","visitnum":"4.0","dtc":"2024-04-02","value":"37.0","unit":"C"},{"visit":"WEEK 8","visitnum":"5.0","dtc":"2024-04-25","value":"36.9","unit":"C"},{"visit":"WEEK 12","visitnum":"6.0","dtc":"2024-05-25","value":"36.8","unit":"C"},{"visit":"FOLLOW-UP","visitnum":"7.0","dtc":"2024-06-28","value":"36.7","unit":"C"}],"WEIGHT":[{"visit":"SCREENING","visitnum":"1.0","dtc":"2024-01-07","value":"80.5","unit":"kg"},{"visit":"BASELINE","visitnum":"2.0","dtc":"2024-03-03","value":"82.9","unit":"kg"},{"visit":"WEEK 2","visitnum":"3.0","dtc":"2024-03-19","value":"79.7","unit":"kg"},{"visit":"WEEK 4","visitnum":"4.0","dtc":"2024-04-02","value":"81.3","unit":"kg"},{"visit":"WEEK 8","visitnum":"5.0","dtc":"2024-04-25","value":"80.6","unit":"kg"},{"visit":"WEEK 12","visitnum":"6.0","dtc":"2024-05-25","value":"81.2","unit":"kg"},{"visit":"FOLLOW-UP","visitnum":"7.0","dtc":"2024-06-28","value":"81.3","unit":"kg"}]},"results":[{"seq":"1","testcd":"BMI","test":"BMI","cat":null,"orres":"28.7","orresu":"kg/m2","stresc":"28.7","stresn":"28.7","stresu":"kg/m2","stnrlo":null,"stnrhi":null,"nrind":null,"pos":null,"loc":null,"dtc":"2024-01-07","dy":"-56","visit":"SCREENING","visitnum":"1.0","epoch":"SCREENING"},{"seq":"2","testcd":"DIABP","test":"Diastolic Blood Pressure","cat":null,"orres":"85.7","orresu":"mmHg","stresc":"85.7","stresn":"85.7","stresu":"mmHg","stnrlo":null,"stnrhi":null,"nrind":null,"pos":null,"loc":null,"dtc":"2024-01-07","dy":"-56","visit":"SCREENING","visitnum":"1.0","epoch":"SCREENING"},{"seq":"3","testcd":"HEIGHT","test":"Height","cat":null,"orres":"167.5","orresu":"cm","stresc":"167.5","stresn":"167.5","stresu":"cm","stnrlo":null,"stnrhi":null,"nrind":null,"pos":null,"loc":null,"dtc":"2024-01-07","dy":"-56","visit":"SCREENING","visitnum":"1.0","epoch":"SCREENING"},{"seq":"4","testcd":"PULSE","test":"Pulse Rate","cat":null,"orres":"57.9","orresu":"beats/min","stresc":"57.9","stresn":"57.9","stresu":"beats/min","stnrlo":null,"stnrhi":null,"nrind":null,"pos":null,"loc":null,"dtc":"2024-01-07","dy":"-56","visit":"SCREENING","visitnum":"1.0","epoch":"SCREENING"},{"seq":"5","testcd":"RESP","test":"Respiratory Rate","cat":null,"orres":"15.7","orresu":"breaths/min","stresc":"15.7","stresn":"15.7","stresu":"breaths/min","stnrlo":null,"stnrhi":null,"nrind":null,"pos":null,"loc":null,"dtc":"2024-01-07","dy":"-56","visit":"SCREENING","visitnum":"1.0","epoch":"SCREENING"},{"seq":"6","testcd":"SYSBP","test":"Systolic Blood Pressure","cat":null,"orres":"102.7","orresu":"mmHg","stresc":"102.7","stresn":"102.7","stresu":"mmHg","stnrlo":null,"stnrhi":null,"nrind":null,"pos":null,"loc":null,"dtc":"2024-01-07","dy":"-56","visit":"SCREENING","visitnum":"1.0","epoch":"SCREENING"},{"seq":"7","testcd":"TEMP","test":"Temperature","cat":null,"orres":"36.7","orresu":"C","stresc":"36.7","stresn":"36.7","stresu":"C","stnrlo":null,"stnrhi":null,"nrind":null,"pos":null,"loc":null,"dtc":"2024-01-07","dy":"-56","visit":"SCREENING","visitnum":"1.0","epoch":"SCREENING"},{"seq":"8","testcd":"WEIGHT","test":"Weight","cat":null,"orres":"80.5","orresu":"kg","stresc":"80.5","stresn":"80.5","stresu":"kg","stnrlo":null,"stnrhi":null,"nrind":null,"pos":null,"loc":null,"dtc":"2024-01-07","dy":"-56","visit":"SCREENING","visitnum":"1.0","epoch":"SCREENING"},{"seq":"9","testcd":"BMI","test":"BMI","cat":null,"orres":"29.8","orresu":"kg/m2","stresc":"29.8","stresn":"29.8","stresu":"kg/m2","stnrlo":null,"stnrhi":null,"nrind":null,"pos":null,"loc":null,"dtc":"2024-03-03","dy":"1","visit":"BASELINE","visitnum":"2.0","epoch":"TREATMENT"},{"seq":"10","testcd":"DIABP","test":"Diastolic Blood Pressure","cat":null,"orres":"87.4","orresu":"mmHg","stresc":"87.4","stresn":"87.4","stresu":"mmHg","stnrlo":null,"stnrhi":null,"nrind":null,"pos":null,"loc":null,"dtc":"2024-03-03","dy":"1","visit":"BASELINE","visitnum":"2.0","epoch":"TREATMENT"},{"seq":"11","testcd":"HEIGHT","test":"Height","cat":null,"orres":"166.8","orresu":"cm","stresc":"166.8","stresn":"166.8","stresu":"cm","stnrlo":null,"stnrhi":null,"nrind":null,"pos":null,"loc":null,"dtc":"2024-03-03","dy":"1","visit":"BASELINE","visitnum":"2.0","epoch":"TREATMENT"},{"seq":"12","testcd":"PULSE","test":"Pulse Rate","cat":null,"orres":"55.5","orresu":"beats/min","stresc":"55.5","stresn":"55.5","stresu":"beats/min","stnrlo":null,"stnrhi":null,"nrind":null,"pos":null,"loc":null,"dtc":"2024-03-03","dy":"1","visit":"BASELINE","visitnum":"2.0","epoch":"TREATMENT"},{"seq":"13","testcd":"RESP","test":"Respiratory Rate","cat":null,"orres":"14.9","orresu":"breaths/min","stresc":"14.9","stresn":"14.9","stresu":"breaths/min","stnrlo":null,"stnrhi":null,"nrind":null,"pos":null,"loc":null,"dtc":"2024-03-03","dy":"1","visit":"BASELINE","visitnum":"2.0","epoch":"TREATMENT"},{"seq":"14","testcd":"SYSBP","test":"Systolic Blood Pressure","cat":null,"orres":"105.3","orresu":"mmHg","stresc":"105.3","stresn":"105.3","stresu":"mmHg","stnrlo":null,"stnrhi":null,"nrind":null,"pos":null,"loc":null,"dtc":"2024-03-03","dy":"1","visit":"BASELINE","visitnum":"2.0","epoch":"TREATMENT"},{"seq":"15","testcd":"TEMP","test":"Temperature","cat":null,"orres":"36.7","orresu":"C","stresc":"36.7","stresn":"36.7","stresu":"C","stnrlo":null,"stnrhi":null,"nrind":null,"pos":null,"loc":null,"dtc":"2024-03-03","dy":"1","visit":"BASELINE","visitnum":"2.0","epoch":"TREATMENT"},{"seq":"16","testcd":"WEIGHT","test":"Weight","cat":null,"orres":"82.9","orresu":"kg","stresc":"82.9","stresn":"82.9","stresu":"kg","stnrlo":null,"stnrhi":null,"nrind":null,"pos":null,"loc":null,"dtc":"2024-03-03","dy":"1","visit":"BASELINE","visitnum":"2.0","epoch":"TREATMENT"},{"seq":"17","testcd":"BMI","test":"BMI","cat":null,"orres":"28.6","orresu":"kg/m2","stresc":"28.6","stresn":"28.6","stresu":"kg/m2","stnrlo":null,"stnrhi":null,"nrind":null,"pos":null,"loc":null,"dtc":"2024-03-19","dy":"17","visit":"WEEK 2","visitnum":"3.0","epoch":"TREATMENT"},{"seq":"18","testcd":"DIABP","test":"Diastolic Blood Pressure","cat":null,"orres":"88.4","orresu":"mmHg","stresc":"88.4","stresn":"88.4","stresu":"mmHg","stnrlo":null,"stnrhi":null,"nrind":null,"pos":null,"loc":null,"dtc":"2024-03-19","dy":"17","visit":"WEEK 2","visitnum":"3.0","epoch":"TREATMENT"},{"seq":"19","testcd":"HEIGHT","test":"Height","cat":null,"orres":"166.8","orresu":"cm","stresc":"166.8","stresn":"166.8","stresu":"cm","stnrlo":null,"stnrhi":null,"nrind":null,"pos":null,"loc":null,"dtc":"2024-03-19","dy":"17","visit":"WEEK 2","visitnum":"3.0","epoch":"TREATMENT"},{"seq":"20","testcd":"PULSE","test":"Pulse Rate","cat":null,"orres":"56.2","orresu":"beats/min","stresc":"56.2","stresn":"56.2","stresu":"beats/min","stnrlo":null,"stnrhi":null,"nrind":null,"pos":null,"loc":null,"dtc":"2024-03-19","dy":"17","visit":"WEEK 2","visitnum":"3.0","epoch":"TREATMENT"},{"seq":"21","testcd":"RESP","test":"Respiratory Rate","cat":null,"orres":"15.0","orresu":"breaths/min","stresc":"15.0","stresn":"15.0","stresu":"breaths/min","stnrlo":null,"stnrhi":null,"nrind":null,"pos":null,"loc":null,"dtc":"2024-03-19","dy":"17","visit":"WEEK 2","visitnum":"3.0","epoch":"TREATMENT"},{"seq":"22","testcd":"SYSBP","test":"Systolic Blood Pressure","cat":null,"orres":"105.4","orresu":"mmHg","stresc":"105.4","stresn":"105.4","stresu":"mmHg","stnrlo":null,"stnrhi":null,"nrind":null,"pos":null,"loc":null,"dtc":"2024-03-19","dy":"17","visit":"WEEK 2","visitnum":"3.0","epoch":"TREATMENT"},{"seq":"23","testcd":"TEMP","test":"Temperature","cat":null,"orres":"37.1","orresu":"C","stresc":"37.1","stresn":"37.1","stresu":"C","stnrlo":null,"stnrhi":null,"nrind":null,"pos":null,"loc":null,"dtc":"2024-03-19","dy":"17","visit":"WEEK 2","visitnum":"3.0","epoch":"TREATMENT"},{"seq":"24","testcd":"WEIGHT","test":"Weight","cat":null,"orres":"79.7","orresu":"kg","stresc":"79.7","stresn":"79.7","stresu":"kg","stnrlo":null,"stnrhi":null,"nrind":null,"pos":null,"loc":null,"dtc":"2024-03-19","dy":"17","visit":"WEEK 2","visitnum":"3.0","epoch":"TREATMENT"},{"seq":"25","testcd":"BMI","test":"BMI","cat":null,"orres":"29.0","orresu":"kg/m2","stresc":"29.0","stresn":"29.0","stresu":"kg/m2","stnrlo":null,"stnrhi":null,"nrind":null,"pos":null,"loc":null,"dtc":"2024-04-02","dy":"31","visit":"WEEK 4","visitnum":"4.0","epoch":"TREATMENT"},{"seq":"26","testcd":"DIABP","test":"Diastolic Blood Pressure","cat":null,"orres":"87.9","orresu":"mmHg","stresc":"87.9","stresn":"87.9","stresu":"mmHg","stnrlo":null,"stnrhi":null,"nrind":null,"pos":null,"loc":null,"dtc":"2024-04-02","dy":"31","visit":"WEEK 4","visitnum":"4.0","epoch":"TREATMENT"},{"seq":"27","testcd":"HEIGHT","test":"Height","cat":null,"orres":"167.4","orresu":"cm","stresc":"167.4","stresn":"167.4","stresu":"cm","stnrlo":null,"stnrhi":null,"nrind":null,"pos":null,"loc":null,"dtc":"2024-04-02","dy":"31","visit":"WEEK 4","visitnum":"4.0","epoch":"TREATMENT"},{"seq":"28","testcd":"PULSE","test":"Pulse Rate","cat":null,"orres":"53.4","orresu":"beats/min","stresc":"53.4","stresn":"53.4","stresu":"beats/min","stnrlo":null,"stnrhi":null,"nrind":null,"pos":null,"loc":null,"dtc":"2024-04-02","dy":"31","visit":"WEEK 4","visitnum":"4.0","epoch":"TREATMENT"},{"seq":"29","testcd":"RESP","test":"Respiratory Rate","cat":null,"orres":"15.3","orresu":"breaths/min","stresc":"15.3","stresn":"15.3","stresu":"breaths/min","stnrlo":null,"stnrhi":null,"nrind":null,"pos":null,"loc":null,"dtc":"2024-04-02","dy":"31","visit":"WEEK 4","visitnum":"4.0","epoch":"TREATMENT"},{"seq":"30","testcd":"SYSBP","test":"Systolic Blood Pressure","cat":null,"orres":"105.1","orresu":"mmHg","stresc":"105.1","stresn":"105.1","stresu":"mmHg","stnrlo":null,"stnrhi":null,"nrind":null,"pos":null,"loc":null,"dtc":"2024-04-02","dy":"31","visit":"WEEK 4","visitnum":"4.0","epoch":"TREATMENT"},{"seq":"31","testcd":"TEMP","test":"Temperature","cat":null,"orres":"37.0","orresu":"C","stresc":"37.0","stresn":"37.0","stresu":"C","stnrlo":null,"stnrhi":null,"nrind":null,"pos":null,"loc":null,"dtc":"2024-04-02","dy":"31","visit":"WEEK 4","visitnum":"4.0","epoch":"TREATMENT"},{"seq":"32","testcd":"WEIGHT","test":"Weight","cat":null,"orres":"81.3","orresu":"kg","stresc":"81.3","stresn":"81.3","stresu":"kg","stnrlo":null,"stnrhi":null,"nrind":null,"pos":null,"loc":null,"dtc":"2024-04-02","dy":"31","visit":"WEEK 4","visitnum":"4.0","epoch":"TREATMENT"},{"seq":"33","testcd":"BMI","test":"BMI","cat":null,"orres":"28.9","orresu":"kg/m2","stresc":"28.9","stresn":"28.9","stresu":"kg/m2","stnrlo":null,"stnrhi":null,"nrind":null,"pos":null,"loc":null,"dtc":"2024-04-25","dy":"54","visit":"WEEK 8","visitnum":"5.0","epoch":"TREATMENT"},{"seq":"34","testcd":"DIABP","test":"Diastolic Blood Pressure","cat":null,"orres":"86.9","orresu":"mmHg","stresc":"86.9","stresn":"86.9","stresu":"mmHg","stnrlo":null,"stnrhi":null,"nrind":null,"pos":null,"loc":null,"dtc":"2024-04-25","dy":"54","visit":"WEEK 8","visitnum":"5.0","epoch":"TREATMENT"},{"seq":"35","testcd":"HEIGHT","test":"Height","cat":null,"orres":"167.1","orresu":"cm","stresc":"167.1","stresn":"167.1","stresu":"cm","stnrlo":null,"stnrhi":null,"nrind":null,"pos":null,"loc":null,"dtc":"2024-04-25","dy":"54","visit":"WEEK 8","visitnum":"5.0","epoch":"TREATMENT"},{"seq":"36","testcd":"PULSE","test":"Pulse Rate","cat":null,"orres":"53.6","orresu":"beats/min","stresc":"53.6","stresn":"53.6","stresu":"beats/min","stnrlo":null,"stnrhi":null,"nrind":null,"pos":null,"loc":null,"dtc":"2024-04-25","dy":"54","visit":"WEEK 8","visitnum":"5.0","epoch":"TREATMENT"},{"seq":"37","testcd":"RESP","test":"Respiratory Rate","cat":null,"orres":"14.4","orresu":"breaths/min","stresc":"14.4","stresn":"14.4","stresu":"breaths/min","stnrlo":null,"stnrhi":null,"nrind":null,"pos":null,"loc":null,"dtc":"2024-04-25","dy":"54","visit":"WEEK 8","visitnum":"5.0","epoch":"TREATMENT"},{"seq":"38","testcd":"SYSBP","test":"Systolic Blood Pressure","cat":null,"orres":"103.8","orresu":"mmHg","stresc":"103.8","stresn":"103.8","stresu":"mmHg","stnrlo":null,"stnrhi":null,"nrind":null,"pos":null,"loc":null,"dtc":"2024-04-25","dy":"54","visit":"WEEK 8","visitnum":"5.0","epoch":"TREATMENT"},{"seq":"39","testcd":"TEMP","test":"Temperature","cat":null,"orres":"36.9","orresu":"C","stresc":"36.9","stresn":"36.9","stresu":"C","stnrlo":null,"stnrhi":null,"nrind":null,"pos":null,"loc":null,"dtc":"2024-04-25","dy":"54","visit":"WEEK 8","visitnum":"5.0","epoch":"TREATMENT"},{"seq":"40","testcd":"WEIGHT","test":"Weight","cat":null,"orres":"80.6","orresu":"kg","stresc":"80.6","stresn":"80.6","stresu":"kg","stnrlo":null,"stnrhi":null,"nrind":null,"pos":null,"loc":null,"dtc":"2024-04-25","dy":"54","visit":"WEEK 8","visitnum":"5.0","epoch":"TREATMENT"},{"seq":"41","testcd":"BMI","test":"BMI","cat":null,"orres":"29.3","orresu":"kg/m2","stresc":"29.3","stresn":"29.3","stresu":"kg/m2","stnrlo":null,"stnrhi":null,"nrind":null,"pos":null,"loc":null,"dtc":"2024-05-25","dy":"84","visit":"WEEK 12","visitnum":"6.0","epoch":"TREATMENT"},{"seq":"42","testcd":"DIABP","test":"Diastolic Blood Pressure","cat":null,"orres":"84.7","orresu":"mmHg","stresc":"84.7","stresn":"84.7","stresu":"mmHg","stnrlo":null,"stnrhi":null,"nrind":null,"pos":null,"loc":null,"dtc":"2024-05-25","dy":"84","visit":"WEEK 12","visitnum":"6.0","epoch":"TREATMENT"},{"seq":"43","testcd":"HEIGHT","test":"Height","cat":null,"orres":"166.4","orresu":"cm","stresc":"166.4","stresn":"166.4","stresu":"cm","stnrlo":null,"stnrhi":null,"nrind":null,"pos":null,"loc":null,"dtc":"2024-05-25","dy":"84","visit":"WEEK 12","visitnum":"6.0","epoch":"TREATMENT"},{"seq":"44","testcd":"PULSE","test":"Pulse Rate","cat":null,"orres":"56.3","orresu":"beats/min","stresc":"56.3","stresn":"56.3","stresu":"beats/min","stnrlo":null,"stnrhi":null,"nrind":null,"pos":null,"loc":null,"dtc":"2024-05-25","dy":"84","visit":"WEEK 12","visitnum":"6.0","epoch":"TREATMENT"},{"seq":"45","testcd":"RESP","test":"Respiratory Rate","cat":null,"orres":"15.4","orresu":"breaths/min","stresc":"15.4","stresn":"15.4","stresu":"breaths/min","stnrlo":null,"stnrhi":null,"nrind":null,"pos":null,"loc":null,"dtc":"2024-05-25","dy":"84","visit":"WEEK 12","visitnum":"6.0","epoch":"TREATMENT"},{"seq":"46","testcd":"SYSBP","test":"Systolic Blood Pressure","cat":null,"orres":"101.0","orresu":"mmHg","stresc":"101.0","stresn":"101.0","stresu":"mmHg","stnrlo":null,"stnrhi":null,"nrind":null,"pos":null,"loc":null,"dtc":"2024-05-25","dy":"84","visit":"WEEK 12","visitnum":"6.0","epoch":"TREATMENT"},{"seq":"47","testcd":"TEMP","test":"Temperature","cat":null,"orres":"36.8","orresu":"C","stresc":"36.8","stresn":"36.8","stresu":"C","stnrlo":null,"stnrhi":null,"nrind":null,"pos":null,"loc":null,"dtc":"2024-05-25","dy":"84","visit":"WEEK 12","visitnum":"6.0","epoch":"TREATMENT"},{"seq":"48","testcd":"WEIGHT","test":"Weight","cat":null,"orres":"81.2","orresu":"kg","stresc":"81.2","stresn":"81.2","stresu":"kg","stnrlo":null,"stnrhi":null,"nrind":null,"pos":null,"loc":null,"dtc":"2024-05-25","dy":"84","visit":"WEEK 12","visitnum":"6.0","epoch":"TREATMENT"},{"seq":"49","testcd":"BMI","test":"BMI","cat":null,"orres":"29.5","orresu":"kg/m2","stresc":"29.5","stresn":"29.5","stresu":"kg/m2","stnrlo":null,"stnrhi":null,"nrind":null,"pos":null,"loc":null,"dtc":"2024-06-28","dy":"118","visit":"FOLLOW-UP","visitnum":"7.0","epoch":"FOLLOW-UP"},{"seq":"50","testcd":"DIABP","test":"Diastolic Blood Pressure","cat":null,"orres":"86.8","orresu":"mmHg","stresc":"86.8","stresn":"86.8","stresu":"mmHg","stnrlo":null,"stnrhi":null,"nrind":null,"pos":null,"loc":null,"dtc":"2024-06-28","dy":"118","visit":"FOLLOW-UP","visitnum":"7.0","epoch":"FOLLOW-UP"},{"seq":"51","testcd":"HEIGHT","test":"Height","cat":null,"orres":"166.1","orresu":"cm","stresc":"166.1","stresn":"166.1","stresu":"cm","stnrlo":null,"stnrhi":null,"nrind":null,"pos":null,"loc":null,"dtc":"2024-06-28","dy":"118","visit":"FOLLOW-UP","visitnum":"7.0","epoch":"FOLLOW-UP"},{"seq":"52","testcd":"PULSE","test":"Pulse Rate","cat":null,"orres":"57.4","orresu":"beats/min","stresc":"57.4","stresn":"57.4","stresu":"beats/min","stnrlo":null,"stnrhi":null,"nrind":null,"pos":null,"loc":null,"dtc":"2024-06-28","dy":"118","visit":"FOLLOW-UP","visitnum":"7.0","epoch":"FOLLOW-UP"},{"seq":"53","testcd":"RESP","test":"Respiratory Rate","cat":null,"orres":"14.9","orresu":"breaths/min","stresc":"14.9","stresn":"14.9","stresu":"breaths/min","stnrlo":null,"stnrhi":null,"nrind":null,"pos":null,"loc":null,"dtc":"2024-06-28","dy":"118","visit":"FOLLOW-UP","visitnum":"7.0","epoch":"FOLLOW-UP"},{"seq":"54","testcd":"SYSBP","test":"Systolic Blood Pressure","cat":null,"orres":"105.8","orresu":"mmHg","stresc":"105.8","stresn":"105.8","stresu":"mmHg","stnrlo":null,"stnrhi":null,"nrind":null,"pos":null,"loc":null,"dtc":"2024-06-28","dy":"118","visit":"FOLLOW-UP","visitnum":"7.0","epoch":"FOLLOW-UP"},{"seq":"55","testcd":"TEMP","test":"Temperature","cat":null,"orres":"36.7","orresu":"C","stresc":"36.7","stresn":"36.7","stresu":"C","stnrlo":null,"stnrhi":null,"nrind":null,"pos":null,"loc":null,"dtc":"2024-06-28","dy":"118","visit":"FOLLOW-UP","visitnum":"7.0","epoch":"FOLLOW-UP"},{"seq":"56","testcd":"WEIGHT","test":"Weight","cat":null,"orres":"81.3","orresu":"kg","stresc":"81.3","stresn":"81.3","stresu":"kg","stnrlo":null,"stnrhi":null,"nrind":null,"pos":null,"loc":null,"dtc":"2024-06-28","dy":"118","visit":"FOLLOW-UP","visitnum":"7.0","epoch":"FOLLOW-UP"}]},"section_10_questionnaires_and_scores":{"questionnaires":[],"findings_about":[]},"section_11_protocol_deviations":{"deviations":[{"seq":"1","term":"Missed PLACEBO dose on 2024-03-18","decod":"MISSED DOSE","cat":"MINOR","scat":"DOSING","start_dtc":"2024-03-18","end_dtc":null,"visit":null},{"seq":"2","term":"Visit WEEK 2 occurred 2 days late (Day 17 vs planned Day 15)","decod":"VISIT OCCURRED OUTSIDE VISIT WINDOW","cat":"MINOR","scat":"VISIT WINDOW","start_dtc":"2024-03-19","end_dtc":null,"visit":null},{"seq":"3","term":"Visit WEEK 4 occurred 2 days late (Day 31 vs planned Day 29)","decod":"VISIT OCCURRED OUTSIDE VISIT WINDOW","cat":"MINOR","scat":"VISIT WINDOW","start_dtc":"2024-04-02","end_dtc":null,"visit":null},{"seq":"4","term":"Visit WEEK 8 occurred 3 days early (Day 54 vs planned Day 57)","decod":"VISIT OCCURRED OUTSIDE VISIT WINDOW","cat":"MINOR","scat":"VISIT WINDOW","start_dtc":"2024-04-25","end_dtc":null,"visit":null},{"seq":"5","term":"Missed PLACEBO dose on 2024-05-01","decod":"MISSED DOSE","cat":"MINOR","scat":"DOSING","start_dtc":"2024-05-01","end_dtc":null,"visit":null},{"seq":"6","term":"Missed PLACEBO dose on 2024-05-06","decod":"MISSED DOSE","cat":"MINOR","scat":"DOSING","start_dtc":"2024-05-06","end_dtc":null,"visit":null}],"total":6},"section_12_disposition":{"completion_status":"COMPLETED","disposition_records":[{"seq":"1","term":"INFORMED CONSENT OBTAINED","decod":"INFORMED CONSENT OBTAINED","cat":"PROTOCOL MILESTONE","scat":null,"dtc":"2024-02-13","dy":null,"visit":null,"epoch":"SCREENING"},{"seq":"2","term":"RANDOMIZED","decod":"RANDOMIZED","cat":"PROTOCOL MILESTONE","scat":null,"dtc":"2024-03-03","dy":null,"visit":null,"epoch":"TREATMENT"},{"seq":"3","term":"COMPLETED","decod":"COMPLETED","cat":"DISPOSITION EVENT","scat":null,"dtc":"2024-07-20","dy":null,"visit":null,"epoch":"FOLLOW-UP"}],"death":null},"section_13_hospitalizations":{"items":[{"seq":"1","term":"Upper respiratory tract infection","decod":"Upper respiratory tract infection","cat":"HOSPITALIZATION","start_dtc":"2024-05-08","end_dtc":"2024-05-27","epoch":"TREATMENT"}],"total":1},"section_14_substance_use":{"items":[{"seq":"1","substance":"ALCOHOL","decod":"ALCOHOL","cat":"ALCOHOL","scat":null,"usage":"Y","dose":"8.0","dosu":"DRINKS/WEEK","freq":"QW","start_dtc":"2003-02-18","end_dtc":null},{"seq":"2","substance":"COFFEE","decod":"COFFEE","cat":"CAFFEINE","scat":null,"usage":"Y","dose":"3.0","dosu":"CUPS/DAY","freq":"QD","start_dtc":"2023-02-13","end_dtc":null},{"seq":"3","substance":"CIGARETTES","decod":"CIGARETTES","cat":"TOBACCO","scat":"CIGARETTES","usage":"N","dose":null,"dosu":null,"freq":null,"start_dtc":null,"end_dtc":null}],"total":3},"section_15_subject_status":{"items":[{"seq":"1","testcd":"SURVSTAT","test":"Survival Status","orres":"ALIVE","stresc":"ALIVE","dtc":"2024-07-20","visit":"END OF STUDY","epoch":"FOLLOW-UP"}],"total":1}}