{"subject_id":"GB001-ASTHMA-201-SITE003-0351","study_id":"GB001-ASTHMA-201","generated_at":"2026-06-16T07:22:59.217843+00:00","sdtmig_version":"3.4","flags":{"has_serious_ae":false,"has_fatal_ae":false,"has_protocol_deviation":true,"n_protocol_deviations":10,"n_adverse_events":1,"n_concomitant_meds":1,"max_ae_severity":"MILD","screen_failure":false,"discontinued_early":false,"discontinuation_reason":null,"death":false,"exposure_days":54},"timeline":[{"dtc":"2018-02-12","dy":"-2213","event":"CM START: SALBUTAMOL","domain":"CM","category":"concomitant_med"},{"dtc":"2024-02-11","dy":"-23","event":"INFORMED CONSENT OBTAINED","domain":"DS","category":"milestone"},{"dtc":"2024-02-17","dy":"-17","event":"VISIT: SCREENING","domain":"SV","category":"visit"},{"dtc":"2024-03-05","dy":"1","event":"RANDOMIZED","domain":"DS","category":"milestone"},{"dtc":"2024-03-05","dy":"1","event":"FIRST DOSE: PLACEBO","domain":"EX","category":"exposure"},{"dtc":"2024-03-05","dy":"1","event":"VISIT: BASELINE","domain":"SV","category":"visit"},{"dtc":"2024-03-14","dy":"10","event":"AE: Asthma (MILD)","domain":"AE","category":"adverse_event"},{"dtc":"2024-03-17","dy":"13","event":"VISIT: WEEK 2","domain":"SV","category":"visit"},{"dtc":"2024-03-18","dy":"14","event":"DEVIATION: MISSED DOSE","domain":"DV","category":"deviation"},{"dtc":"2024-03-26","dy":"22","event":"DEVIATION: MISSED DOSE","domain":"DV","category":"deviation"},{"dtc":"2024-03-28","dy":"24","event":"DEVIATION: MISSED DOSE","domain":"DV","category":"deviation"},{"dtc":"2024-03-30","dy":"26","event":"DEVIATION: MISSED ASSESSMENT","domain":"DV","category":"deviation"},{"dtc":"2024-03-30","dy":"26","event":"VISIT: WEEK 4","domain":"SV","category":"visit"},{"dtc":"2024-04-01","dy":"28","event":"DEVIATION: MISSED DOSE","domain":"DV","category":"deviation"},{"dtc":"2024-04-02","dy":"29","event":"DEVIATION: MISSED DOSE","domain":"DV","category":"deviation"},{"dtc":"2024-04-11","dy":"38","event":"DEVIATION: MISSED DOSE","domain":"DV","category":"deviation"},{"dtc":"2024-04-15","dy":"42","event":"DEVIATION: MISSED DOSE","domain":"DV","category":"deviation"},{"dtc":"2024-04-16","dy":"43","event":"DEVIATION: MISSED DOSE","domain":"DV","category":"deviation"},{"dtc":"2024-04-28","dy":"55","event":"VISIT: WEEK 8","domain":"SV","category":"visit"},{"dtc":"2024-05-31","dy":"88","event":"VISIT: WEEK 12","domain":"SV","category":"visit"},{"dtc":"2024-06-19","dy":"107","event":"DEVIATION: VISIT OCCURRED OUTSIDE VISIT WINDOW","domain":"DV","category":"deviation"},{"dtc":"2024-06-19","dy":"107","event":"VISIT: FOLLOW-UP","domain":"SV","category":"visit"},{"dtc":"2024-07-22","dy":"140","event":"COMPLETED","domain":"DS","category":"milestone"}],"section_1_demographics":{"usubjid":"GB001-ASTHMA-201-SITE003-0351","subjid":"0351","siteid":"SITE003","age":"27","ageu":"YEARS","sex":"F","race":"WHITE","ethnicity":"NOT HISPANIC OR LATINO","country":"USA","arm":"Placebo","armcd":"PBO","actarm":"Placebo","actarmcd":"PBO","randomization_date":null,"informed_consent_date":"2024-02-11","reference_start_date":"2024-03-05","reference_end_date":"2024-07-22","screen_failure":false,"death_flag":null,"death_date":null,"subject_characteristics":[{"testcd":"ALCUSE","test":"Alcohol Use","orres":"NON-DRINKER","stresc":"NON-DRINKER","visit":null,"dtc":"2024-02-11"},{"testcd":"BMI","test":"Body Mass Index","orres":"26.6","stresc":"26.6","visit":null,"dtc":"2024-02-11"},{"testcd":"DURDIS","test":"Duration of Disease","orres":"73 months","stresc":"73","visit":null,"dtc":"2024-02-11"},{"testcd":"TOBUSE","test":"Tobacco Use","orres":"NEVER SMOKED","stresc":"NEVER SMOKED","visit":null,"dtc":"2024-02-11"}]},"section_2_medical_history":{"items":[{"seq":"1","term":"ASTHMA","decod":"ASTHMA","cat":"RESPIRATORY","scat":null,"presp":null,"occur":null,"status":null,"onset_dtc":"2018-02-12","end_dtc":null,"visit":null},{"seq":"2","term":"GASTROESOPHAGEAL REFLUX DISEASE","decod":"GASTROESOPHAGEAL REFLUX DISEASE","cat":"GASTROINTESTINAL","scat":null,"presp":null,"occur":null,"status":null,"onset_dtc":"2022-02","end_dtc":"2023-12-06","visit":null}]},"section_3_inclusion_exclusion":{"criteria":[]},"section_4_trial_participation":{"visits":[{"visitnum":"1.0","visit":"SCREENING","start_dtc":"2024-02-17","end_dtc":"2024-02-17","updes":null},{"visitnum":"2.0","visit":"BASELINE","start_dtc":"2024-03-05","end_dtc":"2024-03-05","updes":null},{"visitnum":"3.0","visit":"WEEK 2","start_dtc":"2024-03-17","end_dtc":"2024-03-17","updes":null},{"visitnum":"4.0","visit":"WEEK 4","start_dtc":"2024-03-30","end_dtc":"2024-03-30","updes":null},{"visitnum":"5.0","visit":"WEEK 8","start_dtc":"2024-04-28","end_dtc":"2024-04-28","updes":null},{"visitnum":"6.0","visit":"WEEK 12","start_dtc":"2024-05-31","end_dtc":"2024-05-31","updes":null},{"visitnum":"7.0","visit":"FOLLOW-UP","start_dtc":"2024-06-19","end_dtc":"2024-06-19","updes":null}],"epochs":[{"seq":"1","etcd":"SCRN","element":"Screening","start_dtc":"2024-02-06","end_dtc":"2024-03-05","updes":null},{"seq":"2","etcd":"TRT","element":"Treatment","start_dtc":"2024-03-05","end_dtc":"2024-05-28","updes":null},{"seq":"3","etcd":"FU","element":"Follow-up","start_dtc":"2024-05-28","end_dtc":"2024-06-24","updes":null}],"visit_count":7},"section_5_concomitant_medications":{"medications":[{"seq":"1","trt":"SALBUTAMOL","decod":"SALBUTAMOL","cat":"PRIOR","dose":"100","doseu":null,"dosef":"PRN","route":"RESPIRATORY (INHALATION)","indication":"ASTHMA","start_dtc":"2018-02-12","end_dtc":"2024-07-22","ongoing":null,"visit":null}]},"section_6_exposure":{"exposure_as_administered":[{"seq":"1","trt":"PLACEBO","dose":"0.0","doseu":null,"dosef":"QD","route":"ORAL","lot":null,"start_dtc":"2024-03-05","end_dtc":"2024-04-28","start_dy":"1","end_dy":"55","epoch":"TREATMENT","visit":null}],"exposure_as_collected":[{"seq":"1","trt":"PLACEBO","dose":null,"doseu":null,"dosef":"QD","route":"ORAL","start_dtc":"2024-03-05","end_dtc":"2024-03-05","visit":"BASELINE"},{"seq":"2","trt":"PLACEBO","dose":null,"doseu":null,"dosef":"QD","route":"ORAL","start_dtc":"2024-03-06","end_dtc":"2024-03-06","visit":"BASELINE"},{"seq":"3","trt":"PLACEBO","dose":null,"doseu":null,"dosef":"QD","route":"ORAL","start_dtc":"2024-03-07","end_dtc":"2024-03-07","visit":"BASELINE"},{"seq":"4","trt":"PLACEBO","dose":null,"doseu":null,"dosef":"QD","route":"ORAL","start_dtc":"2024-03-08","end_dtc":"2024-03-08","visit":"BASELINE"},{"seq":"5","trt":"PLACEBO","dose":null,"doseu":null,"dosef":"QD","route":"ORAL","start_dtc":"2024-03-09","end_dtc":"2024-03-09","visit":null},{"seq":"6","trt":"PLACEBO","dose":null,"doseu":null,"dosef":"QD","route":"ORAL","start_dtc":"2024-03-10","end_dtc":"2024-03-10","visit":null},{"seq":"7","trt":"PLACEBO","dose":null,"doseu":null,"dosef":"QD","route":"ORAL","start_dtc":"2024-03-11","end_dtc":"2024-03-11","visit":null},{"seq":"8","trt":"PLACEBO","dose":null,"doseu":null,"dosef":"QD","route":"ORAL","start_dtc":"2024-03-12","end_dtc":"2024-03-12","visit":null},{"seq":"9","trt":"PLACEBO","dose":null,"doseu":null,"dosef":"QD","route":"ORAL","start_dtc":"2024-03-13","end_dtc":"2024-03-13","visit":null},{"seq":"10","trt":"PLACEBO","dose":null,"doseu":null,"dosef":"QD","route":"ORAL","start_dtc":"2024-03-14","end_dtc":"2024-03-14","visit":null},{"seq":"11","trt":"PLACEBO","dose":null,"doseu":null,"dosef":"QD","route":"ORAL","start_dtc":"2024-03-15","end_dtc":"2024-03-15","visit":null},{"seq":"12","trt":"PLACEBO","dose":null,"doseu":null,"dosef":"QD","route":"ORAL","start_dtc":"2024-03-16","end_dtc":"2024-03-16","visit":"WEEK 2"},{"seq":"13","trt":"PLACEBO","dose":null,"doseu":null,"dosef":"QD","route":"ORAL","start_dtc":"2024-03-17","end_dtc":"2024-03-17","visit":"WEEK 2"},{"seq":"14","trt":"PLACEBO","dose":null,"doseu":null,"dosef":"QD","route":"ORAL","start_dtc":"2024-03-18","end_dtc":"2024-03-18","visit":"WEEK 2"},{"seq":"15","trt":"PLACEBO","dose":null,"doseu":null,"dosef":"QD","route":"ORAL","start_dtc":"2024-03-19","end_dtc":"2024-03-19","visit":"WEEK 2"},{"seq":"16","trt":"PLACEBO","dose":null,"doseu":null,"dosef":"QD","route":"ORAL","start_dtc":"2024-03-20","end_dtc":"2024-03-20","visit":"WEEK 2"},{"seq":"17","trt":"PLACEBO","dose":null,"doseu":null,"dosef":"QD","route":"ORAL","start_dtc":"2024-03-21","end_dtc":"2024-03-21","visit":"WEEK 2"},{"seq":"18","trt":"PLACEBO","dose":null,"doseu":null,"dosef":"QD","route":"ORAL","start_dtc":"2024-03-22","end_dtc":"2024-03-22","visit":"WEEK 2"},{"seq":"19","trt":"PLACEBO","dose":null,"doseu":null,"dosef":"QD","route":"ORAL","start_dtc":"2024-03-23","end_dtc":"2024-03-23","visit":null},{"seq":"20","trt":"PLACEBO","dose":null,"doseu":null,"dosef":"QD","route":"ORAL","start_dtc":"2024-03-24","end_dtc":"2024-03-24","visit":null},{"seq":"21","trt":"PLACEBO","dose":null,"doseu":null,"dosef":"QD","route":"ORAL","start_dtc":"2024-03-25","end_dtc":"2024-03-25","visit":null},{"seq":"22","trt":"PLACEBO","dose":null,"doseu":null,"dosef":"QD","route":"ORAL","start_dtc":"2024-03-26","end_dtc":"2024-03-26","visit":null},{"seq":"23","trt":"PLACEBO","dose":null,"doseu":null,"dosef":"QD","route":"ORAL","start_dtc":"2024-03-27","end_dtc":"2024-03-27","visit":null},{"seq":"24","trt":"PLACEBO","dose":null,"doseu":null,"dosef":"QD","route":"ORAL","start_dtc":"2024-03-28","end_dtc":"2024-03-28","visit":null},{"seq":"25","trt":"PLACEBO","dose":null,"doseu":null,"dosef":"QD","route":"ORAL","start_dtc":"2024-03-29","end_dtc":"2024-03-29","visit":null},{"seq":"26","trt":"PLACEBO","dose":null,"doseu":null,"dosef":"QD","route":"ORAL","start_dtc":"2024-03-30","end_dtc":"2024-03-30","visit":"WEEK 4"},{"seq":"27","trt":"PLACEBO","dose":null,"doseu":null,"dosef":"QD","route":"ORAL","start_dtc":"2024-03-31","end_dtc":"2024-03-31","visit":"WEEK 4"},{"seq":"28","trt":"PLACEBO","dose":null,"doseu":null,"dosef":"QD","route":"ORAL","start_dtc":"2024-04-01","end_dtc":"2024-04-01","visit":"WEEK 4"},{"seq":"29","trt":"PLACEBO","dose":null,"doseu":null,"dosef":"QD","route":"ORAL","start_dtc":"2024-04-02","end_dtc":"2024-04-02","visit":"WEEK 4"},{"seq":"30","trt":"PLACEBO","dose":null,"doseu":null,"dosef":"QD","route":"ORAL","start_dtc":"2024-04-03","end_dtc":"2024-04-03","visit":"WEEK 4"},{"seq":"31","trt":"PLACEBO","dose":null,"doseu":null,"dosef":"QD","route":"ORAL","start_dtc":"2024-04-04","end_dtc":"2024-04-04","visit":"WEEK 4"},{"seq":"32","trt":"PLACEBO","dose":null,"doseu":null,"dosef":"QD","route":"ORAL","start_dtc":"2024-04-05","end_dtc":"2024-04-05","visit":"WEEK 4"},{"seq":"33","trt":"PLACEBO","dose":null,"doseu":null,"dosef":"QD","route":"ORAL","start_dtc":"2024-04-06","end_dtc":"2024-04-06","visit":null},{"seq":"34","trt":"PLACEBO","dose":null,"doseu":null,"dosef":"QD","route":"ORAL","start_dtc":"2024-04-07","end_dtc":"2024-04-07","visit":null},{"seq":"35","trt":"PLACEBO","dose":null,"doseu":null,"dosef":"QD","route":"ORAL","start_dtc":"2024-04-08","end_dtc":"2024-04-08","visit":null},{"seq":"36","trt":"PLACEBO","dose":null,"doseu":null,"dosef":"QD","route":"ORAL","start_dtc":"2024-04-09","end_dtc":"2024-04-09","visit":null},{"seq":"37","trt":"PLACEBO","dose":null,"doseu":null,"dosef":"QD","route":"ORAL","start_dtc":"2024-04-10","end_dtc":"2024-04-10","visit":null},{"seq":"38","trt":"PLACEBO","dose":null,"doseu":null,"dosef":"QD","route":"ORAL","start_dtc":"2024-04-11","end_dtc":"2024-04-11","visit":null},{"seq":"39","trt":"PLACEBO","dose":null,"doseu":null,"dosef":"QD","route":"ORAL","start_dtc":"2024-04-12","end_dtc":"2024-04-12","visit":null},{"seq":"40","trt":"PLACEBO","dose":null,"doseu":null,"dosef":"QD","route":"ORAL","start_dtc":"2024-04-13","end_dtc":"2024-04-13","visit":null},{"seq":"41","trt":"PLACEBO","dose":null,"doseu":null,"dosef":"QD","route":"ORAL","start_dtc":"2024-04-14","end_dtc":"2024-04-14","visit":null},{"seq":"42","trt":"PLACEBO","dose":null,"doseu":null,"dosef":"QD","route":"ORAL","start_dtc":"2024-04-15","end_dtc":"2024-04-15","visit":null},{"seq":"43","trt":"PLACEBO","dose":null,"doseu":null,"dosef":"QD","route":"ORAL","start_dtc":"2024-04-16","end_dtc":"2024-04-16","visit":null},{"seq":"44","trt":"PLACEBO","dose":null,"doseu":null,"dosef":"QD","route":"ORAL","start_dtc":"2024-04-17","end_dtc":"2024-04-17","visit":null},{"seq":"45","trt":"PLACEBO","dose":null,"doseu":null,"dosef":"QD","route":"ORAL","start_dtc":"2024-04-18","end_dtc":"2024-04-18","visit":null},{"seq":"46","trt":"PLACEBO","dose":null,"doseu":null,"dosef":"QD","route":"ORAL","start_dtc":"2024-04-19","end_dtc":"2024-04-19","visit":null},{"seq":"47","trt":"PLACEBO","dose":null,"doseu":null,"dosef":"QD","route":"ORAL","start_dtc":"2024-04-20","end_dtc":"2024-04-20","visit":null},{"seq":"48","trt":"PLACEBO","dose":null,"doseu":null,"dosef":"QD","route":"ORAL","start_dtc":"2024-04-21","end_dtc":"2024-04-21","visit":null},{"seq":"49","trt":"PLACEBO","dose":null,"doseu":null,"dosef":"QD","route":"ORAL","start_dtc":"2024-04-22","end_dtc":"2024-04-22","visit":null},{"seq":"50","trt":"PLACEBO","dose":null,"doseu":null,"dosef":"QD","route":"ORAL","start_dtc":"2024-04-23","end_dtc":"2024-04-23","visit":null},{"seq":"51","trt":"PLACEBO","dose":null,"doseu":null,"dosef":"QD","route":"ORAL","start_dtc":"2024-04-24","end_dtc":"2024-04-24","visit":null},{"seq":"52","trt":"PLACEBO","dose":null,"doseu":null,"dosef":"QD","route":"ORAL","start_dtc":"2024-04-25","end_dtc":"2024-04-25","visit":null},{"seq":"53","trt":"PLACEBO","dose":null,"doseu":null,"dosef":"QD","route":"ORAL","start_dtc":"2024-04-26","end_dtc":"2024-04-26","visit":null},{"seq":"54","trt":"PLACEBO","dose":null,"doseu":null,"dosef":"QD","route":"ORAL","start_dtc":"2024-04-27","end_dtc":"2024-04-27","visit":"WEEK 8"},{"seq":"55","trt":"PLACEBO","dose":null,"doseu":null,"dosef":"QD","route":"ORAL","start_dtc":"2024-04-28","end_dtc":"2024-04-28","visit":"WEEK 8"}]},"section_7_adverse_events":{"summary":{"total_aes":1,"serious_aes":0,"fatal_aes":0,"by_severity":{"MILD":1},"by_soc":{"Respiratory, thoracic and mediastinal disorders":1}},"events":[{"seq":"1","term":"ASTHMA","decod":"Asthma","llt":"Asthma","hlt":"Bronchospasm and obstruction","hlgt":"Lower respiratory tract conditions (excl obstruction and infection)","soc":"Respiratory, thoracic and mediastinal disorders","bodsys":"Respiratory, thoracic and mediastinal disorders","severity":"MILD","serious":"N","causality":"NOT RELATED","action_taken":"DOSE NOT CHANGED","outcome":"RECOVERED/RESOLVED","fatal":"N","hospitalization":"N","life_threatening":"N","onset_dtc":"2024-03-14","end_dtc":"2024-03-21","onset_dy":"10","end_dy":"17","duration":null,"epoch":"TREATMENT","visit":null,"supplemental":{"AETRTEM":"Y"}}]},"section_8_laboratory_results":{"summary":{"total_records":42,"abnormal_count":7,"abnormal_pct":16.7},"shift_summary":[{"testcd":"ALT","baseline_value":45.5,"baseline_nrind":"NORMAL","worst_post_baseline_value":46.67,"worst_post_baseline_nrind":"NORMAL","worst_visit":"FOLLOW-UP"},{"testcd":"AST","baseline_value":33.28,"baseline_nrind":"NORMAL","worst_post_baseline_value":34.49,"worst_post_baseline_nrind":"NORMAL","worst_visit":"BASELINE"},{"testcd":"CREAT","baseline_value":66.05,"baseline_nrind":"NORMAL","worst_post_baseline_value":67.74,"worst_post_baseline_nrind":"NORMAL","worst_visit":"WEEK 2"},{"testcd":"GLUC","baseline_value":4.61,"baseline_nrind":"NORMAL","worst_post_baseline_value":4.7,"worst_post_baseline_nrind":"NORMAL","worst_visit":"WEEK 8"},{"testcd":"HGB","baseline_value":120.71,"baseline_nrind":"NORMAL","worst_post_baseline_value":119.04,"worst_post_baseline_nrind":"LOW","worst_visit":"FOLLOW-UP"},{"testcd":"PLAT","baseline_value":198.12,"baseline_nrind":"NORMAL","worst_post_baseline_value":222.8,"worst_post_baseline_nrind":"NORMAL","worst_visit":"WEEK 8"},{"testcd":"WBC","baseline_value":3.15,"baseline_nrind":"LOW","worst_post_baseline_value":3.74,"worst_post_baseline_nrind":"LOW","worst_visit":"BASELINE"}],"results":[{"seq":"1","testcd":"ALT","test":"Alanine Aminotransferase","cat":"CHEMISTRY","orres":"45.5","orresu":"U/L","stresc":"45.5","stresn":"45.5","stresu":"U/L","stnrlo":"7","stnrhi":"56","nrind":"NORMAL","fast":null,"dtc":"2024-02-17","dy":"-17","visit":"SCREENING","visitnum":"1.0","epoch":"SCREENING","spec":null,"method":null},{"seq":"2","testcd":"AST","test":"Aspartate Aminotransferase","cat":"CHEMISTRY","orres":"33.28","orresu":"U/L","stresc":"33.28","stresn":"33.28","stresu":"U/L","stnrlo":"10","stnrhi":"40","nrind":"NORMAL","fast":null,"dtc":"2024-02-17","dy":"-17","visit":"SCREENING","visitnum":"1.0","epoch":"SCREENING","spec":null,"method":null},{"seq":"3","testcd":"CREAT","test":"Creatinine","cat":"CHEMISTRY","orres":"66.05","orresu":"umol/L","stresc":"66.05","stresn":"66.05","stresu":"umol/L","stnrlo":"44","stnrhi":"80","nrind":"NORMAL","fast":null,"dtc":"2024-02-17","dy":"-17","visit":"SCREENING","visitnum":"1.0","epoch":"SCREENING","spec":null,"method":null},{"seq":"4","testcd":"GLUC","test":"Glucose","cat":"CHEMISTRY","orres":"4.61","orresu":"mmol/L","stresc":"4.61","stresn":"4.61","stresu":"mmol/L","stnrlo":"3.9","stnrhi":"5.6","nrind":"NORMAL","fast":null,"dtc":"2024-02-17","dy":"-17","visit":"SCREENING","visitnum":"1.0","epoch":"SCREENING","spec":null,"method":null},{"seq":"5","testcd":"HGB","test":"Hemoglobin","cat":"HEMATOLOGY","orres":"120.71","orresu":"g/L","stresc":"120.71","stresn":"120.71","stresu":"g/L","stnrlo":"120","stnrhi":"155","nrind":"NORMAL","fast":null,"dtc":"2024-02-17","dy":"-17","visit":"SCREENING","visitnum":"1.0","epoch":"SCREENING","spec":null,"method":null},{"seq":"6","testcd":"PLAT","test":"Platelets","cat":"HEMATOLOGY","orres":"198.12","orresu":"10^9/L","stresc":"198.12","stresn":"198.12","stresu":"10^9/L","stnrlo":"150","stnrhi":"400","nrind":"NORMAL","fast":null,"dtc":"2024-02-17","dy":"-17","visit":"SCREENING","visitnum":"1.0","epoch":"SCREENING","spec":null,"method":null},{"seq":"7","testcd":"WBC","test":"Leukocytes","cat":"HEMATOLOGY","orres":"3.15","orresu":"10^9/L","stresc":"3.15","stresn":"3.15","stresu":"10^9/L","stnrlo":"4.0","stnrhi":"11.0","nrind":"LOW","fast":null,"dtc":"2024-02-17","dy":"-17","visit":"SCREENING","visitnum":"1.0","epoch":"SCREENING","spec":null,"method":null},{"seq":"8","testcd":"ALT","test":"Alanine Aminotransferase","cat":"CHEMISTRY","orres":"44.36","orresu":"U/L","stresc":"44.36","stresn":"44.36","stresu":"U/L","stnrlo":"7","stnrhi":"56","nrind":"NORMAL","fast":null,"dtc":"2024-03-05","dy":"1","visit":"BASELINE","visitnum":"2.0","epoch":"TREATMENT","spec":null,"method":null},{"seq":"9","testcd":"AST","test":"Aspartate Aminotransferase","cat":"CHEMISTRY","orres":"34.49","orresu":"U/L","stresc":"34.49","stresn":"34.49","stresu":"U/L","stnrlo":"10","stnrhi":"40","nrind":"NORMAL","fast":null,"dtc":"2024-03-05","dy":"1","visit":"BASELINE","visitnum":"2.0","epoch":"TREATMENT","spec":null,"method":null},{"seq":"10","testcd":"CREAT","test":"Creatinine","cat":"CHEMISTRY","orres":"66.91","orresu":"umol/L","stresc":"66.91","stresn":"66.91","stresu":"umol/L","stnrlo":"44","stnrhi":"80","nrind":"NORMAL","fast":null,"dtc":"2024-03-05","dy":"1","visit":"BASELINE","visitnum":"2.0","epoch":"TREATMENT","spec":null,"method":null},{"seq":"11","testcd":"GLUC","test":"Glucose","cat":"CHEMISTRY","orres":"4.64","orresu":"mmol/L","stresc":"4.64","stresn":"4.64","stresu":"mmol/L","stnrlo":"3.9","stnrhi":"5.6","nrind":"NORMAL","fast":null,"dtc":"2024-03-05","dy":"1","visit":"BASELINE","visitnum":"2.0","epoch":"TREATMENT","spec":null,"method":null},{"seq":"12","testcd":"HGB","test":"Hemoglobin","cat":"HEMATOLOGY","orres":"122.31","orresu":"g/L","stresc":"122.31","stresn":"122.31","stresu":"g/L","stnrlo":"120","stnrhi":"155","nrind":"NORMAL","fast":null,"dtc":"2024-03-05","dy":"1","visit":"BASELINE","visitnum":"2.0","epoch":"TREATMENT","spec":null,"method":null},{"seq":"13","testcd":"PLAT","test":"Platelets","cat":"HEMATOLOGY","orres":"195.17","orresu":"10^9/L","stresc":"195.17","stresn":"195.17","stresu":"10^9/L","stnrlo":"150","stnrhi":"400","nrind":"NORMAL","fast":null,"dtc":"2024-03-05","dy":"1","visit":"BASELINE","visitnum":"2.0","epoch":"TREATMENT","spec":null,"method":null},{"seq":"14","testcd":"WBC","test":"Leukocytes","cat":"HEMATOLOGY","orres":"3.74","orresu":"10^9/L","stresc":"3.74","stresn":"3.74","stresu":"10^9/L","stnrlo":"4.0","stnrhi":"11.0","nrind":"LOW","fast":null,"dtc":"2024-03-05","dy":"1","visit":"BASELINE","visitnum":"2.0","epoch":"TREATMENT","spec":null,"method":null},{"seq":"15","testcd":"ALT","test":"Alanine Aminotransferase","cat":"CHEMISTRY","orres":"43.98","orresu":"U/L","stresc":"43.98","stresn":"43.98","stresu":"U/L","stnrlo":"7","stnrhi":"56","nrind":"NORMAL","fast":null,"dtc":"2024-03-17","dy":"13","visit":"WEEK 2","visitnum":"3.0","epoch":"TREATMENT","spec":null,"method":null},{"seq":"16","testcd":"AST","test":"Aspartate Aminotransferase","cat":"CHEMISTRY","orres":"32.78","orresu":"U/L","stresc":"32.78","stresn":"32.78","stresu":"U/L","stnrlo":"10","stnrhi":"40","nrind":"NORMAL","fast":null,"dtc":"2024-03-17","dy":"13","visit":"WEEK 2","visitnum":"3.0","epoch":"TREATMENT","spec":null,"method":null},{"seq":"17","testcd":"CREAT","test":"Creatinine","cat":"CHEMISTRY","orres":"67.74","orresu":"umol/L","stresc":"67.74","stresn":"67.74","stresu":"umol/L","stnrlo":"44","stnrhi":"80","nrind":"NORMAL","fast":null,"dtc":"2024-03-17","dy":"13","visit":"WEEK 2","visitnum":"3.0","epoch":"TREATMENT","spec":null,"method":null},{"seq":"18","testcd":"GLUC","test":"Glucose","cat":"CHEMISTRY","orres":"4.67","orresu":"mmol/L","stresc":"4.67","stresn":"4.67","stresu":"mmol/L","stnrlo":"3.9","stnrhi":"5.6","nrind":"NORMAL","fast":null,"dtc":"2024-03-17","dy":"13","visit":"WEEK 2","visitnum":"3.0","epoch":"TREATMENT","spec":null,"method":null},{"seq":"19","testcd":"HGB","test":"Hemoglobin","cat":"HEMATOLOGY","orres":"122.92","orresu":"g/L","stresc":"122.92","stresn":"122.92","stresu":"g/L","stnrlo":"120","stnrhi":"155","nrind":"NORMAL","fast":null,"dtc":"2024-03-17","dy":"13","visit":"WEEK 2","visitnum":"3.0","epoch":"TREATMENT","spec":null,"method":null},{"seq":"20","testcd":"PLAT","test":"Platelets","cat":"HEMATOLOGY","orres":"198.27","orresu":"10^9/L","stresc":"198.27","stresn":"198.27","stresu":"10^9/L","stnrlo":"150","stnrhi":"400","nrind":"NORMAL","fast":null,"dtc":"2024-03-17","dy":"13","visit":"WEEK 2","visitnum":"3.0","epoch":"TREATMENT","spec":null,"method":null},{"seq":"21","testcd":"WBC","test":"Leukocytes","cat":"HEMATOLOGY","orres":"3.56","orresu":"10^9/L","stresc":"3.56","stresn":"3.56","stresu":"10^9/L","stnrlo":"4.0","stnrhi":"11.0","nrind":"LOW","fast":null,"dtc":"2024-03-17","dy":"13","visit":"WEEK 2","visitnum":"3.0","epoch":"TREATMENT","spec":null,"method":null},{"seq":"22","testcd":"ALT","test":"Alanine Aminotransferase","cat":"CHEMISTRY","orres":"45.49","orresu":"U/L","stresc":"45.49","stresn":"45.49","stresu":"U/L","stnrlo":"7","stnrhi":"56","nrind":"NORMAL","fast":null,"dtc":"2024-04-28","dy":"55","visit":"WEEK 8","visitnum":"5.0","epoch":"TREATMENT","spec":null,"method":null},{"seq":"23","testcd":"AST","test":"Aspartate Aminotransferase","cat":"CHEMISTRY","orres":null,"orresu":null,"stresc":null,"stresn":null,"stresu":null,"stnrlo":null,"stnrhi":null,"nrind":null,"fast":null,"dtc":"2024-04-28","dy":"55","visit":"WEEK 8","visitnum":"5.0","epoch":"TREATMENT","spec":null,"method":null},{"seq":"24","testcd":"CREAT","test":"Creatinine","cat":"CHEMISTRY","orres":"64.39","orresu":"umol/L","stresc":"64.39","stresn":"64.39","stresu":"umol/L","stnrlo":"44","stnrhi":"80","nrind":"NORMAL","fast":null,"dtc":"2024-04-28","dy":"55","visit":"WEEK 8","visitnum":"5.0","epoch":"TREATMENT","spec":null,"method":null},{"seq":"25","testcd":"GLUC","test":"Glucose","cat":"CHEMISTRY","orres":"4.7","orresu":"mmol/L","stresc":"4.7","stresn":"4.7","stresu":"mmol/L","stnrlo":"3.9","stnrhi":"5.6","nrind":"NORMAL","fast":null,"dtc":"2024-04-28","dy":"55","visit":"WEEK 8","visitnum":"5.0","epoch":"TREATMENT","spec":null,"method":null},{"seq":"26","testcd":"HGB","test":"Hemoglobin","cat":"HEMATOLOGY","orres":"122.33","orresu":"g/L","stresc":"122.33","stresn":"122.33","stresu":"g/L","stnrlo":"120","stnrhi":"155","nrind":"NORMAL","fast":null,"dtc":"2024-04-28","dy":"55","visit":"WEEK 8","visitnum":"5.0","epoch":"TREATMENT","spec":null,"method":null},{"seq":"27","testcd":"PLAT","test":"Platelets","cat":"HEMATOLOGY","orres":"222.8","orresu":"10^9/L","stresc":"222.8","stresn":"222.8","stresu":"10^9/L","stnrlo":"150","stnrhi":"400","nrind":"NORMAL","fast":null,"dtc":"2024-04-28","dy":"55","visit":"WEEK 8","visitnum":"5.0","epoch":"TREATMENT","spec":null,"method":null},{"seq":"28","testcd":"WBC","test":"Leukocytes","cat":"HEMATOLOGY","orres":"3.71","orresu":"10^9/L","stresc":"3.71","stresn":"3.71","stresu":"10^9/L","stnrlo":"4.0","stnrhi":"11.0","nrind":"LOW","fast":null,"dtc":"2024-04-28","dy":"55","visit":"WEEK 8","visitnum":"5.0","epoch":"TREATMENT","spec":null,"method":null},{"seq":"29","testcd":"ALT","test":"Alanine Aminotransferase","cat":"CHEMISTRY","orres":"46.15","orresu":"U/L","stresc":"46.15","stresn":"46.15","stresu":"U/L","stnrlo":"7","stnrhi":"56","nrind":"NORMAL","fast":null,"dtc":"2024-05-31","dy":"88","visit":"WEEK 12","visitnum":"6.0","epoch":"TREATMENT","spec":null,"method":null},{"seq":"30","testcd":"AST","test":"Aspartate Aminotransferase","cat":"CHEMISTRY","orres":"31.71","orresu":"U/L","stresc":"31.71","stresn":"31.71","stresu":"U/L","stnrlo":"10","stnrhi":"40","nrind":"NORMAL","fast":null,"dtc":"2024-05-31","dy":"88","visit":"WEEK 12","visitnum":"6.0","epoch":"TREATMENT","spec":null,"method":null},{"seq":"31","testcd":"CREAT","test":"Creatinine","cat":"CHEMISTRY","orres":"64.49","orresu":"umol/L","stresc":"64.49","stresn":"64.49","stresu":"umol/L","stnrlo":"44","stnrhi":"80","nrind":"NORMAL","fast":null,"dtc":"2024-05-31","dy":"88","visit":"WEEK 12","visitnum":"6.0","epoch":"TREATMENT","spec":null,"method":null},{"seq":"32","testcd":"GLUC","test":"Glucose","cat":"CHEMISTRY","orres":"4.64","orresu":"mmol/L","stresc":"4.64","stresn":"4.64","stresu":"mmol/L","stnrlo":"3.9","stnrhi":"5.6","nrind":"NORMAL","fast":null,"dtc":"2024-05-31","dy":"88","visit":"WEEK 12","visitnum":"6.0","epoch":"TREATMENT","spec":null,"method":null},{"seq":"33","testcd":"HGB","test":"Hemoglobin","cat":"HEMATOLOGY","orres":"122.03","orresu":"g/L","stresc":"122.03","stresn":"122.03","stresu":"g/L","stnrlo":"120","stnrhi":"155","nrind":"NORMAL","fast":null,"dtc":"2024-05-31","dy":"88","visit":"WEEK 12","visitnum":"6.0","epoch":"TREATMENT","spec":null,"method":null},{"seq":"34","testcd":"PLAT","test":"Platelets","cat":"HEMATOLOGY","orres":"217.33","orresu":"10^9/L","stresc":"217.33","stresn":"217.33","stresu":"10^9/L","stnrlo":"150","stnrhi":"400","nrind":"NORMAL","fast":null,"dtc":"2024-05-31","dy":"88","visit":"WEEK 12","visitnum":"6.0","epoch":"TREATMENT","spec":null,"method":null},{"seq":"35","testcd":"WBC","test":"Leukocytes","cat":"HEMATOLOGY","orres":"3.4","orresu":"10^9/L","stresc":"3.4","stresn":"3.4","stresu":"10^9/L","stnrlo":"4.0","stnrhi":"11.0","nrind":"LOW","fast":null,"dtc":"2024-05-31","dy":"88","visit":"WEEK 12","visitnum":"6.0","epoch":"TREATMENT","spec":null,"method":null},{"seq":"36","testcd":"ALT","test":"Alanine Aminotransferase","cat":"CHEMISTRY","orres":"46.67","orresu":"U/L","stresc":"46.67","stresn":"46.67","stresu":"U/L","stnrlo":"7","stnrhi":"56","nrind":"NORMAL","fast":null,"dtc":"2024-06-19","dy":"107","visit":"FOLLOW-UP","visitnum":"7.0","epoch":"FOLLOW-UP","spec":null,"method":null},{"seq":"37","testcd":"AST","test":"Aspartate Aminotransferase","cat":"CHEMISTRY","orres":"31.29","orresu":"U/L","stresc":"31.29","stresn":"31.29","stresu":"U/L","stnrlo":"10","stnrhi":"40","nrind":"NORMAL","fast":null,"dtc":"2024-06-19","dy":"107","visit":"FOLLOW-UP","visitnum":"7.0","epoch":"FOLLOW-UP","spec":null,"method":null},{"seq":"38","testcd":"CREAT","test":"Creatinine","cat":"CHEMISTRY","orres":"65.63","orresu":"umol/L","stresc":"65.63","stresn":"65.63","stresu":"umol/L","stnrlo":"44","stnrhi":"80","nrind":"NORMAL","fast":null,"dtc":"2024-06-19","dy":"107","visit":"FOLLOW-UP","visitnum":"7.0","epoch":"FOLLOW-UP","spec":null,"method":null},{"seq":"39","testcd":"GLUC","test":"Glucose","cat":"CHEMISTRY","orres":"4.59","orresu":"mmol/L","stresc":"4.59","stresn":"4.59","stresu":"mmol/L","stnrlo":"3.9","stnrhi":"5.6","nrind":"NORMAL","fast":null,"dtc":"2024-06-19","dy":"107","visit":"FOLLOW-UP","visitnum":"7.0","epoch":"FOLLOW-UP","spec":null,"method":null},{"seq":"40","testcd":"HGB","test":"Hemoglobin","cat":"HEMATOLOGY","orres":"119.04","orresu":"g/L","stresc":"119.04","stresn":"119.04","stresu":"g/L","stnrlo":"120","stnrhi":"155","nrind":"LOW","fast":null,"dtc":"2024-06-19","dy":"107","visit":"FOLLOW-UP","visitnum":"7.0","epoch":"FOLLOW-UP","spec":null,"method":null},{"seq":"41","testcd":"PLAT","test":"Platelets","cat":"HEMATOLOGY","orres":"211.64","orresu":"10^9/L","stresc":"211.64","stresn":"211.64","stresu":"10^9/L","stnrlo":"150","stnrhi":"400","nrind":"NORMAL","fast":null,"dtc":"2024-06-19","dy":"107","visit":"FOLLOW-UP","visitnum":"7.0","epoch":"FOLLOW-UP","spec":null,"method":null},{"seq":"42","testcd":"WBC","test":"Leukocytes","cat":"HEMATOLOGY","orres":"3.11","orresu":"10^9/L","stresc":"3.11","stresn":"3.11","stresu":"10^9/L","stnrlo":"4.0","stnrhi":"11.0","nrind":"LOW","fast":null,"dtc":"2024-06-19","dy":"107","visit":"FOLLOW-UP","visitnum":"7.0","epoch":"FOLLOW-UP","spec":null,"method":null}]},"section_9_vital_signs":{"summary":{"total_records":55},"trends":{"BMI":[{"visit":"SCREENING","visitnum":"1.0","dtc":"2024-02-17","value":"26.6","unit":"kg/m2"},{"visit":"BASELINE","visitnum":"2.0","dtc":"2024-03-05","value":"26.1","unit":"kg/m2"},{"visit":"WEEK 2","visitnum":"3.0","dtc":"2024-03-17","value":"25.4","unit":"kg/m2"},{"visit":"WEEK 8","visitnum":"5.0","dtc":"2024-04-28","value":"25.3","unit":"kg/m2"},{"visit":"WEEK 12","visitnum":"6.0","dtc":"2024-05-31","value":"25.6","unit":"kg/m2"},{"visit":"FOLLOW-UP","visitnum":"7.0","dtc":"2024-06-19","value":"25.2","unit":"kg/m2"}],"DIABP":[{"visit":"SCREENING","visitnum":"1.0","dtc":"2024-02-17","value":"76.7","unit":"mmHg"},{"visit":"BASELINE","visitnum":"2.0","dtc":"2024-03-05","value":"75.3","unit":"mmHg"},{"visit":"WEEK 2","visitnum":"3.0","dtc":"2024-03-17","value":"73.1","unit":"mmHg"},{"visit":"WEEK 4","visitnum":"4.0","dtc":"2024-03-30","value":"73.1","unit":"mmHg"},{"visit":"WEEK 8","visitnum":"5.0","dtc":"2024-04-28","value":"75.3","unit":"mmHg"},{"visit":"WEEK 12","visitnum":"6.0","dtc":"2024-05-31","value":"71.1","unit":"mmHg"},{"visit":"FOLLOW-UP","visitnum":"7.0","dtc":"2024-06-19","value":"71.6","unit":"mmHg"}],"HEIGHT":[{"visit":"SCREENING","visitnum":"1.0","dtc":"2024-02-17","value":"144.4","unit":"cm"},{"visit":"BASELINE","visitnum":"2.0","dtc":"2024-03-05","value":"144.5","unit":"cm"},{"visit":"WEEK 2","visitnum":"3.0","dtc":"2024-03-17","value":"144.3","unit":"cm"},{"visit":"WEEK 8","visitnum":"5.0","dtc":"2024-04-28","value":"144.4","unit":"cm"},{"visit":"WEEK 12","visitnum":"6.0","dtc":"2024-05-31","value":"145.1","unit":"cm"},{"visit":"FOLLOW-UP","visitnum":"7.0","dtc":"2024-06-19","value":"145.4","unit":"cm"}],"PULSE":[{"visit":"SCREENING","visitnum":"1.0","dtc":"2024-02-17","value":"77.6","unit":"beats/min"},{"visit":"BASELINE","visitnum":"2.0","dtc":"2024-03-05","value":"78.4","unit":"beats/min"},{"visit":"WEEK 2","visitnum":"3.0","dtc":"2024-03-17","value":"79.4","unit":"beats/min"},{"visit":"WEEK 4","visitnum":"4.0","dtc":"2024-03-30","value":"80.5","unit":"beats/min"},{"visit":"WEEK 8","visitnum":"5.0","dtc":"2024-04-28","value":"77.8","unit":"beats/min"},{"visit":"WEEK 12","visitnum":"6.0","dtc":"2024-05-31","value":"78.3","unit":"beats/min"},{"visit":"FOLLOW-UP","visitnum":"7.0","dtc":"2024-06-19","value":"76.9","unit":"beats/min"}],"RESP":[{"visit":"SCREENING","visitnum":"1.0","dtc":"2024-02-17","value":"25.7","unit":"breaths/min"},{"visit":"BASELINE","visitnum":"2.0","dtc":"2024-03-05","value":"25.9","unit":"breaths/min"},{"visit":"WEEK 2","visitnum":"3.0","dtc":"2024-03-17","value":"24.9","unit":"breaths/min"},{"visit":"WEEK 4","visitnum":"4.0","dtc":"2024-03-30","value":"23.7","unit":"breaths/min"},{"visit":"WEEK 8","visitnum":"5.0","dtc":"2024-04-28","value":"24.7","unit":"breaths/min"},{"visit":"WEEK 12","visitnum":"6.0","dtc":"2024-05-31","value":"25.1","unit":"breaths/min"},{"visit":"FOLLOW-UP","visitnum":"7.0","dtc":"2024-06-19","value":"25.0","unit":"breaths/min"}],"SYSBP":[{"visit":"SCREENING","visitnum":"1.0","dtc":"2024-02-17","value":"77.4","unit":"mmHg"},{"visit":"BASELINE","visitnum":"2.0","dtc":"2024-03-05","value":"75.5","unit":"mmHg"},{"visit":"WEEK 2","visitnum":"3.0","dtc":"2024-03-17","value":"75.9","unit":"mmHg"},{"visit":"WEEK 4","visitnum":"4.0","dtc":"2024-03-30","value":"75.2","unit":"mmHg"},{"visit":"WEEK 8","visitnum":"5.0","dtc":"2024-04-28","value":"76.6","unit":"mmHg"},{"visit":"WEEK 12","visitnum":"6.0","dtc":"2024-05-31","value":"73.2","unit":"mmHg"},{"visit":"FOLLOW-UP","visitnum":"7.0","dtc":"2024-06-19","value":"74.4","unit":"mmHg"}],"TEMP":[{"visit":"SCREENING","visitnum":"1.0","dtc":"2024-02-17","value":"36.7","unit":"C"},{"visit":"BASELINE","visitnum":"2.0","dtc":"2024-03-05","value":"36.9","unit":"C"},{"visit":"WEEK 2","visitnum":"3.0","dtc":"2024-03-17","value":"36.9","unit":"C"},{"visit":"WEEK 4","visitnum":"4.0","dtc":"2024-03-30","value":"36.7","unit":"C"},{"visit":"WEEK 8","visitnum":"5.0","dtc":"2024-04-28","value":"36.7","unit":"C"},{"visit":"WEEK 12","visitnum":"6.0","dtc":"2024-05-31","value":"36.9","unit":"C"},{"visit":"FOLLOW-UP","visitnum":"7.0","dtc":"2024-06-19","value":"36.8","unit":"C"}],"WEIGHT":[{"visit":"SCREENING","visitnum":"1.0","dtc":"2024-02-17","value":"55.4","unit":"kg"},{"visit":"BASELINE","visitnum":"2.0","dtc":"2024-03-05","value":"54.4","unit":"kg"},{"visit":"WEEK 2","visitnum":"3.0","dtc":"2024-03-17","value":"52.8","unit":"kg"},{"visit":"WEEK 4","visitnum":"4.0","dtc":"2024-03-30","value":"54.0","unit":"kg"},{"visit":"WEEK 8","visitnum":"5.0","dtc":"2024-04-28","value":"52.7","unit":"kg"},{"visit":"WEEK 12","visitnum":"6.0","dtc":"2024-05-31","value":"54.0","unit":"kg"},{"visit":"FOLLOW-UP","visitnum":"7.0","dtc":"2024-06-19","value":"53.2","unit":"kg"}]},"results":[{"seq":"1","testcd":"BMI","test":"BMI","cat":null,"orres":"26.6","orresu":"kg/m2","stresc":"26.6","stresn":"26.6","stresu":"kg/m2","stnrlo":null,"stnrhi":null,"nrind":null,"pos":null,"loc":null,"dtc":"2024-02-17","dy":"-17","visit":"SCREENING","visitnum":"1.0","epoch":"SCREENING"},{"seq":"2","testcd":"DIABP","test":"Diastolic Blood Pressure","cat":null,"orres":"76.7","orresu":"mmHg","stresc":"76.7","stresn":"76.7","stresu":"mmHg","stnrlo":null,"stnrhi":null,"nrind":null,"pos":null,"loc":null,"dtc":"2024-02-17","dy":"-17","visit":"SCREENING","visitnum":"1.0","epoch":"SCREENING"},{"seq":"3","testcd":"HEIGHT","test":"Height","cat":null,"orres":"144.4","orresu":"cm","stresc":"144.4","stresn":"144.4","stresu":"cm","stnrlo":null,"stnrhi":null,"nrind":null,"pos":null,"loc":null,"dtc":"2024-02-17","dy":"-17","visit":"SCREENING","visitnum":"1.0","epoch":"SCREENING"},{"seq":"4","testcd":"PULSE","test":"Pulse Rate","cat":null,"orres":"77.6","orresu":"beats/min","stresc":"77.6","stresn":"77.6","stresu":"beats/min","stnrlo":null,"stnrhi":null,"nrind":null,"pos":null,"loc":null,"dtc":"2024-02-17","dy":"-17","visit":"SCREENING","visitnum":"1.0","epoch":"SCREENING"},{"seq":"5","testcd":"RESP","test":"Respiratory Rate","cat":null,"orres":"25.7","orresu":"breaths/min","stresc":"25.7","stresn":"25.7","stresu":"breaths/min","stnrlo":null,"stnrhi":null,"nrind":null,"pos":null,"loc":null,"dtc":"2024-02-17","dy":"-17","visit":"SCREENING","visitnum":"1.0","epoch":"SCREENING"},{"seq":"6","testcd":"SYSBP","test":"Systolic Blood Pressure","cat":null,"orres":"77.4","orresu":"mmHg","stresc":"77.4","stresn":"77.4","stresu":"mmHg","stnrlo":null,"stnrhi":null,"nrind":null,"pos":null,"loc":null,"dtc":"2024-02-17","dy":"-17","visit":"SCREENING","visitnum":"1.0","epoch":"SCREENING"},{"seq":"7","testcd":"TEMP","test":"Temperature","cat":null,"orres":"36.7","orresu":"C","stresc":"36.7","stresn":"36.7","stresu":"C","stnrlo":null,"stnrhi":null,"nrind":null,"pos":null,"loc":null,"dtc":"2024-02-17","dy":"-17","visit":"SCREENING","visitnum":"1.0","epoch":"SCREENING"},{"seq":"8","testcd":"WEIGHT","test":"Weight","cat":null,"orres":"55.4","orresu":"kg","stresc":"55.4","stresn":"55.4","stresu":"kg","stnrlo":null,"stnrhi":null,"nrind":null,"pos":null,"loc":null,"dtc":"2024-02-17","dy":"-17","visit":"SCREENING","visitnum":"1.0","epoch":"SCREENING"},{"seq":"9","testcd":"BMI","test":"BMI","cat":null,"orres":"26.1","orresu":"kg/m2","stresc":"26.1","stresn":"26.1","stresu":"kg/m2","stnrlo":null,"stnrhi":null,"nrind":null,"pos":null,"loc":null,"dtc":"2024-03-05","dy":"1","visit":"BASELINE","visitnum":"2.0","epoch":"TREATMENT"},{"seq":"10","testcd":"DIABP","test":"Diastolic Blood Pressure","cat":null,"orres":"75.3","orresu":"mmHg","stresc":"75.3","stresn":"75.3","stresu":"mmHg","stnrlo":null,"stnrhi":null,"nrind":null,"pos":null,"loc":null,"dtc":"2024-03-05","dy":"1","visit":"BASELINE","visitnum":"2.0","epoch":"TREATMENT"},{"seq":"11","testcd":"HEIGHT","test":"Height","cat":null,"orres":"144.5","orresu":"cm","stresc":"144.5","stresn":"144.5","stresu":"cm","stnrlo":null,"stnrhi":null,"nrind":null,"pos":null,"loc":null,"dtc":"2024-03-05","dy":"1","visit":"BASELINE","visitnum":"2.0","epoch":"TREATMENT"},{"seq":"12","testcd":"PULSE","test":"Pulse Rate","cat":null,"orres":"78.4","orresu":"beats/min","stresc":"78.4","stresn":"78.4","stresu":"beats/min","stnrlo":null,"stnrhi":null,"nrind":null,"pos":null,"loc":null,"dtc":"2024-03-05","dy":"1","visit":"BASELINE","visitnum":"2.0","epoch":"TREATMENT"},{"seq":"13","testcd":"RESP","test":"Respiratory Rate","cat":null,"orres":"25.9","orresu":"breaths/min","stresc":"25.9","stresn":"25.9","stresu":"breaths/min","stnrlo":null,"stnrhi":null,"nrind":null,"pos":null,"loc":null,"dtc":"2024-03-05","dy":"1","visit":"BASELINE","visitnum":"2.0","epoch":"TREATMENT"},{"seq":"14","testcd":"SYSBP","test":"Systolic Blood Pressure","cat":null,"orres":"75.5","orresu":"mmHg","stresc":"75.5","stresn":"75.5","stresu":"mmHg","stnrlo":null,"stnrhi":null,"nrind":null,"pos":null,"loc":null,"dtc":"2024-03-05","dy":"1","visit":"BASELINE","visitnum":"2.0","epoch":"TREATMENT"},{"seq":"15","testcd":"TEMP","test":"Temperature","cat":null,"orres":"36.9","orresu":"C","stresc":"36.9","stresn":"36.9","stresu":"C","stnrlo":null,"stnrhi":null,"nrind":null,"pos":null,"loc":null,"dtc":"2024-03-05","dy":"1","visit":"BASELINE","visitnum":"2.0","epoch":"TREATMENT"},{"seq":"16","testcd":"WEIGHT","test":"Weight","cat":null,"orres":"54.4","orresu":"kg","stresc":"54.4","stresn":"54.4","stresu":"kg","stnrlo":null,"stnrhi":null,"nrind":null,"pos":null,"loc":null,"dtc":"2024-03-05","dy":"1","visit":"BASELINE","visitnum":"2.0","epoch":"TREATMENT"},{"seq":"17","testcd":"BMI","test":"BMI","cat":null,"orres":"25.4","orresu":"kg/m2","stresc":"25.4","stresn":"25.4","stresu":"kg/m2","stnrlo":null,"stnrhi":null,"nrind":null,"pos":null,"loc":null,"dtc":"2024-03-17","dy":"13","visit":"WEEK 2","visitnum":"3.0","epoch":"TREATMENT"},{"seq":"18","testcd":"DIABP","test":"Diastolic Blood Pressure","cat":null,"orres":"73.1","orresu":"mmHg","stresc":"73.1","stresn":"73.1","stresu":"mmHg","stnrlo":null,"stnrhi":null,"nrind":null,"pos":null,"loc":null,"dtc":"2024-03-17","dy":"13","visit":"WEEK 2","visitnum":"3.0","epoch":"TREATMENT"},{"seq":"19","testcd":"HEIGHT","test":"Height","cat":null,"orres":"144.3","orresu":"cm","stresc":"144.3","stresn":"144.3","stresu":"cm","stnrlo":null,"stnrhi":null,"nrind":null,"pos":null,"loc":null,"dtc":"2024-03-17","dy":"13","visit":"WEEK 2","visitnum":"3.0","epoch":"TREATMENT"},{"seq":"20","testcd":"PULSE","test":"Pulse Rate","cat":null,"orres":"79.4","orresu":"beats/min","stresc":"79.4","stresn":"79.4","stresu":"beats/min","stnrlo":null,"stnrhi":null,"nrind":null,"pos":null,"loc":null,"dtc":"2024-03-17","dy":"13","visit":"WEEK 2","visitnum":"3.0","epoch":"TREATMENT"},{"seq":"21","testcd":"RESP","test":"Respiratory Rate","cat":null,"orres":"24.9","orresu":"breaths/min","stresc":"24.9","stresn":"24.9","stresu":"breaths/min","stnrlo":null,"stnrhi":null,"nrind":null,"pos":null,"loc":null,"dtc":"2024-03-17","dy":"13","visit":"WEEK 2","visitnum":"3.0","epoch":"TREATMENT"},{"seq":"22","testcd":"SYSBP","test":"Systolic Blood Pressure","cat":null,"orres":"75.9","orresu":"mmHg","stresc":"75.9","stresn":"75.9","stresu":"mmHg","stnrlo":null,"stnrhi":null,"nrind":null,"pos":null,"loc":null,"dtc":"2024-03-17","dy":"13","visit":"WEEK 2","visitnum":"3.0","epoch":"TREATMENT"},{"seq":"23","testcd":"TEMP","test":"Temperature","cat":null,"orres":"36.9","orresu":"C","stresc":"36.9","stresn":"36.9","stresu":"C","stnrlo":null,"stnrhi":null,"nrind":null,"pos":null,"loc":null,"dtc":"2024-03-17","dy":"13","visit":"WEEK 2","visitnum":"3.0","epoch":"TREATMENT"},{"seq":"24","testcd":"WEIGHT","test":"Weight","cat":null,"orres":"52.8","orresu":"kg","stresc":"52.8","stresn":"52.8","stresu":"kg","stnrlo":null,"stnrhi":null,"nrind":null,"pos":null,"loc":null,"dtc":"2024-03-17","dy":"13","visit":"WEEK 2","visitnum":"3.0","epoch":"TREATMENT"},{"seq":"25","testcd":"DIABP","test":"Diastolic Blood Pressure","cat":null,"orres":"73.1","orresu":"mmHg","stresc":"73.1","stresn":"73.1","stresu":"mmHg","stnrlo":null,"stnrhi":null,"nrind":null,"pos":null,"loc":null,"dtc":"2024-03-30","dy":"26","visit":"WEEK 4","visitnum":"4.0","epoch":"TREATMENT"},{"seq":"26","testcd":"HEIGHT","test":"Height","cat":null,"orres":null,"orresu":null,"stresc":null,"stresn":null,"stresu":null,"stnrlo":null,"stnrhi":null,"nrind":null,"pos":null,"loc":null,"dtc":"2024-03-30","dy":"26","visit":"WEEK 4","visitnum":"4.0","epoch":"TREATMENT"},{"seq":"27","testcd":"PULSE","test":"Pulse Rate","cat":null,"orres":"80.5","orresu":"beats/min","stresc":"80.5","stresn":"80.5","stresu":"beats/min","stnrlo":null,"stnrhi":null,"nrind":null,"pos":null,"loc":null,"dtc":"2024-03-30","dy":"26","visit":"WEEK 4","visitnum":"4.0","epoch":"TREATMENT"},{"seq":"28","testcd":"RESP","test":"Respiratory Rate","cat":null,"orres":"23.7","orresu":"breaths/min","stresc":"23.7","stresn":"23.7","stresu":"breaths/min","stnrlo":null,"stnrhi":null,"nrind":null,"pos":null,"loc":null,"dtc":"2024-03-30","dy":"26","visit":"WEEK 4","visitnum":"4.0","epoch":"TREATMENT"},{"seq":"29","testcd":"SYSBP","test":"Systolic Blood Pressure","cat":null,"orres":"75.2","orresu":"mmHg","stresc":"75.2","stresn":"75.2","stresu":"mmHg","stnrlo":null,"stnrhi":null,"nrind":null,"pos":null,"loc":null,"dtc":"2024-03-30","dy":"26","visit":"WEEK 4","visitnum":"4.0","epoch":"TREATMENT"},{"seq":"30","testcd":"TEMP","test":"Temperature","cat":null,"orres":"36.7","orresu":"C","stresc":"36.7","stresn":"36.7","stresu":"C","stnrlo":null,"stnrhi":null,"nrind":null,"pos":null,"loc":null,"dtc":"2024-03-30","dy":"26","visit":"WEEK 4","visitnum":"4.0","epoch":"TREATMENT"},{"seq":"31","testcd":"WEIGHT","test":"Weight","cat":null,"orres":"54.0","orresu":"kg","stresc":"54.0","stresn":"54.0","stresu":"kg","stnrlo":null,"stnrhi":null,"nrind":null,"pos":null,"loc":null,"dtc":"2024-03-30","dy":"26","visit":"WEEK 4","visitnum":"4.0","epoch":"TREATMENT"},{"seq":"32","testcd":"BMI","test":"BMI","cat":null,"orres":"25.3","orresu":"kg/m2","stresc":"25.3","stresn":"25.3","stresu":"kg/m2","stnrlo":null,"stnrhi":null,"nrind":null,"pos":null,"loc":null,"dtc":"2024-04-28","dy":"55","visit":"WEEK 8","visitnum":"5.0","epoch":"TREATMENT"},{"seq":"33","testcd":"DIABP","test":"Diastolic Blood Pressure","cat":null,"orres":"75.3","orresu":"mmHg","stresc":"75.3","stresn":"75.3","stresu":"mmHg","stnrlo":null,"stnrhi":null,"nrind":null,"pos":null,"loc":null,"dtc":"2024-04-28","dy":"55","visit":"WEEK 8","visitnum":"5.0","epoch":"TREATMENT"},{"seq":"34","testcd":"HEIGHT","test":"Height","cat":null,"orres":"144.4","orresu":"cm","stresc":"144.4","stresn":"144.4","stresu":"cm","stnrlo":null,"stnrhi":null,"nrind":null,"pos":null,"loc":null,"dtc":"2024-04-28","dy":"55","visit":"WEEK 8","visitnum":"5.0","epoch":"TREATMENT"},{"seq":"35","testcd":"PULSE","test":"Pulse Rate","cat":null,"orres":"77.8","orresu":"beats/min","stresc":"77.8","stresn":"77.8","stresu":"beats/min","stnrlo":null,"stnrhi":null,"nrind":null,"pos":null,"loc":null,"dtc":"2024-04-28","dy":"55","visit":"WEEK 8","visitnum":"5.0","epoch":"TREATMENT"},{"seq":"36","testcd":"RESP","test":"Respiratory Rate","cat":null,"orres":"24.7","orresu":"breaths/min","stresc":"24.7","stresn":"24.7","stresu":"breaths/min","stnrlo":null,"stnrhi":null,"nrind":null,"pos":null,"loc":null,"dtc":"2024-04-28","dy":"55","visit":"WEEK 8","visitnum":"5.0","epoch":"TREATMENT"},{"seq":"37","testcd":"SYSBP","test":"Systolic Blood Pressure","cat":null,"orres":"76.6","orresu":"mmHg","stresc":"76.6","stresn":"76.6","stresu":"mmHg","stnrlo":null,"stnrhi":null,"nrind":null,"pos":null,"loc":null,"dtc":"2024-04-28","dy":"55","visit":"WEEK 8","visitnum":"5.0","epoch":"TREATMENT"},{"seq":"38","testcd":"TEMP","test":"Temperature","cat":null,"orres":"36.7","orresu":"C","stresc":"36.7","stresn":"36.7","stresu":"C","stnrlo":null,"stnrhi":null,"nrind":null,"pos":null,"loc":null,"dtc":"2024-04-28","dy":"55","visit":"WEEK 8","visitnum":"5.0","epoch":"TREATMENT"},{"seq":"39","testcd":"WEIGHT","test":"Weight","cat":null,"orres":"52.7","orresu":"kg","stresc":"52.7","stresn":"52.7","stresu":"kg","stnrlo":null,"stnrhi":null,"nrind":null,"pos":null,"loc":null,"dtc":"2024-04-28","dy":"55","visit":"WEEK 8","visitnum":"5.0","epoch":"TREATMENT"},{"seq":"40","testcd":"BMI","test":"BMI","cat":null,"orres":"25.6","orresu":"kg/m2","stresc":"25.6","stresn":"25.6","stresu":"kg/m2","stnrlo":null,"stnrhi":null,"nrind":null,"pos":null,"loc":null,"dtc":"2024-05-31","dy":"88","visit":"WEEK 12","visitnum":"6.0","epoch":"TREATMENT"},{"seq":"41","testcd":"DIABP","test":"Diastolic Blood Pressure","cat":null,"orres":"71.1","orresu":"mmHg","stresc":"71.1","stresn":"71.1","stresu":"mmHg","stnrlo":null,"stnrhi":null,"nrind":null,"pos":null,"loc":null,"dtc":"2024-05-31","dy":"88","visit":"WEEK 12","visitnum":"6.0","epoch":"TREATMENT"},{"seq":"42","testcd":"HEIGHT","test":"Height","cat":null,"orres":"145.1","orresu":"cm","stresc":"145.1","stresn":"145.1","stresu":"cm","stnrlo":null,"stnrhi":null,"nrind":null,"pos":null,"loc":null,"dtc":"2024-05-31","dy":"88","visit":"WEEK 12","visitnum":"6.0","epoch":"TREATMENT"},{"seq":"43","testcd":"PULSE","test":"Pulse Rate","cat":null,"orres":"78.3","orresu":"beats/min","stresc":"78.3","stresn":"78.3","stresu":"beats/min","stnrlo":null,"stnrhi":null,"nrind":null,"pos":null,"loc":null,"dtc":"2024-05-31","dy":"88","visit":"WEEK 12","visitnum":"6.0","epoch":"TREATMENT"},{"seq":"44","testcd":"RESP","test":"Respiratory Rate","cat":null,"orres":"25.1","orresu":"breaths/min","stresc":"25.1","stresn":"25.1","stresu":"breaths/min","stnrlo":null,"stnrhi":null,"nrind":null,"pos":null,"loc":null,"dtc":"2024-05-31","dy":"88","visit":"WEEK 12","visitnum":"6.0","epoch":"TREATMENT"},{"seq":"45","testcd":"SYSBP","test":"Systolic Blood Pressure","cat":null,"orres":"73.2","orresu":"mmHg","stresc":"73.2","stresn":"73.2","stresu":"mmHg","stnrlo":null,"stnrhi":null,"nrind":null,"pos":null,"loc":null,"dtc":"2024-05-31","dy":"88","visit":"WEEK 12","visitnum":"6.0","epoch":"TREATMENT"},{"seq":"46","testcd":"TEMP","test":"Temperature","cat":null,"orres":"36.9","orresu":"C","stresc":"36.9","stresn":"36.9","stresu":"C","stnrlo":null,"stnrhi":null,"nrind":null,"pos":null,"loc":null,"dtc":"2024-05-31","dy":"88","visit":"WEEK 12","visitnum":"6.0","epoch":"TREATMENT"},{"seq":"47","testcd":"WEIGHT","test":"Weight","cat":null,"orres":"54.0","orresu":"kg","stresc":"54.0","stresn":"54.0","stresu":"kg","stnrlo":null,"stnrhi":null,"nrind":null,"pos":null,"loc":null,"dtc":"2024-05-31","dy":"88","visit":"WEEK 12","visitnum":"6.0","epoch":"TREATMENT"},{"seq":"48","testcd":"BMI","test":"BMI","cat":null,"orres":"25.2","orresu":"kg/m2","stresc":"25.2","stresn":"25.2","stresu":"kg/m2","stnrlo":null,"stnrhi":null,"nrind":null,"pos":null,"loc":null,"dtc":"2024-06-19","dy":"107","visit":"FOLLOW-UP","visitnum":"7.0","epoch":"FOLLOW-UP"},{"seq":"49","testcd":"DIABP","test":"Diastolic Blood Pressure","cat":null,"orres":"71.6","orresu":"mmHg","stresc":"71.6","stresn":"71.6","stresu":"mmHg","stnrlo":null,"stnrhi":null,"nrind":null,"pos":null,"loc":null,"dtc":"2024-06-19","dy":"107","visit":"FOLLOW-UP","visitnum":"7.0","epoch":"FOLLOW-UP"},{"seq":"50","testcd":"HEIGHT","test":"Height","cat":null,"orres":"145.4","orresu":"cm","stresc":"145.4","stresn":"145.4","stresu":"cm","stnrlo":null,"stnrhi":null,"nrind":null,"pos":null,"loc":null,"dtc":"2024-06-19","dy":"107","visit":"FOLLOW-UP","visitnum":"7.0","epoch":"FOLLOW-UP"},{"seq":"51","testcd":"PULSE","test":"Pulse Rate","cat":null,"orres":"76.9","orresu":"beats/min","stresc":"76.9","stresn":"76.9","stresu":"beats/min","stnrlo":null,"stnrhi":null,"nrind":null,"pos":null,"loc":null,"dtc":"2024-06-19","dy":"107","visit":"FOLLOW-UP","visitnum":"7.0","epoch":"FOLLOW-UP"},{"seq":"52","testcd":"RESP","test":"Respiratory Rate","cat":null,"orres":"25.0","orresu":"breaths/min","stresc":"25.0","stresn":"25.0","stresu":"breaths/min","stnrlo":null,"stnrhi":null,"nrind":null,"pos":null,"loc":null,"dtc":"2024-06-19","dy":"107","visit":"FOLLOW-UP","visitnum":"7.0","epoch":"FOLLOW-UP"},{"seq":"53","testcd":"SYSBP","test":"Systolic Blood Pressure","cat":null,"orres":"74.4","orresu":"mmHg","stresc":"74.4","stresn":"74.4","stresu":"mmHg","stnrlo":null,"stnrhi":null,"nrind":null,"pos":null,"loc":null,"dtc":"2024-06-19","dy":"107","visit":"FOLLOW-UP","visitnum":"7.0","epoch":"FOLLOW-UP"},{"seq":"54","testcd":"TEMP","test":"Temperature","cat":null,"orres":"36.8","orresu":"C","stresc":"36.8","stresn":"36.8","stresu":"C","stnrlo":null,"stnrhi":null,"nrind":null,"pos":null,"loc":null,"dtc":"2024-06-19","dy":"107","visit":"FOLLOW-UP","visitnum":"7.0","epoch":"FOLLOW-UP"},{"seq":"55","testcd":"WEIGHT","test":"Weight","cat":null,"orres":"53.2","orresu":"kg","stresc":"53.2","stresn":"53.2","stresu":"kg","stnrlo":null,"stnrhi":null,"nrind":null,"pos":null,"loc":null,"dtc":"2024-06-19","dy":"107","visit":"FOLLOW-UP","visitnum":"7.0","epoch":"FOLLOW-UP"}]},"section_10_questionnaires_and_scores":{"questionnaires":[],"findings_about":[]},"section_11_protocol_deviations":{"deviations":[{"seq":"1","term":"Missed PLACEBO dose on 2024-03-18","decod":"MISSED DOSE","cat":"MINOR","scat":"DOSING","start_dtc":"2024-03-18","end_dtc":null,"visit":null},{"seq":"2","term":"Missed PLACEBO dose on 2024-03-26","decod":"MISSED DOSE","cat":"MINOR","scat":"DOSING","start_dtc":"2024-03-26","end_dtc":null,"visit":null},{"seq":"3","term":"Missed PLACEBO dose on 2024-03-28","decod":"MISSED DOSE","cat":"MINOR","scat":"DOSING","start_dtc":"2024-03-28","end_dtc":null,"visit":null},{"seq":"4","term":"Vital signs assessment not performed at WEEK 4","decod":"MISSED ASSESSMENT","cat":"MINOR","scat":"ASSESSMENT","start_dtc":"2024-03-30","end_dtc":null,"visit":null},{"seq":"5","term":"Missed PLACEBO dose on 2024-04-01","decod":"MISSED DOSE","cat":"MINOR","scat":"DOSING","start_dtc":"2024-04-01","end_dtc":null,"visit":null},{"seq":"6","term":"Missed PLACEBO dose on 2024-04-02","decod":"MISSED DOSE","cat":"MINOR","scat":"DOSING","start_dtc":"2024-04-02","end_dtc":null,"visit":null},{"seq":"7","term":"Missed PLACEBO dose on 2024-04-11","decod":"MISSED DOSE","cat":"MINOR","scat":"DOSING","start_dtc":"2024-04-11","end_dtc":null,"visit":null},{"seq":"8","term":"Missed PLACEBO dose on 2024-04-15","decod":"MISSED DOSE","cat":"MINOR","scat":"DOSING","start_dtc":"2024-04-15","end_dtc":null,"visit":null},{"seq":"9","term":"Missed PLACEBO dose on 2024-04-16","decod":"MISSED DOSE","cat":"MINOR","scat":"DOSING","start_dtc":"2024-04-16","end_dtc":null,"visit":null},{"seq":"10","term":"Visit FOLLOW-UP occurred 6 days early (Day 107 vs planned Day 113)","decod":"VISIT OCCURRED OUTSIDE VISIT WINDOW","cat":"MINOR","scat":"VISIT WINDOW","start_dtc":"2024-06-19","end_dtc":null,"visit":null}],"total":10},"section_12_disposition":{"completion_status":"COMPLETED","disposition_records":[{"seq":"1","term":"INFORMED CONSENT OBTAINED","decod":"INFORMED CONSENT OBTAINED","cat":"PROTOCOL MILESTONE","scat":null,"dtc":"2024-02-11","dy":null,"visit":null,"epoch":"SCREENING"},{"seq":"2","term":"RANDOMIZED","decod":"RANDOMIZED","cat":"PROTOCOL MILESTONE","scat":null,"dtc":"2024-03-05","dy":null,"visit":null,"epoch":"TREATMENT"},{"seq":"3","term":"COMPLETED","decod":"COMPLETED","cat":"DISPOSITION EVENT","scat":null,"dtc":"2024-07-22","dy":null,"visit":null,"epoch":"FOLLOW-UP"}],"death":null},"section_13_hospitalizations":{"items":[],"total":0},"section_14_substance_use":{"items":[{"seq":"1","substance":"ALCOHOL","decod":"ALCOHOL","cat":"ALCOHOL","scat":null,"usage":"Y","dose":"2.0","dosu":"DRINKS/WEEK","freq":"QW","start_dtc":"2020-02-12","end_dtc":null},{"seq":"2","substance":"COFFEE","decod":"COFFEE","cat":"CAFFEINE","scat":null,"usage":"Y","dose":"4.0","dosu":"CUPS/DAY","freq":"QD","start_dtc":"2015-02-13","end_dtc":null},{"seq":"3","substance":"CIGARETTES","decod":"CIGARETTES","cat":"TOBACCO","scat":"CIGARETTES","usage":"N","dose":null,"dosu":null,"freq":null,"start_dtc":null,"end_dtc":null}],"total":3},"section_15_subject_status":{"items":[{"seq":"1","testcd":"SURVSTAT","test":"Survival Status","orres":"ALIVE","stresc":"ALIVE","dtc":"2024-07-22","visit":"END OF STUDY","epoch":"FOLLOW-UP"}],"total":1}}