{"subject_id":"GB001-ASTHMA-201-SITE001-0373","study_id":"GB001-ASTHMA-201","generated_at":"2026-06-16T07:22:27.054514+00:00","sdtmig_version":"3.4","flags":{"has_serious_ae":false,"has_fatal_ae":false,"has_protocol_deviation":true,"n_protocol_deviations":4,"n_adverse_events":2,"n_concomitant_meds":4,"max_ae_severity":"MODERATE","screen_failure":false,"discontinued_early":false,"discontinuation_reason":null,"death":false,"exposure_days":78},"timeline":[{"dtc":"2016-02-25","dy":"-2946","event":"CM START: OMEPRAZOLE","domain":"CM","category":"concomitant_med"},{"dtc":"2020-02-24","dy":"-1486","event":"CM START: SERTRALINE","domain":"CM","category":"concomitant_med"},{"dtc":"2024-02-11","dy":"-38","event":"VISIT: SCREENING","domain":"SV","category":"visit"},{"dtc":"2024-02-23","dy":"-26","event":"INFORMED CONSENT OBTAINED","domain":"DS","category":"milestone"},{"dtc":"2024-03-20","dy":"1","event":"RANDOMIZED","domain":"DS","category":"milestone"},{"dtc":"2024-03-20","dy":"1","event":"FIRST DOSE: PLACEBO","domain":"EX","category":"exposure"},{"dtc":"2024-03-20","dy":"1","event":"VISIT: BASELINE","domain":"SV","category":"visit"},{"dtc":"2024-03-22","dy":"3","event":"AE: Asthma (MILD)","domain":"AE","category":"adverse_event"},{"dtc":"2024-03-22","dy":"3","event":"CM START: PARACETAMOL","domain":"CM","category":"concomitant_med"},{"dtc":"2024-04-05","dy":"17","event":"VISIT: WEEK 2","domain":"SV","category":"visit"},{"dtc":"2024-04-12","dy":"24","event":"DEVIATION: MISSED DOSE","domain":"DV","category":"deviation"},{"dtc":"2024-04-18","dy":"30","event":"DEVIATION: VISIT OCCURRED OUTSIDE VISIT WINDOW","domain":"DV","category":"deviation"},{"dtc":"2024-04-18","dy":"30","event":"VISIT: WEEK 4","domain":"SV","category":"visit"},{"dtc":"2024-05-10","dy":"52","event":"CM START: IBUPROFEN","domain":"CM","category":"concomitant_med"},{"dtc":"2024-05-13","dy":"55","event":"VISIT: WEEK 8","domain":"SV","category":"visit"},{"dtc":"2024-05-15","dy":"57","event":"DEVIATION: MISSED DOSE","domain":"DV","category":"deviation"},{"dtc":"2024-05-22","dy":"64","event":"AE: Headache (MODERATE)","domain":"AE","category":"adverse_event"},{"dtc":"2024-06-02","dy":"75","event":"DEVIATION: MISSED DOSE","domain":"DV","category":"deviation"},{"dtc":"2024-06-14","dy":"87","event":"VISIT: WEEK 12","domain":"SV","category":"visit"},{"dtc":"2024-07-14","dy":"117","event":"VISIT: FOLLOW-UP","domain":"SV","category":"visit"},{"dtc":"2024-08-06","dy":"140","event":"COMPLETED","domain":"DS","category":"milestone"}],"section_1_demographics":{"usubjid":"GB001-ASTHMA-201-SITE001-0373","subjid":"0373","siteid":"SITE001","age":"42","ageu":"YEARS","sex":"M","race":"WHITE","ethnicity":"NOT HISPANIC OR LATINO","country":"USA","arm":"Placebo","armcd":"PBO","actarm":"Placebo","actarmcd":"PBO","randomization_date":null,"informed_consent_date":"2024-02-23","reference_start_date":"2024-03-20","reference_end_date":"2024-08-06","screen_failure":false,"death_flag":null,"death_date":null,"subject_characteristics":[{"testcd":"ALCUSE","test":"Alcohol Use","orres":"CURRENT DRINKER","stresc":"CURRENT DRINKER","visit":null,"dtc":"2024-02-23"},{"testcd":"BMI","test":"Body Mass Index","orres":"26.1","stresc":"26.1","visit":null,"dtc":"2024-02-23"},{"testcd":"DURDIS","test":"Duration of Disease","orres":"121 months","stresc":"121","visit":null,"dtc":"2024-02-23"},{"testcd":"TOBUSE","test":"Tobacco Use","orres":"NEVER SMOKED","stresc":"NEVER SMOKED","visit":null,"dtc":"2024-02-23"}]},"section_2_medical_history":{"items":[{"seq":"1","term":"ASTHMA","decod":"ASTHMA","cat":"RESPIRATORY","scat":null,"presp":null,"occur":null,"status":null,"onset_dtc":"2014-02","end_dtc":"2018-05-20","visit":null},{"seq":"2","term":"DEPRESSION","decod":"DEPRESSION","cat":"PSYCHIATRIC","scat":null,"presp":null,"occur":null,"status":null,"onset_dtc":"2020-02-24","end_dtc":null,"visit":null},{"seq":"3","term":"GASTROESOPHAGEAL REFLUX DISEASE","decod":"GASTROESOPHAGEAL REFLUX DISEASE","cat":"GASTROINTESTINAL","scat":null,"presp":null,"occur":null,"status":null,"onset_dtc":"2016-02-25","end_dtc":null,"visit":null},{"seq":"4","term":"HYPERLIPIDEMIA","decod":"HYPERLIPIDEMIA","cat":"METABOLIC","scat":null,"presp":null,"occur":null,"status":null,"onset_dtc":"2015-02-25","end_dtc":"2023-09-26","visit":null},{"seq":"5","term":"HYPERTENSION","decod":"HYPERTENSION","cat":"CARDIOVASCULAR","scat":null,"presp":null,"occur":null,"status":null,"onset_dtc":"2021-02-23","end_dtc":"2021-03-29","visit":null}]},"section_3_inclusion_exclusion":{"criteria":[]},"section_4_trial_participation":{"visits":[{"visitnum":"1.0","visit":"SCREENING","start_dtc":"2024-02-11","end_dtc":"2024-02-11","updes":null},{"visitnum":"2.0","visit":"BASELINE","start_dtc":"2024-03-20","end_dtc":"2024-03-20","updes":null},{"visitnum":"3.0","visit":"WEEK 2","start_dtc":"2024-04-05","end_dtc":"2024-04-05","updes":null},{"visitnum":"4.0","visit":"WEEK 4","start_dtc":"2024-04-18","end_dtc":"2024-04-18","updes":null},{"visitnum":"5.0","visit":"WEEK 8","start_dtc":"2024-05-13","end_dtc":"2024-05-13","updes":null},{"visitnum":"6.0","visit":"WEEK 12","start_dtc":"2024-06-14","end_dtc":"2024-06-14","updes":null},{"visitnum":"7.0","visit":"FOLLOW-UP","start_dtc":"2024-07-14","end_dtc":"2024-07-14","updes":null}],"epochs":[{"seq":"1","etcd":"SCRN","element":"Screening","start_dtc":"2024-02-21","end_dtc":"2024-03-20","updes":null},{"seq":"2","etcd":"TRT","element":"Treatment","start_dtc":"2024-03-20","end_dtc":"2024-06-12","updes":null},{"seq":"3","etcd":"FU","element":"Follow-up","start_dtc":"2024-06-12","end_dtc":"2024-07-09","updes":null}],"visit_count":7},"section_5_concomitant_medications":{"medications":[{"seq":"1","trt":"OMEPRAZOLE","decod":"OMEPRAZOLE","cat":"PRIOR","dose":"20","doseu":null,"dosef":"QD","route":"ORAL","indication":"GASTROESOPHAGEAL REFLUX DISEASE","start_dtc":"2016-02-25","end_dtc":"2024-08-06","ongoing":null,"visit":null},{"seq":"2","trt":"SERTRALINE","decod":"SERTRALINE","cat":"PRIOR","dose":"50","doseu":null,"dosef":"QD","route":"ORAL","indication":"DEPRESSION","start_dtc":"2020-02-24","end_dtc":"2024-08-06","ongoing":null,"visit":null},{"seq":"3","trt":"PARACETAMOL","decod":"PARACETAMOL","cat":"CONCOMITANT","dose":"500","doseu":null,"dosef":"PRN","route":"ORAL","indication":"ASTHMA","start_dtc":"2024-03-22","end_dtc":"2024-04-16","ongoing":null,"visit":null},{"seq":"4","trt":"IBUPROFEN","decod":"IBUPROFEN","cat":"CONCOMITANT","dose":null,"doseu":null,"dosef":"PRN","route":"ORAL","indication":null,"start_dtc":"2024-05-10","end_dtc":"2024-05-31","ongoing":null,"visit":null}]},"section_6_exposure":{"exposure_as_administered":[{"seq":"1","trt":"PLACEBO","dose":"0.0","doseu":null,"dosef":"QD","route":"ORAL","lot":null,"start_dtc":"2024-03-20","end_dtc":"2024-06-06","start_dy":"1","end_dy":"79","epoch":"TREATMENT","visit":null}],"exposure_as_collected":[{"seq":"1","trt":"PLACEBO","dose":null,"doseu":null,"dosef":"QD","route":"ORAL","start_dtc":"2024-03-20","end_dtc":"2024-03-20","visit":"BASELINE"},{"seq":"2","trt":"PLACEBO","dose":null,"doseu":null,"dosef":"QD","route":"ORAL","start_dtc":"2024-03-21","end_dtc":"2024-03-21","visit":"BASELINE"},{"seq":"3","trt":"PLACEBO","dose":null,"doseu":null,"dosef":"QD","route":"ORAL","start_dtc":"2024-03-22","end_dtc":"2024-03-22","visit":"BASELINE"},{"seq":"4","trt":"PLACEBO","dose":null,"doseu":null,"dosef":"QD","route":"ORAL","start_dtc":"2024-03-23","end_dtc":"2024-03-23","visit":"BASELINE"},{"seq":"5","trt":"PLACEBO","dose":null,"doseu":null,"dosef":"QD","route":"ORAL","start_dtc":"2024-03-24","end_dtc":"2024-03-24","visit":null},{"seq":"6","trt":"PLACEBO","dose":null,"doseu":null,"dosef":"QD","route":"ORAL","start_dtc":"2024-03-25","end_dtc":"2024-03-25","visit":null},{"seq":"7","trt":"PLACEBO","dose":null,"doseu":null,"dosef":"QD","route":"ORAL","start_dtc":"2024-03-26","end_dtc":"2024-03-26","visit":null},{"seq":"8","trt":"PLACEBO","dose":null,"doseu":null,"dosef":"QD","route":"ORAL","start_dtc":"2024-03-27","end_dtc":"2024-03-27","visit":null},{"seq":"9","trt":"PLACEBO","dose":null,"doseu":null,"dosef":"QD","route":"ORAL","start_dtc":"2024-03-28","end_dtc":"2024-03-28","visit":null},{"seq":"10","trt":"PLACEBO","dose":null,"doseu":null,"dosef":"QD","route":"ORAL","start_dtc":"2024-03-29","end_dtc":"2024-03-29","visit":null},{"seq":"11","trt":"PLACEBO","dose":null,"doseu":null,"dosef":"QD","route":"ORAL","start_dtc":"2024-03-30","end_dtc":"2024-03-30","visit":null},{"seq":"12","trt":"PLACEBO","dose":null,"doseu":null,"dosef":"QD","route":"ORAL","start_dtc":"2024-03-31","end_dtc":"2024-03-31","visit":"WEEK 2"},{"seq":"13","trt":"PLACEBO","dose":null,"doseu":null,"dosef":"QD","route":"ORAL","start_dtc":"2024-04-01","end_dtc":"2024-04-01","visit":"WEEK 2"},{"seq":"14","trt":"PLACEBO","dose":null,"doseu":null,"dosef":"QD","route":"ORAL","start_dtc":"2024-04-02","end_dtc":"2024-04-02","visit":"WEEK 2"},{"seq":"15","trt":"PLACEBO","dose":null,"doseu":null,"dosef":"QD","route":"ORAL","start_dtc":"2024-04-03","end_dtc":"2024-04-03","visit":"WEEK 2"},{"seq":"16","trt":"PLACEBO","dose":null,"doseu":null,"dosef":"QD","route":"ORAL","start_dtc":"2024-04-04","end_dtc":"2024-04-04","visit":"WEEK 2"},{"seq":"17","trt":"PLACEBO","dose":null,"doseu":null,"dosef":"QD","route":"ORAL","start_dtc":"2024-04-05","end_dtc":"2024-04-05","visit":"WEEK 2"},{"seq":"18","trt":"PLACEBO","dose":null,"doseu":null,"dosef":"QD","route":"ORAL","start_dtc":"2024-04-06","end_dtc":"2024-04-06","visit":"WEEK 2"},{"seq":"19","trt":"PLACEBO","dose":null,"doseu":null,"dosef":"QD","route":"ORAL","start_dtc":"2024-04-07","end_dtc":"2024-04-07","visit":null},{"seq":"20","trt":"PLACEBO","dose":null,"doseu":null,"dosef":"QD","route":"ORAL","start_dtc":"2024-04-08","end_dtc":"2024-04-08","visit":null},{"seq":"21","trt":"PLACEBO","dose":null,"doseu":null,"dosef":"QD","route":"ORAL","start_dtc":"2024-04-09","end_dtc":"2024-04-09","visit":null},{"seq":"22","trt":"PLACEBO","dose":null,"doseu":null,"dosef":"QD","route":"ORAL","start_dtc":"2024-04-10","end_dtc":"2024-04-10","visit":null},{"seq":"23","trt":"PLACEBO","dose":null,"doseu":null,"dosef":"QD","route":"ORAL","start_dtc":"2024-04-11","end_dtc":"2024-04-11","visit":null},{"seq":"24","trt":"PLACEBO","dose":null,"doseu":null,"dosef":"QD","route":"ORAL","start_dtc":"2024-04-12","end_dtc":"2024-04-12","visit":null},{"seq":"25","trt":"PLACEBO","dose":null,"doseu":null,"dosef":"QD","route":"ORAL","start_dtc":"2024-04-13","end_dtc":"2024-04-13","visit":null},{"seq":"26","trt":"PLACEBO","dose":null,"doseu":null,"dosef":"QD","route":"ORAL","start_dtc":"2024-04-14","end_dtc":"2024-04-14","visit":"WEEK 4"},{"seq":"27","trt":"PLACEBO","dose":null,"doseu":null,"dosef":"QD","route":"ORAL","start_dtc":"2024-04-15","end_dtc":"2024-04-15","visit":"WEEK 4"},{"seq":"28","trt":"PLACEBO","dose":null,"doseu":null,"dosef":"QD","route":"ORAL","start_dtc":"2024-04-16","end_dtc":"2024-04-16","visit":"WEEK 4"},{"seq":"29","trt":"PLACEBO","dose":null,"doseu":null,"dosef":"QD","route":"ORAL","start_dtc":"2024-04-17","end_dtc":"2024-04-17","visit":"WEEK 4"},{"seq":"30","trt":"PLACEBO","dose":null,"doseu":null,"dosef":"QD","route":"ORAL","start_dtc":"2024-04-18","end_dtc":"2024-04-18","visit":"WEEK 4"},{"seq":"31","trt":"PLACEBO","dose":null,"doseu":null,"dosef":"QD","route":"ORAL","start_dtc":"2024-04-19","end_dtc":"2024-04-19","visit":"WEEK 4"},{"seq":"32","trt":"PLACEBO","dose":null,"doseu":null,"dosef":"QD","route":"ORAL","start_dtc":"2024-04-20","end_dtc":"2024-04-20","visit":"WEEK 4"},{"seq":"33","trt":"PLACEBO","dose":null,"doseu":null,"dosef":"QD","route":"ORAL","start_dtc":"2024-04-21","end_dtc":"2024-04-21","visit":null},{"seq":"34","trt":"PLACEBO","dose":null,"doseu":null,"dosef":"QD","route":"ORAL","start_dtc":"2024-04-22","end_dtc":"2024-04-22","visit":null},{"seq":"35","trt":"PLACEBO","dose":null,"doseu":null,"dosef":"QD","route":"ORAL","start_dtc":"2024-04-23","end_dtc":"2024-04-23","visit":null},{"seq":"36","trt":"PLACEBO","dose":null,"doseu":null,"dosef":"QD","route":"ORAL","start_dtc":"2024-04-24","end_dtc":"2024-04-24","visit":null},{"seq":"37","trt":"PLACEBO","dose":null,"doseu":null,"dosef":"QD","route":"ORAL","start_dtc":"2024-04-25","end_dtc":"2024-04-25","visit":null},{"seq":"38","trt":"PLACEBO","dose":null,"doseu":null,"dosef":"QD","route":"ORAL","start_dtc":"2024-04-26","end_dtc":"2024-04-26","visit":null},{"seq":"39","trt":"PLACEBO","dose":null,"doseu":null,"dosef":"QD","route":"ORAL","start_dtc":"2024-04-27","end_dtc":"2024-04-27","visit":null},{"seq":"40","trt":"PLACEBO","dose":null,"doseu":null,"dosef":"QD","route":"ORAL","start_dtc":"2024-04-28","end_dtc":"2024-04-28","visit":null},{"seq":"41","trt":"PLACEBO","dose":null,"doseu":null,"dosef":"QD","route":"ORAL","start_dtc":"2024-04-29","end_dtc":"2024-04-29","visit":null},{"seq":"42","trt":"PLACEBO","dose":null,"doseu":null,"dosef":"QD","route":"ORAL","start_dtc":"2024-04-30","end_dtc":"2024-04-30","visit":null},{"seq":"43","trt":"PLACEBO","dose":null,"doseu":null,"dosef":"QD","route":"ORAL","start_dtc":"2024-05-01","end_dtc":"2024-05-01","visit":null},{"seq":"44","trt":"PLACEBO","dose":null,"doseu":null,"dosef":"QD","route":"ORAL","start_dtc":"2024-05-02","end_dtc":"2024-05-02","visit":null},{"seq":"45","trt":"PLACEBO","dose":null,"doseu":null,"dosef":"QD","route":"ORAL","start_dtc":"2024-05-03","end_dtc":"2024-05-03","visit":null},{"seq":"46","trt":"PLACEBO","dose":null,"doseu":null,"dosef":"QD","route":"ORAL","start_dtc":"2024-05-04","end_dtc":"2024-05-04","visit":null},{"seq":"47","trt":"PLACEBO","dose":null,"doseu":null,"dosef":"QD","route":"ORAL","start_dtc":"2024-05-05","end_dtc":"2024-05-05","visit":null},{"seq":"48","trt":"PLACEBO","dose":null,"doseu":null,"dosef":"QD","route":"ORAL","start_dtc":"2024-05-06","end_dtc":"2024-05-06","visit":null},{"seq":"49","trt":"PLACEBO","dose":null,"doseu":null,"dosef":"QD","route":"ORAL","start_dtc":"2024-05-07","end_dtc":"2024-05-07","visit":null},{"seq":"50","trt":"PLACEBO","dose":null,"doseu":null,"dosef":"QD","route":"ORAL","start_dtc":"2024-05-08","end_dtc":"2024-05-08","visit":null},{"seq":"51","trt":"PLACEBO","dose":null,"doseu":null,"dosef":"QD","route":"ORAL","start_dtc":"2024-05-09","end_dtc":"2024-05-09","visit":null},{"seq":"52","trt":"PLACEBO","dose":null,"doseu":null,"dosef":"QD","route":"ORAL","start_dtc":"2024-05-10","end_dtc":"2024-05-10","visit":null},{"seq":"53","trt":"PLACEBO","dose":null,"doseu":null,"dosef":"QD","route":"ORAL","start_dtc":"2024-05-11","end_dtc":"2024-05-11","visit":null},{"seq":"54","trt":"PLACEBO","dose":null,"doseu":null,"dosef":"QD","route":"ORAL","start_dtc":"2024-05-12","end_dtc":"2024-05-12","visit":"WEEK 8"},{"seq":"55","trt":"PLACEBO","dose":null,"doseu":null,"dosef":"QD","route":"ORAL","start_dtc":"2024-05-13","end_dtc":"2024-05-13","visit":"WEEK 8"},{"seq":"56","trt":"PLACEBO","dose":null,"doseu":null,"dosef":"QD","route":"ORAL","start_dtc":"2024-05-14","end_dtc":"2024-05-14","visit":"WEEK 8"},{"seq":"57","trt":"PLACEBO","dose":null,"doseu":null,"dosef":"QD","route":"ORAL","start_dtc":"2024-05-15","end_dtc":"2024-05-15","visit":"WEEK 8"},{"seq":"58","trt":"PLACEBO","dose":null,"doseu":null,"dosef":"QD","route":"ORAL","start_dtc":"2024-05-16","end_dtc":"2024-05-16","visit":"WEEK 8"},{"seq":"59","trt":"PLACEBO","dose":null,"doseu":null,"dosef":"QD","route":"ORAL","start_dtc":"2024-05-17","end_dtc":"2024-05-17","visit":"WEEK 8"},{"seq":"60","trt":"PLACEBO","dose":null,"doseu":null,"dosef":"QD","route":"ORAL","start_dtc":"2024-05-18","end_dtc":"2024-05-18","visit":"WEEK 8"},{"seq":"61","trt":"PLACEBO","dose":null,"doseu":null,"dosef":"QD","route":"ORAL","start_dtc":"2024-05-19","end_dtc":"2024-05-19","visit":null},{"seq":"62","trt":"PLACEBO","dose":null,"doseu":null,"dosef":"QD","route":"ORAL","start_dtc":"2024-05-20","end_dtc":"2024-05-20","visit":null},{"seq":"63","trt":"PLACEBO","dose":null,"doseu":null,"dosef":"QD","route":"ORAL","start_dtc":"2024-05-21","end_dtc":"2024-05-21","visit":null},{"seq":"64","trt":"PLACEBO","dose":null,"doseu":null,"dosef":"QD","route":"ORAL","start_dtc":"2024-05-22","end_dtc":"2024-05-22","visit":null},{"seq":"65","trt":"PLACEBO","dose":null,"doseu":null,"dosef":"QD","route":"ORAL","start_dtc":"2024-05-23","end_dtc":"2024-05-23","visit":null},{"seq":"66","trt":"PLACEBO","dose":null,"doseu":null,"dosef":"QD","route":"ORAL","start_dtc":"2024-05-24","end_dtc":"2024-05-24","visit":null},{"seq":"67","trt":"PLACEBO","dose":null,"doseu":null,"dosef":"QD","route":"ORAL","start_dtc":"2024-05-25","end_dtc":"2024-05-25","visit":null},{"seq":"68","trt":"PLACEBO","dose":null,"doseu":null,"dosef":"QD","route":"ORAL","start_dtc":"2024-05-26","end_dtc":"2024-05-26","visit":null},{"seq":"69","trt":"PLACEBO","dose":null,"doseu":null,"dosef":"QD","route":"ORAL","start_dtc":"2024-05-27","end_dtc":"2024-05-27","visit":null},{"seq":"70","trt":"PLACEBO","dose":null,"doseu":null,"dosef":"QD","route":"ORAL","start_dtc":"2024-05-28","end_dtc":"2024-05-28","visit":null},{"seq":"71","trt":"PLACEBO","dose":null,"doseu":null,"dosef":"QD","route":"ORAL","start_dtc":"2024-05-29","end_dtc":"2024-05-29","visit":null},{"seq":"72","trt":"PLACEBO","dose":null,"doseu":null,"dosef":"QD","route":"ORAL","start_dtc":"2024-05-30","end_dtc":"2024-05-30","visit":null},{"seq":"73","trt":"PLACEBO","dose":null,"doseu":null,"dosef":"QD","route":"ORAL","start_dtc":"2024-05-31","end_dtc":"2024-05-31","visit":null},{"seq":"74","trt":"PLACEBO","dose":null,"doseu":null,"dosef":"QD","route":"ORAL","start_dtc":"2024-06-01","end_dtc":"2024-06-01","visit":null},{"seq":"75","trt":"PLACEBO","dose":null,"doseu":null,"dosef":"QD","route":"ORAL","start_dtc":"2024-06-02","end_dtc":"2024-06-02","visit":null},{"seq":"76","trt":"PLACEBO","dose":null,"doseu":null,"dosef":"QD","route":"ORAL","start_dtc":"2024-06-03","end_dtc":"2024-06-03","visit":null},{"seq":"77","trt":"PLACEBO","dose":null,"doseu":null,"dosef":"QD","route":"ORAL","start_dtc":"2024-06-04","end_dtc":"2024-06-04","visit":null},{"seq":"78","trt":"PLACEBO","dose":null,"doseu":null,"dosef":"QD","route":"ORAL","start_dtc":"2024-06-05","end_dtc":"2024-06-05","visit":null},{"seq":"79","trt":"PLACEBO","dose":null,"doseu":null,"dosef":"QD","route":"ORAL","start_dtc":"2024-06-06","end_dtc":"2024-06-06","visit":null}]},"section_7_adverse_events":{"summary":{"total_aes":2,"serious_aes":0,"fatal_aes":0,"by_severity":{"MILD":1,"MODERATE":1},"by_soc":{"Respiratory, thoracic and mediastinal disorders":1,"Nervous system disorders":1}},"events":[{"seq":"1","term":"ASTHMA","decod":"Asthma","llt":"Asthma","hlt":"Bronchospasm and obstruction","hlgt":"Lower respiratory tract conditions (excl obstruction and infection)","soc":"Respiratory, thoracic and mediastinal disorders","bodsys":"Respiratory, thoracic and mediastinal disorders","severity":"MILD","serious":"N","causality":"UNLIKELY RELATED","action_taken":"DOSE NOT CHANGED","outcome":"RECOVERED/RESOLVED","fatal":"N","hospitalization":"N","life_threatening":"N","onset_dtc":"2024-03-22","end_dtc":"2024-03-29","onset_dy":"3","end_dy":"10","duration":null,"epoch":"TREATMENT","visit":null,"supplemental":{"AETRTEM":"Y"}},{"seq":"2","term":"HEADACHE","decod":"Headache","llt":"Headache","hlt":"Headaches NEC","hlgt":"Headaches","soc":"Nervous system disorders","bodsys":"Nervous system disorders","severity":"MODERATE","serious":"N","causality":"UNLIKELY RELATED","action_taken":"DOSE NOT CHANGED","outcome":"RECOVERING/RESOLVING","fatal":"N","hospitalization":"N","life_threatening":"N","onset_dtc":"2024-05-22","end_dtc":"2024-05-28","onset_dy":"64","end_dy":"70","duration":null,"epoch":"TREATMENT","visit":null,"supplemental":{"AETRTEM":"Y"}}]},"section_8_laboratory_results":{"summary":{"total_records":35,"abnormal_count":0,"abnormal_pct":0.0},"shift_summary":[{"testcd":"ALT","baseline_value":40.2,"baseline_nrind":"NORMAL","worst_post_baseline_value":40.18,"worst_post_baseline_nrind":"NORMAL","worst_visit":"BASELINE"},{"testcd":"AST","baseline_value":30.68,"baseline_nrind":"NORMAL","worst_post_baseline_value":29.54,"worst_post_baseline_nrind":"NORMAL","worst_visit":"WEEK 8"},{"testcd":"CREAT","baseline_value":67.73,"baseline_nrind":"NORMAL","worst_post_baseline_value":72.73,"worst_post_baseline_nrind":"NORMAL","worst_visit":"WEEK 12"},{"testcd":"GLUC","baseline_value":4.93,"baseline_nrind":"NORMAL","worst_post_baseline_value":4.78,"worst_post_baseline_nrind":"NORMAL","worst_visit":"BASELINE"},{"testcd":"HGB","baseline_value":151.98,"baseline_nrind":"NORMAL","worst_post_baseline_value":151.15,"worst_post_baseline_nrind":"NORMAL","worst_visit":"WEEK 8"},{"testcd":"PLAT","baseline_value":279.18,"baseline_nrind":"NORMAL","worst_post_baseline_value":293.5,"worst_post_baseline_nrind":"NORMAL","worst_visit":"BASELINE"},{"testcd":"WBC","baseline_value":5.9,"baseline_nrind":"NORMAL","worst_post_baseline_value":6.21,"worst_post_baseline_nrind":"NORMAL","worst_visit":"WEEK 12"}],"results":[{"seq":"1","testcd":"ALT","test":"Alanine Aminotransferase","cat":"CHEMISTRY","orres":"40.2","orresu":"U/L","stresc":"40.2","stresn":"40.2","stresu":"U/L","stnrlo":"7","stnrhi":"56","nrind":"NORMAL","fast":null,"dtc":"2024-02-11","dy":"-38","visit":"SCREENING","visitnum":"1.0","epoch":"SCREENING","spec":null,"method":null},{"seq":"2","testcd":"AST","test":"Aspartate Aminotransferase","cat":"CHEMISTRY","orres":"30.68","orresu":"U/L","stresc":"30.68","stresn":"30.68","stresu":"U/L","stnrlo":"10","stnrhi":"40","nrind":"NORMAL","fast":null,"dtc":"2024-02-11","dy":"-38","visit":"SCREENING","visitnum":"1.0","epoch":"SCREENING","spec":null,"method":null},{"seq":"3","testcd":"CREAT","test":"Creatinine","cat":"CHEMISTRY","orres":"67.73","orresu":"umol/L","stresc":"67.73","stresn":"67.73","stresu":"umol/L","stnrlo":"62","stnrhi":"106","nrind":"NORMAL","fast":null,"dtc":"2024-02-11","dy":"-38","visit":"SCREENING","visitnum":"1.0","epoch":"SCREENING","spec":null,"method":null},{"seq":"4","testcd":"GLUC","test":"Glucose","cat":"CHEMISTRY","orres":"4.93","orresu":"mmol/L","stresc":"4.93","stresn":"4.93","stresu":"mmol/L","stnrlo":"3.9","stnrhi":"5.6","nrind":"NORMAL","fast":null,"dtc":"2024-02-11","dy":"-38","visit":"SCREENING","visitnum":"1.0","epoch":"SCREENING","spec":null,"method":null},{"seq":"5","testcd":"HGB","test":"Hemoglobin","cat":"HEMATOLOGY","orres":"151.98","orresu":"g/L","stresc":"151.98","stresn":"151.98","stresu":"g/L","stnrlo":"130","stnrhi":"175","nrind":"NORMAL","fast":null,"dtc":"2024-02-11","dy":"-38","visit":"SCREENING","visitnum":"1.0","epoch":"SCREENING","spec":null,"method":null},{"seq":"6","testcd":"PLAT","test":"Platelets","cat":"HEMATOLOGY","orres":"279.18","orresu":"10^9/L","stresc":"279.18","stresn":"279.18","stresu":"10^9/L","stnrlo":"150","stnrhi":"400","nrind":"NORMAL","fast":null,"dtc":"2024-02-11","dy":"-38","visit":"SCREENING","visitnum":"1.0","epoch":"SCREENING","spec":null,"method":null},{"seq":"7","testcd":"WBC","test":"Leukocytes","cat":"HEMATOLOGY","orres":"5.9","orresu":"10^9/L","stresc":"5.9","stresn":"5.9","stresu":"10^9/L","stnrlo":"4.0","stnrhi":"11.0","nrind":"NORMAL","fast":null,"dtc":"2024-02-11","dy":"-38","visit":"SCREENING","visitnum":"1.0","epoch":"SCREENING","spec":null,"method":null},{"seq":"8","testcd":"ALT","test":"Alanine Aminotransferase","cat":"CHEMISTRY","orres":"40.18","orresu":"U/L","stresc":"40.18","stresn":"40.18","stresu":"U/L","stnrlo":"7","stnrhi":"56","nrind":"NORMAL","fast":null,"dtc":"2024-03-20","dy":"1","visit":"BASELINE","visitnum":"2.0","epoch":"TREATMENT","spec":null,"method":null},{"seq":"9","testcd":"AST","test":"Aspartate Aminotransferase","cat":"CHEMISTRY","orres":"28.58","orresu":"U/L","stresc":"28.58","stresn":"28.58","stresu":"U/L","stnrlo":"10","stnrhi":"40","nrind":"NORMAL","fast":null,"dtc":"2024-03-20","dy":"1","visit":"BASELINE","visitnum":"2.0","epoch":"TREATMENT","spec":null,"method":null},{"seq":"10","testcd":"CREAT","test":"Creatinine","cat":"CHEMISTRY","orres":"69.57","orresu":"umol/L","stresc":"69.57","stresn":"69.57","stresu":"umol/L","stnrlo":"62","stnrhi":"106","nrind":"NORMAL","fast":null,"dtc":"2024-03-20","dy":"1","visit":"BASELINE","visitnum":"2.0","epoch":"TREATMENT","spec":null,"method":null},{"seq":"11","testcd":"GLUC","test":"Glucose","cat":"CHEMISTRY","orres":"4.78","orresu":"mmol/L","stresc":"4.78","stresn":"4.78","stresu":"mmol/L","stnrlo":"3.9","stnrhi":"5.6","nrind":"NORMAL","fast":null,"dtc":"2024-03-20","dy":"1","visit":"BASELINE","visitnum":"2.0","epoch":"TREATMENT","spec":null,"method":null},{"seq":"12","testcd":"HGB","test":"Hemoglobin","cat":"HEMATOLOGY","orres":"154.39","orresu":"g/L","stresc":"154.39","stresn":"154.39","stresu":"g/L","stnrlo":"130","stnrhi":"175","nrind":"NORMAL","fast":null,"dtc":"2024-03-20","dy":"1","visit":"BASELINE","visitnum":"2.0","epoch":"TREATMENT","spec":null,"method":null},{"seq":"13","testcd":"PLAT","test":"Platelets","cat":"HEMATOLOGY","orres":"293.5","orresu":"10^9/L","stresc":"293.5","stresn":"293.5","stresu":"10^9/L","stnrlo":"150","stnrhi":"400","nrind":"NORMAL","fast":null,"dtc":"2024-03-20","dy":"1","visit":"BASELINE","visitnum":"2.0","epoch":"TREATMENT","spec":null,"method":null},{"seq":"14","testcd":"WBC","test":"Leukocytes","cat":"HEMATOLOGY","orres":"5.54","orresu":"10^9/L","stresc":"5.54","stresn":"5.54","stresu":"10^9/L","stnrlo":"4.0","stnrhi":"11.0","nrind":"NORMAL","fast":null,"dtc":"2024-03-20","dy":"1","visit":"BASELINE","visitnum":"2.0","epoch":"TREATMENT","spec":null,"method":null},{"seq":"15","testcd":"ALT","test":"Alanine Aminotransferase","cat":"CHEMISTRY","orres":"39.78","orresu":"U/L","stresc":"39.78","stresn":"39.78","stresu":"U/L","stnrlo":"7","stnrhi":"56","nrind":"NORMAL","fast":null,"dtc":"2024-04-18","dy":"30","visit":"WEEK 4","visitnum":"4.0","epoch":"TREATMENT","spec":null,"method":null},{"seq":"16","testcd":"AST","test":"Aspartate Aminotransferase","cat":"CHEMISTRY","orres":"28.36","orresu":"U/L","stresc":"28.36","stresn":"28.36","stresu":"U/L","stnrlo":"10","stnrhi":"40","nrind":"NORMAL","fast":null,"dtc":"2024-04-18","dy":"30","visit":"WEEK 4","visitnum":"4.0","epoch":"TREATMENT","spec":null,"method":null},{"seq":"17","testcd":"CREAT","test":"Creatinine","cat":"CHEMISTRY","orres":"68.74","orresu":"umol/L","stresc":"68.74","stresn":"68.74","stresu":"umol/L","stnrlo":"62","stnrhi":"106","nrind":"NORMAL","fast":null,"dtc":"2024-04-18","dy":"30","visit":"WEEK 4","visitnum":"4.0","epoch":"TREATMENT","spec":null,"method":null},{"seq":"18","testcd":"GLUC","test":"Glucose","cat":"CHEMISTRY","orres":"4.75","orresu":"mmol/L","stresc":"4.75","stresn":"4.75","stresu":"mmol/L","stnrlo":"3.9","stnrhi":"5.6","nrind":"NORMAL","fast":null,"dtc":"2024-04-18","dy":"30","visit":"WEEK 4","visitnum":"4.0","epoch":"TREATMENT","spec":null,"method":null},{"seq":"19","testcd":"HGB","test":"Hemoglobin","cat":"HEMATOLOGY","orres":"152.96","orresu":"g/L","stresc":"152.96","stresn":"152.96","stresu":"g/L","stnrlo":"130","stnrhi":"175","nrind":"NORMAL","fast":null,"dtc":"2024-04-18","dy":"30","visit":"WEEK 4","visitnum":"4.0","epoch":"TREATMENT","spec":null,"method":null},{"seq":"20","testcd":"PLAT","test":"Platelets","cat":"HEMATOLOGY","orres":"274.57","orresu":"10^9/L","stresc":"274.57","stresn":"274.57","stresu":"10^9/L","stnrlo":"150","stnrhi":"400","nrind":"NORMAL","fast":null,"dtc":"2024-04-18","dy":"30","visit":"WEEK 4","visitnum":"4.0","epoch":"TREATMENT","spec":null,"method":null},{"seq":"21","testcd":"WBC","test":"Leukocytes","cat":"HEMATOLOGY","orres":"5.66","orresu":"10^9/L","stresc":"5.66","stresn":"5.66","stresu":"10^9/L","stnrlo":"4.0","stnrhi":"11.0","nrind":"NORMAL","fast":null,"dtc":"2024-04-18","dy":"30","visit":"WEEK 4","visitnum":"4.0","epoch":"TREATMENT","spec":null,"method":null},{"seq":"22","testcd":"ALT","test":"Alanine Aminotransferase","cat":"CHEMISTRY","orres":"39.6","orresu":"U/L","stresc":"39.6","stresn":"39.6","stresu":"U/L","stnrlo":"7","stnrhi":"56","nrind":"NORMAL","fast":null,"dtc":"2024-05-13","dy":"55","visit":"WEEK 8","visitnum":"5.0","epoch":"TREATMENT","spec":null,"method":null},{"seq":"23","testcd":"AST","test":"Aspartate Aminotransferase","cat":"CHEMISTRY","orres":"29.54","orresu":"U/L","stresc":"29.54","stresn":"29.54","stresu":"U/L","stnrlo":"10","stnrhi":"40","nrind":"NORMAL","fast":null,"dtc":"2024-05-13","dy":"55","visit":"WEEK 8","visitnum":"5.0","epoch":"TREATMENT","spec":null,"method":null},{"seq":"24","testcd":"CREAT","test":"Creatinine","cat":"CHEMISTRY","orres":"71.8","orresu":"umol/L","stresc":"71.8","stresn":"71.8","stresu":"umol/L","stnrlo":"62","stnrhi":"106","nrind":"NORMAL","fast":null,"dtc":"2024-05-13","dy":"55","visit":"WEEK 8","visitnum":"5.0","epoch":"TREATMENT","spec":null,"method":null},{"seq":"25","testcd":"GLUC","test":"Glucose","cat":"CHEMISTRY","orres":"4.74","orresu":"mmol/L","stresc":"4.74","stresn":"4.74","stresu":"mmol/L","stnrlo":"3.9","stnrhi":"5.6","nrind":"NORMAL","fast":null,"dtc":"2024-05-13","dy":"55","visit":"WEEK 8","visitnum":"5.0","epoch":"TREATMENT","spec":null,"method":null},{"seq":"26","testcd":"HGB","test":"Hemoglobin","cat":"HEMATOLOGY","orres":"151.15","orresu":"g/L","stresc":"151.15","stresn":"151.15","stresu":"g/L","stnrlo":"130","stnrhi":"175","nrind":"NORMAL","fast":null,"dtc":"2024-05-13","dy":"55","visit":"WEEK 8","visitnum":"5.0","epoch":"TREATMENT","spec":null,"method":null},{"seq":"27","testcd":"PLAT","test":"Platelets","cat":"HEMATOLOGY","orres":null,"orresu":null,"stresc":null,"stresn":null,"stresu":null,"stnrlo":null,"stnrhi":null,"nrind":null,"fast":null,"dtc":"2024-05-13","dy":"55","visit":"WEEK 8","visitnum":"5.0","epoch":"TREATMENT","spec":null,"method":null},{"seq":"28","testcd":"WBC","test":"Leukocytes","cat":"HEMATOLOGY","orres":"5.82","orresu":"10^9/L","stresc":"5.82","stresn":"5.82","stresu":"10^9/L","stnrlo":"4.0","stnrhi":"11.0","nrind":"NORMAL","fast":null,"dtc":"2024-05-13","dy":"55","visit":"WEEK 8","visitnum":"5.0","epoch":"TREATMENT","spec":null,"method":null},{"seq":"29","testcd":"ALT","test":"Alanine Aminotransferase","cat":"CHEMISTRY","orres":"38.29","orresu":"U/L","stresc":"38.29","stresn":"38.29","stresu":"U/L","stnrlo":"7","stnrhi":"56","nrind":"NORMAL","fast":null,"dtc":"2024-06-14","dy":"87","visit":"WEEK 12","visitnum":"6.0","epoch":"TREATMENT","spec":null,"method":null},{"seq":"30","testcd":"AST","test":"Aspartate Aminotransferase","cat":"CHEMISTRY","orres":"28.66","orresu":"U/L","stresc":"28.66","stresn":"28.66","stresu":"U/L","stnrlo":"10","stnrhi":"40","nrind":"NORMAL","fast":null,"dtc":"2024-06-14","dy":"87","visit":"WEEK 12","visitnum":"6.0","epoch":"TREATMENT","spec":null,"method":null},{"seq":"31","testcd":"CREAT","test":"Creatinine","cat":"CHEMISTRY","orres":"72.73","orresu":"umol/L","stresc":"72.73","stresn":"72.73","stresu":"umol/L","stnrlo":"62","stnrhi":"106","nrind":"NORMAL","fast":null,"dtc":"2024-06-14","dy":"87","visit":"WEEK 12","visitnum":"6.0","epoch":"TREATMENT","spec":null,"method":null},{"seq":"32","testcd":"GLUC","test":"Glucose","cat":"CHEMISTRY","orres":"4.76","orresu":"mmol/L","stresc":"4.76","stresn":"4.76","stresu":"mmol/L","stnrlo":"3.9","stnrhi":"5.6","nrind":"NORMAL","fast":null,"dtc":"2024-06-14","dy":"87","visit":"WEEK 12","visitnum":"6.0","epoch":"TREATMENT","spec":null,"method":null},{"seq":"33","testcd":"HGB","test":"Hemoglobin","cat":"HEMATOLOGY","orres":"151.31","orresu":"g/L","stresc":"151.31","stresn":"151.31","stresu":"g/L","stnrlo":"130","stnrhi":"175","nrind":"NORMAL","fast":null,"dtc":"2024-06-14","dy":"87","visit":"WEEK 12","visitnum":"6.0","epoch":"TREATMENT","spec":null,"method":null},{"seq":"34","testcd":"PLAT","test":"Platelets","cat":"HEMATOLOGY","orres":"257.22","orresu":"10^9/L","stresc":"257.22","stresn":"257.22","stresu":"10^9/L","stnrlo":"150","stnrhi":"400","nrind":"NORMAL","fast":null,"dtc":"2024-06-14","dy":"87","visit":"WEEK 12","visitnum":"6.0","epoch":"TREATMENT","spec":null,"method":null},{"seq":"35","testcd":"WBC","test":"Leukocytes","cat":"HEMATOLOGY","orres":"6.21","orresu":"10^9/L","stresc":"6.21","stresn":"6.21","stresu":"10^9/L","stnrlo":"4.0","stnrhi":"11.0","nrind":"NORMAL","fast":null,"dtc":"2024-06-14","dy":"87","visit":"WEEK 12","visitnum":"6.0","epoch":"TREATMENT","spec":null,"method":null}]},"section_9_vital_signs":{"summary":{"total_records":47},"trends":{"BMI":[{"visit":"BASELINE","visitnum":"2.0","dtc":"2024-03-20","value":"36.6","unit":"kg/m2"},{"visit":"WEEK 2","visitnum":"3.0","dtc":"2024-04-05","value":"36.5","unit":"kg/m2"},{"visit":"WEEK 4","visitnum":"4.0","dtc":"2024-04-18","value":"36.7","unit":"kg/m2"},{"visit":"WEEK 8","visitnum":"5.0","dtc":"2024-05-13","value":"37.1","unit":"kg/m2"},{"visit":"WEEK 12","visitnum":"6.0","dtc":"2024-06-14","value":"37.2","unit":"kg/m2"}],"DIABP":[{"visit":"SCREENING","visitnum":"1.0","dtc":"2024-02-11","value":"71.1","unit":"mmHg"},{"visit":"BASELINE","visitnum":"2.0","dtc":"2024-03-20","value":"70.2","unit":"mmHg"},{"visit":"WEEK 2","visitnum":"3.0","dtc":"2024-04-05","value":"69.6","unit":"mmHg"},{"visit":"WEEK 4","visitnum":"4.0","dtc":"2024-04-18","value":"70.8","unit":"mmHg"},{"visit":"WEEK 8","visitnum":"5.0","dtc":"2024-05-13","value":"72.4","unit":"mmHg"},{"visit":"WEEK 12","visitnum":"6.0","dtc":"2024-06-14","value":"73.1","unit":"mmHg"}],"HEIGHT":[{"visit":"SCREENING","visitnum":"1.0","dtc":"2024-02-11","value":"156.0","unit":"cm"},{"visit":"BASELINE","visitnum":"2.0","dtc":"2024-03-20","value":"155.8","unit":"cm"},{"visit":"WEEK 2","visitnum":"3.0","dtc":"2024-04-05","value":"156.9","unit":"cm"},{"visit":"WEEK 4","visitnum":"4.0","dtc":"2024-04-18","value":"157.5","unit":"cm"},{"visit":"WEEK 8","visitnum":"5.0","dtc":"2024-05-13","value":"158.0","unit":"cm"},{"visit":"WEEK 12","visitnum":"6.0","dtc":"2024-06-14","value":"158.3","unit":"cm"}],"PULSE":[{"visit":"SCREENING","visitnum":"1.0","dtc":"2024-02-11","value":"91.7","unit":"beats/min"},{"visit":"BASELINE","visitnum":"2.0","dtc":"2024-03-20","value":"92.0","unit":"beats/min"},{"visit":"WEEK 2","visitnum":"3.0","dtc":"2024-04-05","value":"95.3","unit":"beats/min"},{"visit":"WEEK 4","visitnum":"4.0","dtc":"2024-04-18","value":"96.8","unit":"beats/min"},{"visit":"WEEK 8","visitnum":"5.0","dtc":"2024-05-13","value":"97.1","unit":"beats/min"},{"visit":"WEEK 12","visitnum":"6.0","dtc":"2024-06-14","value":"97.3","unit":"beats/min"}],"RESP":[{"visit":"SCREENING","visitnum":"1.0","dtc":"2024-02-11","value":"18.2","unit":"breaths/min"},{"visit":"BASELINE","visitnum":"2.0","dtc":"2024-03-20","value":"18.5","unit":"breaths/min"},{"visit":"WEEK 2","visitnum":"3.0","dtc":"2024-04-05","value":"17.2","unit":"breaths/min"},{"visit":"WEEK 4","visitnum":"4.0","dtc":"2024-04-18","value":"17.7","unit":"breaths/min"},{"visit":"WEEK 8","visitnum":"5.0","dtc":"2024-05-13","value":"18.1","unit":"breaths/min"},{"visit":"WEEK 12","visitnum":"6.0","dtc":"2024-06-14","value":"20.2","unit":"breaths/min"}],"SYSBP":[{"visit":"SCREENING","visitnum":"1.0","dtc":"2024-02-11","value":"141.3","unit":"mmHg"},{"visit":"BASELINE","visitnum":"2.0","dtc":"2024-03-20","value":"141.7","unit":"mmHg"},{"visit":"WEEK 2","visitnum":"3.0","dtc":"2024-04-05","value":"139.3","unit":"mmHg"},{"visit":"WEEK 4","visitnum":"4.0","dtc":"2024-04-18","value":"139.1","unit":"mmHg"},{"visit":"WEEK 8","visitnum":"5.0","dtc":"2024-05-13","value":"143.0","unit":"mmHg"},{"visit":"WEEK 12","visitnum":"6.0","dtc":"2024-06-14","value":"143.2","unit":"mmHg"}],"TEMP":[{"visit":"SCREENING","visitnum":"1.0","dtc":"2024-02-11","value":"36.3","unit":"C"},{"visit":"BASELINE","visitnum":"2.0","dtc":"2024-03-20","value":"36.3","unit":"C"},{"visit":"WEEK 2","visitnum":"3.0","dtc":"2024-04-05","value":"36.2","unit":"C"},{"visit":"WEEK 4","visitnum":"4.0","dtc":"2024-04-18","value":"36.3","unit":"C"},{"visit":"WEEK 8","visitnum":"5.0","dtc":"2024-05-13","value":"36.3","unit":"C"},{"visit":"WEEK 12","visitnum":"6.0","dtc":"2024-06-14","value":"36.3","unit":"C"}],"WEIGHT":[{"visit":"BASELINE","visitnum":"2.0","dtc":"2024-03-20","value":"88.9","unit":"kg"},{"visit":"WEEK 2","visitnum":"3.0","dtc":"2024-04-05","value":"89.9","unit":"kg"},{"visit":"WEEK 4","visitnum":"4.0","dtc":"2024-04-18","value":"91.0","unit":"kg"},{"visit":"WEEK 8","visitnum":"5.0","dtc":"2024-05-13","value":"92.6","unit":"kg"},{"visit":"WEEK 12","visitnum":"6.0","dtc":"2024-06-14","value":"93.1","unit":"kg"}]},"results":[{"seq":"1","testcd":"DIABP","test":"Diastolic Blood Pressure","cat":null,"orres":"71.1","orresu":"mmHg","stresc":"71.1","stresn":"71.1","stresu":"mmHg","stnrlo":null,"stnrhi":null,"nrind":null,"pos":null,"loc":null,"dtc":"2024-02-11","dy":"-38","visit":"SCREENING","visitnum":"1.0","epoch":"SCREENING"},{"seq":"2","testcd":"HEIGHT","test":"Height","cat":null,"orres":"156.0","orresu":"cm","stresc":"156.0","stresn":"156.0","stresu":"cm","stnrlo":null,"stnrhi":null,"nrind":null,"pos":null,"loc":null,"dtc":"2024-02-11","dy":"-38","visit":"SCREENING","visitnum":"1.0","epoch":"SCREENING"},{"seq":"3","testcd":"PULSE","test":"Pulse Rate","cat":null,"orres":"91.7","orresu":"beats/min","stresc":"91.7","stresn":"91.7","stresu":"beats/min","stnrlo":null,"stnrhi":null,"nrind":null,"pos":null,"loc":null,"dtc":"2024-02-11","dy":"-38","visit":"SCREENING","visitnum":"1.0","epoch":"SCREENING"},{"seq":"4","testcd":"RESP","test":"Respiratory Rate","cat":null,"orres":"18.2","orresu":"breaths/min","stresc":"18.2","stresn":"18.2","stresu":"breaths/min","stnrlo":null,"stnrhi":null,"nrind":null,"pos":null,"loc":null,"dtc":"2024-02-11","dy":"-38","visit":"SCREENING","visitnum":"1.0","epoch":"SCREENING"},{"seq":"5","testcd":"SYSBP","test":"Systolic Blood Pressure","cat":null,"orres":"141.3","orresu":"mmHg","stresc":"141.3","stresn":"141.3","stresu":"mmHg","stnrlo":null,"stnrhi":null,"nrind":null,"pos":null,"loc":null,"dtc":"2024-02-11","dy":"-38","visit":"SCREENING","visitnum":"1.0","epoch":"SCREENING"},{"seq":"6","testcd":"TEMP","test":"Temperature","cat":null,"orres":"36.3","orresu":"C","stresc":"36.3","stresn":"36.3","stresu":"C","stnrlo":null,"stnrhi":null,"nrind":null,"pos":null,"loc":null,"dtc":"2024-02-11","dy":"-38","visit":"SCREENING","visitnum":"1.0","epoch":"SCREENING"},{"seq":"7","testcd":"WEIGHT","test":"Weight","cat":null,"orres":null,"orresu":null,"stresc":null,"stresn":null,"stresu":null,"stnrlo":null,"stnrhi":null,"nrind":null,"pos":null,"loc":null,"dtc":"2024-02-11","dy":"-38","visit":"SCREENING","visitnum":"1.0","epoch":"SCREENING"},{"seq":"8","testcd":"BMI","test":"BMI","cat":null,"orres":"36.6","orresu":"kg/m2","stresc":"36.6","stresn":"36.6","stresu":"kg/m2","stnrlo":null,"stnrhi":null,"nrind":null,"pos":null,"loc":null,"dtc":"2024-03-20","dy":"1","visit":"BASELINE","visitnum":"2.0","epoch":"TREATMENT"},{"seq":"9","testcd":"DIABP","test":"Diastolic Blood Pressure","cat":null,"orres":"70.2","orresu":"mmHg","stresc":"70.2","stresn":"70.2","stresu":"mmHg","stnrlo":null,"stnrhi":null,"nrind":null,"pos":null,"loc":null,"dtc":"2024-03-20","dy":"1","visit":"BASELINE","visitnum":"2.0","epoch":"TREATMENT"},{"seq":"10","testcd":"HEIGHT","test":"Height","cat":null,"orres":"155.8","orresu":"cm","stresc":"155.8","stresn":"155.8","stresu":"cm","stnrlo":null,"stnrhi":null,"nrind":null,"pos":null,"loc":null,"dtc":"2024-03-20","dy":"1","visit":"BASELINE","visitnum":"2.0","epoch":"TREATMENT"},{"seq":"11","testcd":"PULSE","test":"Pulse Rate","cat":null,"orres":"92.0","orresu":"beats/min","stresc":"92.0","stresn":"92.0","stresu":"beats/min","stnrlo":null,"stnrhi":null,"nrind":null,"pos":null,"loc":null,"dtc":"2024-03-20","dy":"1","visit":"BASELINE","visitnum":"2.0","epoch":"TREATMENT"},{"seq":"12","testcd":"RESP","test":"Respiratory Rate","cat":null,"orres":"18.5","orresu":"breaths/min","stresc":"18.5","stresn":"18.5","stresu":"breaths/min","stnrlo":null,"stnrhi":null,"nrind":null,"pos":null,"loc":null,"dtc":"2024-03-20","dy":"1","visit":"BASELINE","visitnum":"2.0","epoch":"TREATMENT"},{"seq":"13","testcd":"SYSBP","test":"Systolic Blood Pressure","cat":null,"orres":"141.7","orresu":"mmHg","stresc":"141.7","stresn":"141.7","stresu":"mmHg","stnrlo":null,"stnrhi":null,"nrind":null,"pos":null,"loc":null,"dtc":"2024-03-20","dy":"1","visit":"BASELINE","visitnum":"2.0","epoch":"TREATMENT"},{"seq":"14","testcd":"TEMP","test":"Temperature","cat":null,"orres":"36.3","orresu":"C","stresc":"36.3","stresn":"36.3","stresu":"C","stnrlo":null,"stnrhi":null,"nrind":null,"pos":null,"loc":null,"dtc":"2024-03-20","dy":"1","visit":"BASELINE","visitnum":"2.0","epoch":"TREATMENT"},{"seq":"15","testcd":"WEIGHT","test":"Weight","cat":null,"orres":"88.9","orresu":"kg","stresc":"88.9","stresn":"88.9","stresu":"kg","stnrlo":null,"stnrhi":null,"nrind":null,"pos":null,"loc":null,"dtc":"2024-03-20","dy":"1","visit":"BASELINE","visitnum":"2.0","epoch":"TREATMENT"},{"seq":"16","testcd":"BMI","test":"BMI","cat":null,"orres":"36.5","orresu":"kg/m2","stresc":"36.5","stresn":"36.5","stresu":"kg/m2","stnrlo":null,"stnrhi":null,"nrind":null,"pos":null,"loc":null,"dtc":"2024-04-05","dy":"17","visit":"WEEK 2","visitnum":"3.0","epoch":"TREATMENT"},{"seq":"17","testcd":"DIABP","test":"Diastolic Blood Pressure","cat":null,"orres":"69.6","orresu":"mmHg","stresc":"69.6","stresn":"69.6","stresu":"mmHg","stnrlo":null,"stnrhi":null,"nrind":null,"pos":null,"loc":null,"dtc":"2024-04-05","dy":"17","visit":"WEEK 2","visitnum":"3.0","epoch":"TREATMENT"},{"seq":"18","testcd":"HEIGHT","test":"Height","cat":null,"orres":"156.9","orresu":"cm","stresc":"156.9","stresn":"156.9","stresu":"cm","stnrlo":null,"stnrhi":null,"nrind":null,"pos":null,"loc":null,"dtc":"2024-04-05","dy":"17","visit":"WEEK 2","visitnum":"3.0","epoch":"TREATMENT"},{"seq":"19","testcd":"PULSE","test":"Pulse Rate","cat":null,"orres":"95.3","orresu":"beats/min","stresc":"95.3","stresn":"95.3","stresu":"beats/min","stnrlo":null,"stnrhi":null,"nrind":null,"pos":null,"loc":null,"dtc":"2024-04-05","dy":"17","visit":"WEEK 2","visitnum":"3.0","epoch":"TREATMENT"},{"seq":"20","testcd":"RESP","test":"Respiratory Rate","cat":null,"orres":"17.2","orresu":"breaths/min","stresc":"17.2","stresn":"17.2","stresu":"breaths/min","stnrlo":null,"stnrhi":null,"nrind":null,"pos":null,"loc":null,"dtc":"2024-04-05","dy":"17","visit":"WEEK 2","visitnum":"3.0","epoch":"TREATMENT"},{"seq":"21","testcd":"SYSBP","test":"Systolic Blood Pressure","cat":null,"orres":"139.3","orresu":"mmHg","stresc":"139.3","stresn":"139.3","stresu":"mmHg","stnrlo":null,"stnrhi":null,"nrind":null,"pos":null,"loc":null,"dtc":"2024-04-05","dy":"17","visit":"WEEK 2","visitnum":"3.0","epoch":"TREATMENT"},{"seq":"22","testcd":"TEMP","test":"Temperature","cat":null,"orres":"36.2","orresu":"C","stresc":"36.2","stresn":"36.2","stresu":"C","stnrlo":null,"stnrhi":null,"nrind":null,"pos":null,"loc":null,"dtc":"2024-04-05","dy":"17","visit":"WEEK 2","visitnum":"3.0","epoch":"TREATMENT"},{"seq":"23","testcd":"WEIGHT","test":"Weight","cat":null,"orres":"89.9","orresu":"kg","stresc":"89.9","stresn":"89.9","stresu":"kg","stnrlo":null,"stnrhi":null,"nrind":null,"pos":null,"loc":null,"dtc":"2024-04-05","dy":"17","visit":"WEEK 2","visitnum":"3.0","epoch":"TREATMENT"},{"seq":"24","testcd":"BMI","test":"BMI","cat":null,"orres":"36.7","orresu":"kg/m2","stresc":"36.7","stresn":"36.7","stresu":"kg/m2","stnrlo":null,"stnrhi":null,"nrind":null,"pos":null,"loc":null,"dtc":"2024-04-18","dy":"30","visit":"WEEK 4","visitnum":"4.0","epoch":"TREATMENT"},{"seq":"25","testcd":"DIABP","test":"Diastolic Blood Pressure","cat":null,"orres":"70.8","orresu":"mmHg","stresc":"70.8","stresn":"70.8","stresu":"mmHg","stnrlo":null,"stnrhi":null,"nrind":null,"pos":null,"loc":null,"dtc":"2024-04-18","dy":"30","visit":"WEEK 4","visitnum":"4.0","epoch":"TREATMENT"},{"seq":"26","testcd":"HEIGHT","test":"Height","cat":null,"orres":"157.5","orresu":"cm","stresc":"157.5","stresn":"157.5","stresu":"cm","stnrlo":null,"stnrhi":null,"nrind":null,"pos":null,"loc":null,"dtc":"2024-04-18","dy":"30","visit":"WEEK 4","visitnum":"4.0","epoch":"TREATMENT"},{"seq":"27","testcd":"PULSE","test":"Pulse Rate","cat":null,"orres":"96.8","orresu":"beats/min","stresc":"96.8","stresn":"96.8","stresu":"beats/min","stnrlo":null,"stnrhi":null,"nrind":null,"pos":null,"loc":null,"dtc":"2024-04-18","dy":"30","visit":"WEEK 4","visitnum":"4.0","epoch":"TREATMENT"},{"seq":"28","testcd":"RESP","test":"Respiratory Rate","cat":null,"orres":"17.7","orresu":"breaths/min","stresc":"17.7","stresn":"17.7","stresu":"breaths/min","stnrlo":null,"stnrhi":null,"nrind":null,"pos":null,"loc":null,"dtc":"2024-04-18","dy":"30","visit":"WEEK 4","visitnum":"4.0","epoch":"TREATMENT"},{"seq":"29","testcd":"SYSBP","test":"Systolic Blood Pressure","cat":null,"orres":"139.1","orresu":"mmHg","stresc":"139.1","stresn":"139.1","stresu":"mmHg","stnrlo":null,"stnrhi":null,"nrind":null,"pos":null,"loc":null,"dtc":"2024-04-18","dy":"30","visit":"WEEK 4","visitnum":"4.0","epoch":"TREATMENT"},{"seq":"30","testcd":"TEMP","test":"Temperature","cat":null,"orres":"36.3","orresu":"C","stresc":"36.3","stresn":"36.3","stresu":"C","stnrlo":null,"stnrhi":null,"nrind":null,"pos":null,"loc":null,"dtc":"2024-04-18","dy":"30","visit":"WEEK 4","visitnum":"4.0","epoch":"TREATMENT"},{"seq":"31","testcd":"WEIGHT","test":"Weight","cat":null,"orres":"91.0","orresu":"kg","stresc":"91.0","stresn":"91.0","stresu":"kg","stnrlo":null,"stnrhi":null,"nrind":null,"pos":null,"loc":null,"dtc":"2024-04-18","dy":"30","visit":"WEEK 4","visitnum":"4.0","epoch":"TREATMENT"},{"seq":"32","testcd":"BMI","test":"BMI","cat":null,"orres":"37.1","orresu":"kg/m2","stresc":"37.1","stresn":"37.1","stresu":"kg/m2","stnrlo":null,"stnrhi":null,"nrind":null,"pos":null,"loc":null,"dtc":"2024-05-13","dy":"55","visit":"WEEK 8","visitnum":"5.0","epoch":"TREATMENT"},{"seq":"33","testcd":"DIABP","test":"Diastolic Blood Pressure","cat":null,"orres":"72.4","orresu":"mmHg","stresc":"72.4","stresn":"72.4","stresu":"mmHg","stnrlo":null,"stnrhi":null,"nrind":null,"pos":null,"loc":null,"dtc":"2024-05-13","dy":"55","visit":"WEEK 8","visitnum":"5.0","epoch":"TREATMENT"},{"seq":"34","testcd":"HEIGHT","test":"Height","cat":null,"orres":"158.0","orresu":"cm","stresc":"158.0","stresn":"158.0","stresu":"cm","stnrlo":null,"stnrhi":null,"nrind":null,"pos":null,"loc":null,"dtc":"2024-05-13","dy":"55","visit":"WEEK 8","visitnum":"5.0","epoch":"TREATMENT"},{"seq":"35","testcd":"PULSE","test":"Pulse Rate","cat":null,"orres":"97.1","orresu":"beats/min","stresc":"97.1","stresn":"97.1","stresu":"beats/min","stnrlo":null,"stnrhi":null,"nrind":null,"pos":null,"loc":null,"dtc":"2024-05-13","dy":"55","visit":"WEEK 8","visitnum":"5.0","epoch":"TREATMENT"},{"seq":"36","testcd":"RESP","test":"Respiratory Rate","cat":null,"orres":"18.1","orresu":"breaths/min","stresc":"18.1","stresn":"18.1","stresu":"breaths/min","stnrlo":null,"stnrhi":null,"nrind":null,"pos":null,"loc":null,"dtc":"2024-05-13","dy":"55","visit":"WEEK 8","visitnum":"5.0","epoch":"TREATMENT"},{"seq":"37","testcd":"SYSBP","test":"Systolic Blood Pressure","cat":null,"orres":"143.0","orresu":"mmHg","stresc":"143.0","stresn":"143.0","stresu":"mmHg","stnrlo":null,"stnrhi":null,"nrind":null,"pos":null,"loc":null,"dtc":"2024-05-13","dy":"55","visit":"WEEK 8","visitnum":"5.0","epoch":"TREATMENT"},{"seq":"38","testcd":"TEMP","test":"Temperature","cat":null,"orres":"36.3","orresu":"C","stresc":"36.3","stresn":"36.3","stresu":"C","stnrlo":null,"stnrhi":null,"nrind":null,"pos":null,"loc":null,"dtc":"2024-05-13","dy":"55","visit":"WEEK 8","visitnum":"5.0","epoch":"TREATMENT"},{"seq":"39","testcd":"WEIGHT","test":"Weight","cat":null,"orres":"92.6","orresu":"kg","stresc":"92.6","stresn":"92.6","stresu":"kg","stnrlo":null,"stnrhi":null,"nrind":null,"pos":null,"loc":null,"dtc":"2024-05-13","dy":"55","visit":"WEEK 8","visitnum":"5.0","epoch":"TREATMENT"},{"seq":"40","testcd":"BMI","test":"BMI","cat":null,"orres":"37.2","orresu":"kg/m2","stresc":"37.2","stresn":"37.2","stresu":"kg/m2","stnrlo":null,"stnrhi":null,"nrind":null,"pos":null,"loc":null,"dtc":"2024-06-14","dy":"87","visit":"WEEK 12","visitnum":"6.0","epoch":"TREATMENT"},{"seq":"41","testcd":"DIABP","test":"Diastolic Blood Pressure","cat":null,"orres":"73.1","orresu":"mmHg","stresc":"73.1","stresn":"73.1","stresu":"mmHg","stnrlo":null,"stnrhi":null,"nrind":null,"pos":null,"loc":null,"dtc":"2024-06-14","dy":"87","visit":"WEEK 12","visitnum":"6.0","epoch":"TREATMENT"},{"seq":"42","testcd":"HEIGHT","test":"Height","cat":null,"orres":"158.3","orresu":"cm","stresc":"158.3","stresn":"158.3","stresu":"cm","stnrlo":null,"stnrhi":null,"nrind":null,"pos":null,"loc":null,"dtc":"2024-06-14","dy":"87","visit":"WEEK 12","visitnum":"6.0","epoch":"TREATMENT"},{"seq":"43","testcd":"PULSE","test":"Pulse Rate","cat":null,"orres":"97.3","orresu":"beats/min","stresc":"97.3","stresn":"97.3","stresu":"beats/min","stnrlo":null,"stnrhi":null,"nrind":null,"pos":null,"loc":null,"dtc":"2024-06-14","dy":"87","visit":"WEEK 12","visitnum":"6.0","epoch":"TREATMENT"},{"seq":"44","testcd":"RESP","test":"Respiratory Rate","cat":null,"orres":"20.2","orresu":"breaths/min","stresc":"20.2","stresn":"20.2","stresu":"breaths/min","stnrlo":null,"stnrhi":null,"nrind":null,"pos":null,"loc":null,"dtc":"2024-06-14","dy":"87","visit":"WEEK 12","visitnum":"6.0","epoch":"TREATMENT"},{"seq":"45","testcd":"SYSBP","test":"Systolic Blood Pressure","cat":null,"orres":"143.2","orresu":"mmHg","stresc":"143.2","stresn":"143.2","stresu":"mmHg","stnrlo":null,"stnrhi":null,"nrind":null,"pos":null,"loc":null,"dtc":"2024-06-14","dy":"87","visit":"WEEK 12","visitnum":"6.0","epoch":"TREATMENT"},{"seq":"46","testcd":"TEMP","test":"Temperature","cat":null,"orres":"36.3","orresu":"C","stresc":"36.3","stresn":"36.3","stresu":"C","stnrlo":null,"stnrhi":null,"nrind":null,"pos":null,"loc":null,"dtc":"2024-06-14","dy":"87","visit":"WEEK 12","visitnum":"6.0","epoch":"TREATMENT"},{"seq":"47","testcd":"WEIGHT","test":"Weight","cat":null,"orres":"93.1","orresu":"kg","stresc":"93.1","stresn":"93.1","stresu":"kg","stnrlo":null,"stnrhi":null,"nrind":null,"pos":null,"loc":null,"dtc":"2024-06-14","dy":"87","visit":"WEEK 12","visitnum":"6.0","epoch":"TREATMENT"}]},"section_10_questionnaires_and_scores":{"questionnaires":[],"findings_about":[]},"section_11_protocol_deviations":{"deviations":[{"seq":"1","term":"Missed PLACEBO dose on 2024-04-12","decod":"MISSED DOSE","cat":"MINOR","scat":"DOSING","start_dtc":"2024-04-12","end_dtc":null,"visit":null},{"seq":"2","term":"Visit WEEK 4 occurred 1 days late (Day 30 vs planned Day 29)","decod":"VISIT OCCURRED OUTSIDE VISIT WINDOW","cat":"MINOR","scat":"VISIT WINDOW","start_dtc":"2024-04-18","end_dtc":null,"visit":null},{"seq":"3","term":"Missed PLACEBO dose on 2024-05-15","decod":"MISSED DOSE","cat":"MINOR","scat":"DOSING","start_dtc":"2024-05-15","end_dtc":null,"visit":null},{"seq":"4","term":"Missed PLACEBO dose on 2024-06-02","decod":"MISSED DOSE","cat":"MINOR","scat":"DOSING","start_dtc":"2024-06-02","end_dtc":null,"visit":null}],"total":4},"section_12_disposition":{"completion_status":"COMPLETED","disposition_records":[{"seq":"1","term":"INFORMED CONSENT OBTAINED","decod":"INFORMED CONSENT OBTAINED","cat":"PROTOCOL MILESTONE","scat":null,"dtc":"2024-02-23","dy":null,"visit":null,"epoch":"SCREENING"},{"seq":"2","term":"RANDOMIZED","decod":"RANDOMIZED","cat":"PROTOCOL MILESTONE","scat":null,"dtc":"2024-03-20","dy":null,"visit":null,"epoch":"TREATMENT"},{"seq":"3","term":"COMPLETED","decod":"COMPLETED","cat":"DISPOSITION EVENT","scat":null,"dtc":"2024-08-06","dy":null,"visit":null,"epoch":"FOLLOW-UP"}],"death":null},"section_13_hospitalizations":{"items":[],"total":0},"section_14_substance_use":{"items":[{"seq":"1","substance":"ALCOHOL","decod":"ALCOHOL","cat":"ALCOHOL","scat":null,"usage":"Y","dose":"7.0","dosu":"DRINKS/WEEK","freq":"QW","start_dtc":"2002-02-28","end_dtc":null},{"seq":"2","substance":"COFFEE","decod":"COFFEE","cat":"CAFFEINE","scat":null,"usage":"Y","dose":"3.0","dosu":"CUPS/DAY","freq":"QD","start_dtc":"1996-03-01","end_dtc":null},{"seq":"3","substance":"CIGARETTES","decod":"CIGARETTES","cat":"TOBACCO","scat":"CIGARETTES","usage":"N","dose":null,"dosu":null,"freq":null,"start_dtc":null,"end_dtc":null}],"total":3},"section_15_subject_status":{"items":[{"seq":"1","testcd":"SURVSTAT","test":"Survival Status","orres":"ALIVE","stresc":"ALIVE","dtc":"2024-08-06","visit":"END OF STUDY","epoch":"FOLLOW-UP"}],"total":1}}