{"subject_id":"GB001-ASTHMA-201-SITE003-0432","study_id":"GB001-ASTHMA-201","generated_at":"2026-06-16T07:23:01.993080+00:00","sdtmig_version":"3.4","flags":{"has_serious_ae":false,"has_fatal_ae":false,"has_protocol_deviation":false,"n_protocol_deviations":0,"n_adverse_events":0,"n_concomitant_meds":1,"max_ae_severity":null,"screen_failure":false,"discontinued_early":true,"discontinuation_reason":"PHYSICIAN DECISION","death":false,"exposure_days":1},"timeline":[{"dtc":"2015-03-03","dy":"-3315","event":"CM START: ESOMEPRAZOLE","domain":"CM","category":"concomitant_med"},{"dtc":"2024-02-25","dy":"-34","event":"VISIT: SCREENING","domain":"SV","category":"visit"},{"dtc":"2024-02-29","dy":"-30","event":"INFORMED CONSENT OBTAINED","domain":"DS","category":"milestone"},{"dtc":"2024-03-30","dy":"1","event":"RANDOMIZED","domain":"DS","category":"milestone"},{"dtc":"2024-03-30","dy":"1","event":"FIRST DOSE: PLACEBO","domain":"EX","category":"exposure"},{"dtc":"2024-03-30","dy":"1","event":"VISIT: BASELINE","domain":"SV","category":"visit"},{"dtc":"2024-03-31","dy":"2","event":"PHYSICIAN DECISION","domain":"DS","category":"milestone"}],"section_1_demographics":{"usubjid":"GB001-ASTHMA-201-SITE003-0432","subjid":"0432","siteid":"SITE003","age":"33","ageu":"YEARS","sex":"F","race":"WHITE","ethnicity":"NOT HISPANIC OR LATINO","country":"USA","arm":"Placebo","armcd":"PBO","actarm":"Placebo","actarmcd":"PBO","randomization_date":null,"informed_consent_date":"2024-02-29","reference_start_date":"2024-03-30","reference_end_date":"2024-03-31","screen_failure":false,"death_flag":null,"death_date":null,"subject_characteristics":[{"testcd":"ALCUSE","test":"Alcohol Use","orres":"NON-DRINKER","stresc":"NON-DRINKER","visit":null,"dtc":"2024-02-29"},{"testcd":"BMI","test":"Body Mass Index","orres":"18.3","stresc":"18.3","visit":null,"dtc":"2024-02-29"},{"testcd":"DURDIS","test":"Duration of Disease","orres":"121 months","stresc":"121","visit":null,"dtc":"2024-02-29"},{"testcd":"TOBUSE","test":"Tobacco Use","orres":"NEVER SMOKED","stresc":"NEVER SMOKED","visit":null,"dtc":"2024-02-29"}]},"section_2_medical_history":{"items":[{"seq":"1","term":"ASTHMA","decod":"ASTHMA","cat":"RESPIRATORY","scat":null,"presp":null,"occur":null,"status":null,"onset_dtc":"2015-03","end_dtc":"2021-09-21","visit":null},{"seq":"2","term":"DIABETES MELLITUS TYPE 2","decod":"DIABETES MELLITUS TYPE 2","cat":"ENDOCRINE","scat":null,"presp":null,"occur":null,"status":null,"onset_dtc":"2014-03","end_dtc":"2017-01-04","visit":null},{"seq":"3","term":"GASTROESOPHAGEAL REFLUX DISEASE","decod":"GASTROESOPHAGEAL REFLUX DISEASE","cat":"GASTROINTESTINAL","scat":null,"presp":null,"occur":null,"status":null,"onset_dtc":"2015-03-03","end_dtc":null,"visit":null}]},"section_3_inclusion_exclusion":{"criteria":[]},"section_4_trial_participation":{"visits":[{"visitnum":"1.0","visit":"SCREENING","start_dtc":"2024-02-25","end_dtc":"2024-02-25","updes":null},{"visitnum":"2.0","visit":"BASELINE","start_dtc":"2024-03-30","end_dtc":"2024-03-30","updes":null}],"epochs":[{"seq":"1","etcd":"SCRN","element":"Screening","start_dtc":"2024-03-02","end_dtc":"2024-03-30","updes":null},{"seq":"2","etcd":"TRT","element":"Treatment","start_dtc":"2024-03-30","end_dtc":"2024-03-31","updes":null}],"visit_count":2},"section_5_concomitant_medications":{"medications":[{"seq":"1","trt":"ESOMEPRAZOLE","decod":"ESOMEPRAZOLE","cat":"PRIOR","dose":"40","doseu":null,"dosef":"QD","route":"ORAL","indication":"GASTROESOPHAGEAL REFLUX DISEASE","start_dtc":"2015-03-03","end_dtc":"2024-03-31","ongoing":null,"visit":null}]},"section_6_exposure":{"exposure_as_administered":[{"seq":"1","trt":"PLACEBO","dose":"0.0","doseu":null,"dosef":"QD","route":"ORAL","lot":null,"start_dtc":"2024-03-30","end_dtc":"2024-03-31","start_dy":"1","end_dy":"2","epoch":"TREATMENT","visit":null}],"exposure_as_collected":[{"seq":"1","trt":"PLACEBO","dose":null,"doseu":null,"dosef":"QD","route":"ORAL","start_dtc":"2024-03-30","end_dtc":"2024-03-30","visit":"BASELINE"},{"seq":"2","trt":"PLACEBO","dose":null,"doseu":null,"dosef":"QD","route":"ORAL","start_dtc":"2024-03-31","end_dtc":"2024-03-31","visit":"BASELINE"}]},"section_7_adverse_events":{"summary":{"total_aes":0,"serious_aes":0,"fatal_aes":0,"by_severity":{},"by_soc":{}},"events":[]},"section_8_laboratory_results":{"summary":{"total_records":14,"abnormal_count":2,"abnormal_pct":14.3},"shift_summary":[{"testcd":"ALT","baseline_value":54.23,"baseline_nrind":"NORMAL","worst_post_baseline_value":51.74,"worst_post_baseline_nrind":"NORMAL","worst_visit":"BASELINE"},{"testcd":"AST","baseline_value":11.69,"baseline_nrind":"NORMAL","worst_post_baseline_value":12.94,"worst_post_baseline_nrind":"NORMAL","worst_visit":"BASELINE"},{"testcd":"CREAT","baseline_value":45.67,"baseline_nrind":"NORMAL","worst_post_baseline_value":46.34,"worst_post_baseline_nrind":"NORMAL","worst_visit":"BASELINE"},{"testcd":"GLUC","baseline_value":6.53,"baseline_nrind":"HIGH","worst_post_baseline_value":6.58,"worst_post_baseline_nrind":"HIGH","worst_visit":"BASELINE"},{"testcd":"HGB","baseline_value":131.06,"baseline_nrind":"NORMAL","worst_post_baseline_value":132.89,"worst_post_baseline_nrind":"NORMAL","worst_visit":"BASELINE"},{"testcd":"PLAT","baseline_value":338.14,"baseline_nrind":"NORMAL","worst_post_baseline_value":347.18,"worst_post_baseline_nrind":"NORMAL","worst_visit":"BASELINE"},{"testcd":"WBC","baseline_value":9.45,"baseline_nrind":"NORMAL","worst_post_baseline_value":9.08,"worst_post_baseline_nrind":"NORMAL","worst_visit":"BASELINE"}],"results":[{"seq":"1","testcd":"ALT","test":"Alanine Aminotransferase","cat":"CHEMISTRY","orres":"54.23","orresu":"U/L","stresc":"54.23","stresn":"54.23","stresu":"U/L","stnrlo":"7","stnrhi":"56","nrind":"NORMAL","fast":null,"dtc":"2024-02-25","dy":"-34","visit":"SCREENING","visitnum":"1.0","epoch":"SCREENING","spec":null,"method":null},{"seq":"2","testcd":"AST","test":"Aspartate Aminotransferase","cat":"CHEMISTRY","orres":"11.69","orresu":"U/L","stresc":"11.69","stresn":"11.69","stresu":"U/L","stnrlo":"10","stnrhi":"40","nrind":"NORMAL","fast":null,"dtc":"2024-02-25","dy":"-34","visit":"SCREENING","visitnum":"1.0","epoch":"SCREENING","spec":null,"method":null},{"seq":"3","testcd":"CREAT","test":"Creatinine","cat":"CHEMISTRY","orres":"45.67","orresu":"umol/L","stresc":"45.67","stresn":"45.67","stresu":"umol/L","stnrlo":"44","stnrhi":"80","nrind":"NORMAL","fast":null,"dtc":"2024-02-25","dy":"-34","visit":"SCREENING","visitnum":"1.0","epoch":"SCREENING","spec":null,"method":null},{"seq":"4","testcd":"GLUC","test":"Glucose","cat":"CHEMISTRY","orres":"6.53","orresu":"mmol/L","stresc":"6.53","stresn":"6.53","stresu":"mmol/L","stnrlo":"3.9","stnrhi":"5.6","nrind":"HIGH","fast":null,"dtc":"2024-02-25","dy":"-34","visit":"SCREENING","visitnum":"1.0","epoch":"SCREENING","spec":null,"method":null},{"seq":"5","testcd":"HGB","test":"Hemoglobin","cat":"HEMATOLOGY","orres":"131.06","orresu":"g/L","stresc":"131.06","stresn":"131.06","stresu":"g/L","stnrlo":"120","stnrhi":"155","nrind":"NORMAL","fast":null,"dtc":"2024-02-25","dy":"-34","visit":"SCREENING","visitnum":"1.0","epoch":"SCREENING","spec":null,"method":null},{"seq":"6","testcd":"PLAT","test":"Platelets","cat":"HEMATOLOGY","orres":"338.14","orresu":"10^9/L","stresc":"338.14","stresn":"338.14","stresu":"10^9/L","stnrlo":"150","stnrhi":"400","nrind":"NORMAL","fast":null,"dtc":"2024-02-25","dy":"-34","visit":"SCREENING","visitnum":"1.0","epoch":"SCREENING","spec":null,"method":null},{"seq":"7","testcd":"WBC","test":"Leukocytes","cat":"HEMATOLOGY","orres":"9.45","orresu":"10^9/L","stresc":"9.45","stresn":"9.45","stresu":"10^9/L","stnrlo":"4.0","stnrhi":"11.0","nrind":"NORMAL","fast":null,"dtc":"2024-02-25","dy":"-34","visit":"SCREENING","visitnum":"1.0","epoch":"SCREENING","spec":null,"method":null},{"seq":"8","testcd":"ALT","test":"Alanine Aminotransferase","cat":"CHEMISTRY","orres":"51.74","orresu":"U/L","stresc":"51.74","stresn":"51.74","stresu":"U/L","stnrlo":"7","stnrhi":"56","nrind":"NORMAL","fast":null,"dtc":"2024-03-30","dy":"1","visit":"BASELINE","visitnum":"2.0","epoch":"TREATMENT","spec":null,"method":null},{"seq":"9","testcd":"AST","test":"Aspartate Aminotransferase","cat":"CHEMISTRY","orres":"12.94","orresu":"U/L","stresc":"12.94","stresn":"12.94","stresu":"U/L","stnrlo":"10","stnrhi":"40","nrind":"NORMAL","fast":null,"dtc":"2024-03-30","dy":"1","visit":"BASELINE","visitnum":"2.0","epoch":"TREATMENT","spec":null,"method":null},{"seq":"10","testcd":"CREAT","test":"Creatinine","cat":"CHEMISTRY","orres":"46.34","orresu":"umol/L","stresc":"46.34","stresn":"46.34","stresu":"umol/L","stnrlo":"44","stnrhi":"80","nrind":"NORMAL","fast":null,"dtc":"2024-03-30","dy":"1","visit":"BASELINE","visitnum":"2.0","epoch":"TREATMENT","spec":null,"method":null},{"seq":"11","testcd":"GLUC","test":"Glucose","cat":"CHEMISTRY","orres":"6.58","orresu":"mmol/L","stresc":"6.58","stresn":"6.58","stresu":"mmol/L","stnrlo":"3.9","stnrhi":"5.6","nrind":"HIGH","fast":null,"dtc":"2024-03-30","dy":"1","visit":"BASELINE","visitnum":"2.0","epoch":"TREATMENT","spec":null,"method":null},{"seq":"12","testcd":"HGB","test":"Hemoglobin","cat":"HEMATOLOGY","orres":"132.89","orresu":"g/L","stresc":"132.89","stresn":"132.89","stresu":"g/L","stnrlo":"120","stnrhi":"155","nrind":"NORMAL","fast":null,"dtc":"2024-03-30","dy":"1","visit":"BASELINE","visitnum":"2.0","epoch":"TREATMENT","spec":null,"method":null},{"seq":"13","testcd":"PLAT","test":"Platelets","cat":"HEMATOLOGY","orres":"347.18","orresu":"10^9/L","stresc":"347.18","stresn":"347.18","stresu":"10^9/L","stnrlo":"150","stnrhi":"400","nrind":"NORMAL","fast":null,"dtc":"2024-03-30","dy":"1","visit":"BASELINE","visitnum":"2.0","epoch":"TREATMENT","spec":null,"method":null},{"seq":"14","testcd":"WBC","test":"Leukocytes","cat":"HEMATOLOGY","orres":"9.08","orresu":"10^9/L","stresc":"9.08","stresn":"9.08","stresu":"10^9/L","stnrlo":"4.0","stnrhi":"11.0","nrind":"NORMAL","fast":null,"dtc":"2024-03-30","dy":"1","visit":"BASELINE","visitnum":"2.0","epoch":"TREATMENT","spec":null,"method":null}]},"section_9_vital_signs":{"summary":{"total_records":16},"trends":{"BMI":[{"visit":"SCREENING","visitnum":"1.0","dtc":"2024-02-25","value":"18.3","unit":"kg/m2"},{"visit":"BASELINE","visitnum":"2.0","dtc":"2024-03-30","value":"18.3","unit":"kg/m2"}],"DIABP":[{"visit":"SCREENING","visitnum":"1.0","dtc":"2024-02-25","value":"69.3","unit":"mmHg"},{"visit":"BASELINE","visitnum":"2.0","dtc":"2024-03-30","value":"69.3","unit":"mmHg"}],"HEIGHT":[{"visit":"SCREENING","visitnum":"1.0","dtc":"2024-02-25","value":"147.9","unit":"cm"},{"visit":"BASELINE","visitnum":"2.0","dtc":"2024-03-30","value":"147.8","unit":"cm"}],"PULSE":[{"visit":"SCREENING","visitnum":"1.0","dtc":"2024-02-25","value":"82.9","unit":"beats/min"},{"visit":"BASELINE","visitnum":"2.0","dtc":"2024-03-30","value":"82.3","unit":"beats/min"}],"RESP":[{"visit":"SCREENING","visitnum":"1.0","dtc":"2024-02-25","value":"17.3","unit":"breaths/min"},{"visit":"BASELINE","visitnum":"2.0","dtc":"2024-03-30","value":"17.3","unit":"breaths/min"}],"SYSBP":[{"visit":"SCREENING","visitnum":"1.0","dtc":"2024-02-25","value":"109.8","unit":"mmHg"},{"visit":"BASELINE","visitnum":"2.0","dtc":"2024-03-30","value":"108.7","unit":"mmHg"}],"TEMP":[{"visit":"SCREENING","visitnum":"1.0","dtc":"2024-02-25","value":"37.7","unit":"C"},{"visit":"BASELINE","visitnum":"2.0","dtc":"2024-03-30","value":"37.5","unit":"C"}],"WEIGHT":[{"visit":"SCREENING","visitnum":"1.0","dtc":"2024-02-25","value":"40.0","unit":"kg"},{"visit":"BASELINE","visitnum":"2.0","dtc":"2024-03-30","value":"40.0","unit":"kg"}]},"results":[{"seq":"1","testcd":"BMI","test":"BMI","cat":null,"orres":"18.3","orresu":"kg/m2","stresc":"18.3","stresn":"18.3","stresu":"kg/m2","stnrlo":null,"stnrhi":null,"nrind":null,"pos":null,"loc":null,"dtc":"2024-02-25","dy":"-34","visit":"SCREENING","visitnum":"1.0","epoch":"SCREENING"},{"seq":"2","testcd":"DIABP","test":"Diastolic Blood Pressure","cat":null,"orres":"69.3","orresu":"mmHg","stresc":"69.3","stresn":"69.3","stresu":"mmHg","stnrlo":null,"stnrhi":null,"nrind":null,"pos":null,"loc":null,"dtc":"2024-02-25","dy":"-34","visit":"SCREENING","visitnum":"1.0","epoch":"SCREENING"},{"seq":"3","testcd":"HEIGHT","test":"Height","cat":null,"orres":"147.9","orresu":"cm","stresc":"147.9","stresn":"147.9","stresu":"cm","stnrlo":null,"stnrhi":null,"nrind":null,"pos":null,"loc":null,"dtc":"2024-02-25","dy":"-34","visit":"SCREENING","visitnum":"1.0","epoch":"SCREENING"},{"seq":"4","testcd":"PULSE","test":"Pulse Rate","cat":null,"orres":"82.9","orresu":"beats/min","stresc":"82.9","stresn":"82.9","stresu":"beats/min","stnrlo":null,"stnrhi":null,"nrind":null,"pos":null,"loc":null,"dtc":"2024-02-25","dy":"-34","visit":"SCREENING","visitnum":"1.0","epoch":"SCREENING"},{"seq":"5","testcd":"RESP","test":"Respiratory Rate","cat":null,"orres":"17.3","orresu":"breaths/min","stresc":"17.3","stresn":"17.3","stresu":"breaths/min","stnrlo":null,"stnrhi":null,"nrind":null,"pos":null,"loc":null,"dtc":"2024-02-25","dy":"-34","visit":"SCREENING","visitnum":"1.0","epoch":"SCREENING"},{"seq":"6","testcd":"SYSBP","test":"Systolic Blood Pressure","cat":null,"orres":"109.8","orresu":"mmHg","stresc":"109.8","stresn":"109.8","stresu":"mmHg","stnrlo":null,"stnrhi":null,"nrind":null,"pos":null,"loc":null,"dtc":"2024-02-25","dy":"-34","visit":"SCREENING","visitnum":"1.0","epoch":"SCREENING"},{"seq":"7","testcd":"TEMP","test":"Temperature","cat":null,"orres":"37.7","orresu":"C","stresc":"37.7","stresn":"37.7","stresu":"C","stnrlo":null,"stnrhi":null,"nrind":null,"pos":null,"loc":null,"dtc":"2024-02-25","dy":"-34","visit":"SCREENING","visitnum":"1.0","epoch":"SCREENING"},{"seq":"8","testcd":"WEIGHT","test":"Weight","cat":null,"orres":"40.0","orresu":"kg","stresc":"40.0","stresn":"40.0","stresu":"kg","stnrlo":null,"stnrhi":null,"nrind":null,"pos":null,"loc":null,"dtc":"2024-02-25","dy":"-34","visit":"SCREENING","visitnum":"1.0","epoch":"SCREENING"},{"seq":"9","testcd":"BMI","test":"BMI","cat":null,"orres":"18.3","orresu":"kg/m2","stresc":"18.3","stresn":"18.3","stresu":"kg/m2","stnrlo":null,"stnrhi":null,"nrind":null,"pos":null,"loc":null,"dtc":"2024-03-30","dy":"1","visit":"BASELINE","visitnum":"2.0","epoch":"TREATMENT"},{"seq":"10","testcd":"DIABP","test":"Diastolic Blood Pressure","cat":null,"orres":"69.3","orresu":"mmHg","stresc":"69.3","stresn":"69.3","stresu":"mmHg","stnrlo":null,"stnrhi":null,"nrind":null,"pos":null,"loc":null,"dtc":"2024-03-30","dy":"1","visit":"BASELINE","visitnum":"2.0","epoch":"TREATMENT"},{"seq":"11","testcd":"HEIGHT","test":"Height","cat":null,"orres":"147.8","orresu":"cm","stresc":"147.8","stresn":"147.8","stresu":"cm","stnrlo":null,"stnrhi":null,"nrind":null,"pos":null,"loc":null,"dtc":"2024-03-30","dy":"1","visit":"BASELINE","visitnum":"2.0","epoch":"TREATMENT"},{"seq":"12","testcd":"PULSE","test":"Pulse Rate","cat":null,"orres":"82.3","orresu":"beats/min","stresc":"82.3","stresn":"82.3","stresu":"beats/min","stnrlo":null,"stnrhi":null,"nrind":null,"pos":null,"loc":null,"dtc":"2024-03-30","dy":"1","visit":"BASELINE","visitnum":"2.0","epoch":"TREATMENT"},{"seq":"13","testcd":"RESP","test":"Respiratory Rate","cat":null,"orres":"17.3","orresu":"breaths/min","stresc":"17.3","stresn":"17.3","stresu":"breaths/min","stnrlo":null,"stnrhi":null,"nrind":null,"pos":null,"loc":null,"dtc":"2024-03-30","dy":"1","visit":"BASELINE","visitnum":"2.0","epoch":"TREATMENT"},{"seq":"14","testcd":"SYSBP","test":"Systolic Blood Pressure","cat":null,"orres":"108.7","orresu":"mmHg","stresc":"108.7","stresn":"108.7","stresu":"mmHg","stnrlo":null,"stnrhi":null,"nrind":null,"pos":null,"loc":null,"dtc":"2024-03-30","dy":"1","visit":"BASELINE","visitnum":"2.0","epoch":"TREATMENT"},{"seq":"15","testcd":"TEMP","test":"Temperature","cat":null,"orres":"37.5","orresu":"C","stresc":"37.5","stresn":"37.5","stresu":"C","stnrlo":null,"stnrhi":null,"nrind":null,"pos":null,"loc":null,"dtc":"2024-03-30","dy":"1","visit":"BASELINE","visitnum":"2.0","epoch":"TREATMENT"},{"seq":"16","testcd":"WEIGHT","test":"Weight","cat":null,"orres":"40.0","orresu":"kg","stresc":"40.0","stresn":"40.0","stresu":"kg","stnrlo":null,"stnrhi":null,"nrind":null,"pos":null,"loc":null,"dtc":"2024-03-30","dy":"1","visit":"BASELINE","visitnum":"2.0","epoch":"TREATMENT"}]},"section_10_questionnaires_and_scores":{"questionnaires":[],"findings_about":[]},"section_11_protocol_deviations":{"deviations":[],"total":0},"section_12_disposition":{"completion_status":"INFORMED CONSENT OBTAINED","disposition_records":[{"seq":"1","term":"INFORMED CONSENT OBTAINED","decod":"INFORMED CONSENT OBTAINED","cat":"PROTOCOL MILESTONE","scat":null,"dtc":"2024-02-29","dy":null,"visit":null,"epoch":"SCREENING"},{"seq":"2","term":"RANDOMIZED","decod":"RANDOMIZED","cat":"PROTOCOL MILESTONE","scat":null,"dtc":"2024-03-30","dy":null,"visit":null,"epoch":"TREATMENT"},{"seq":"3","term":"PHYSICIAN DECISION","decod":"PHYSICIAN DECISION","cat":"DISPOSITION EVENT","scat":null,"dtc":"2024-03-31","dy":null,"visit":null,"epoch":"TREATMENT"}],"death":null},"section_13_hospitalizations":{"items":[],"total":0},"section_14_substance_use":{"items":[{"seq":"1","substance":"ALCOHOL","decod":"ALCOHOL","cat":"ALCOHOL","scat":null,"usage":"Y","dose":"4.0","dosu":"DRINKS/WEEK","freq":"QW","start_dtc":"2004-03-05","end_dtc":null},{"seq":"2","substance":"COFFEE","decod":"COFFEE","cat":"CAFFEINE","scat":null,"usage":"Y","dose":"4.0","dosu":"CUPS/DAY","freq":"QD","start_dtc":"2023-03-01","end_dtc":null},{"seq":"3","substance":"CIGARETTES","decod":"CIGARETTES","cat":"TOBACCO","scat":"CIGARETTES","usage":"N","dose":null,"dosu":null,"freq":null,"start_dtc":null,"end_dtc":null}],"total":3},"section_15_subject_status":{"items":[{"seq":"1","testcd":"SURVSTAT","test":"Survival Status","orres":"ALIVE","stresc":"ALIVE","dtc":"2024-03-31","visit":"END OF STUDY","epoch":"FOLLOW-UP"}],"total":1}}