{"subject_id":"GB001-ASTHMA-201-SITE003-0276","study_id":"GB001-ASTHMA-201","generated_at":"2026-06-16T07:22:56.307591+00:00","sdtmig_version":"3.4","flags":{"has_serious_ae":true,"has_fatal_ae":false,"has_protocol_deviation":true,"n_protocol_deviations":8,"n_adverse_events":3,"n_concomitant_meds":1,"max_ae_severity":"SEVERE","screen_failure":false,"discontinued_early":false,"discontinuation_reason":null,"death":false,"exposure_days":31},"timeline":[{"dtc":"2024-01-17","dy":"-23","event":"INFORMED CONSENT OBTAINED","domain":"DS","category":"milestone"},{"dtc":"2024-02-03","dy":"-6","event":"VISIT: SCREENING","domain":"SV","category":"visit"},{"dtc":"2024-02-09","dy":"1","event":"RANDOMIZED","domain":"DS","category":"milestone"},{"dtc":"2024-02-09","dy":"1","event":"FIRST DOSE: GB001","domain":"EX","category":"exposure"},{"dtc":"2024-02-09","dy":"1","event":"DEVIATION: MISSED DOSE","domain":"DV","category":"deviation"},{"dtc":"2024-02-09","dy":"1","event":"VISIT: BASELINE","domain":"SV","category":"visit"},{"dtc":"2024-02-10","dy":"2","event":"DEVIATION: MISSED DOSE","domain":"DV","category":"deviation"},{"dtc":"2024-02-11","dy":"3","event":"DEVIATION: MISSED DOSE","domain":"DV","category":"deviation"},{"dtc":"2024-02-16","dy":"8","event":"DEVIATION: MISSED DOSE","domain":"DV","category":"deviation"},{"dtc":"2024-02-17","dy":"9","event":"DEVIATION: MISSED DOSE","domain":"DV","category":"deviation"},{"dtc":"2024-02-20","dy":"12","event":"AE: Headache (SEVERE) [SERIOUS]","domain":"AE","category":"adverse_event"},{"dtc":"2024-02-25","dy":"17","event":"DEVIATION: VISIT OCCURRED OUTSIDE VISIT WINDOW","domain":"DV","category":"deviation"},{"dtc":"2024-02-25","dy":"17","event":"VISIT: WEEK 2","domain":"SV","category":"visit"},{"dtc":"2024-02-26","dy":"18","event":"AE: Cough (MILD)","domain":"AE","category":"adverse_event"},{"dtc":"2024-02-26","dy":"18","event":"CM START: DEXTROMETHORPHAN","domain":"CM","category":"concomitant_med"},{"dtc":"2024-03-06","dy":"27","event":"DEVIATION: MISSED ASSESSMENT","domain":"DV","category":"deviation"},{"dtc":"2024-03-06","dy":"27","event":"VISIT: WEEK 4","domain":"SV","category":"visit"},{"dtc":"2024-03-11","dy":"32","event":"LAST DOSE: GB001","domain":"EX","category":"exposure"},{"dtc":"2024-03-13","dy":"34","event":"AE: Cytokine release syndrome (MODERATE)","domain":"AE","category":"adverse_event"},{"dtc":"2024-04-08","dy":"60","event":"VISIT: WEEK 8","domain":"SV","category":"visit"},{"dtc":"2024-05-04","dy":"86","event":"DEVIATION: VISIT OCCURRED OUTSIDE VISIT WINDOW","domain":"DV","category":"deviation"},{"dtc":"2024-05-04","dy":"86","event":"VISIT: WEEK 12","domain":"SV","category":"visit"},{"dtc":"2024-06-07","dy":"120","event":"VISIT: FOLLOW-UP","domain":"SV","category":"visit"},{"dtc":"2024-06-27","dy":"140","event":"COMPLETED","domain":"DS","category":"milestone"}],"section_1_demographics":{"usubjid":"GB001-ASTHMA-201-SITE003-0276","subjid":"0276","siteid":"SITE003","age":"42","ageu":"YEARS","sex":"F","race":"WHITE","ethnicity":"NOT HISPANIC OR LATINO","country":"USA","arm":"GB001 40mg QD","armcd":"GB40","actarm":"GB001 40mg QD","actarmcd":"GB40","randomization_date":null,"informed_consent_date":"2024-01-17","reference_start_date":"2024-02-09","reference_end_date":"2024-06-27","screen_failure":false,"death_flag":null,"death_date":null,"subject_characteristics":[{"testcd":"ALCUSE","test":"Alcohol Use","orres":"NON-DRINKER","stresc":"NON-DRINKER","visit":null,"dtc":"2024-01-17"},{"testcd":"BMI","test":"Body Mass Index","orres":"44.1","stresc":"44.1","visit":null,"dtc":"2024-01-17"},{"testcd":"DURDIS","test":"Duration of Disease","orres":"109 months","stresc":"109","visit":null,"dtc":"2024-01-17"},{"testcd":"TOBPKYR","test":"Tobacco Pack-Years","orres":"6","stresc":"6","visit":null,"dtc":"2024-01-17"},{"testcd":"TOBUSE","test":"Tobacco Use","orres":"FORMER SMOKER","stresc":"FORMER SMOKER","visit":null,"dtc":"2024-01-17"}]},"section_2_medical_history":{"items":[{"seq":"1","term":"ASTHMA","decod":"ASTHMA","cat":"RESPIRATORY","scat":null,"presp":null,"occur":null,"status":null,"onset_dtc":"2016-01-19","end_dtc":"2022-11-06","visit":null},{"seq":"2","term":"DEPRESSION","decod":"DEPRESSION","cat":"PSYCHIATRIC","scat":null,"presp":null,"occur":null,"status":null,"onset_dtc":"2022-01-17","end_dtc":"2023-08-20","visit":null},{"seq":"3","term":"DIABETES MELLITUS TYPE 2","decod":"DIABETES MELLITUS TYPE 2","cat":"ENDOCRINE","scat":null,"presp":null,"occur":null,"status":null,"onset_dtc":"2015-01-19","end_dtc":"2022-04-29","visit":null},{"seq":"4","term":"GASTROESOPHAGEAL REFLUX DISEASE","decod":"GASTROESOPHAGEAL REFLUX DISEASE","cat":"GASTROINTESTINAL","scat":null,"presp":null,"occur":null,"status":null,"onset_dtc":"2023-01-17","end_dtc":"2023-10-27","visit":null},{"seq":"5","term":"HYPERLIPIDEMIA","decod":"HYPERLIPIDEMIA","cat":"METABOLIC","scat":null,"presp":null,"occur":null,"status":null,"onset_dtc":"2023-01-17","end_dtc":"2023-07-27","visit":null}]},"section_3_inclusion_exclusion":{"criteria":[]},"section_4_trial_participation":{"visits":[{"visitnum":"1.0","visit":"SCREENING","start_dtc":"2024-02-03","end_dtc":"2024-02-03","updes":null},{"visitnum":"2.0","visit":"BASELINE","start_dtc":"2024-02-09","end_dtc":"2024-02-09","updes":null},{"visitnum":"3.0","visit":"WEEK 2","start_dtc":"2024-02-25","end_dtc":"2024-02-25","updes":null},{"visitnum":"4.0","visit":"WEEK 4","start_dtc":"2024-03-06","end_dtc":"2024-03-06","updes":null},{"visitnum":"5.0","visit":"WEEK 8","start_dtc":"2024-04-08","end_dtc":"2024-04-08","updes":null},{"visitnum":"6.0","visit":"WEEK 12","start_dtc":"2024-05-04","end_dtc":"2024-05-04","updes":null},{"visitnum":"7.0","visit":"FOLLOW-UP","start_dtc":"2024-06-07","end_dtc":"2024-06-07","updes":null}],"epochs":[{"seq":"1","etcd":"SCRN","element":"Screening","start_dtc":"2024-01-12","end_dtc":"2024-02-09","updes":null},{"seq":"2","etcd":"TRT","element":"Treatment","start_dtc":"2024-02-09","end_dtc":"2024-05-03","updes":null},{"seq":"3","etcd":"FU","element":"Follow-up","start_dtc":"2024-05-03","end_dtc":"2024-05-30","updes":null}],"visit_count":7},"section_5_concomitant_medications":{"medications":[{"seq":"1","trt":"DEXTROMETHORPHAN","decod":"DEXTROMETHORPHAN","cat":"CONCOMITANT","dose":"30.0","doseu":null,"dosef":"QID","route":"ORAL","indication":"COUGH","start_dtc":"2024-02-26","end_dtc":"2024-03-02","ongoing":null,"visit":null}]},"section_6_exposure":{"exposure_as_administered":[{"seq":"1","trt":"GB001","dose":"40.0","doseu":null,"dosef":"QD","route":"ORAL","lot":null,"start_dtc":"2024-02-09","end_dtc":"2024-02-19","start_dy":"1","end_dy":"11","epoch":"TREATMENT","visit":null},{"seq":"2","trt":"GB001","dose":"40.0","doseu":null,"dosef":"QD","route":"ORAL","lot":null,"start_dtc":"2024-03-04","end_dtc":"2024-03-11","start_dy":"25","end_dy":"32","epoch":"TREATMENT","visit":null}],"exposure_as_collected":[{"seq":"1","trt":"GB001","dose":null,"doseu":null,"dosef":"QD","route":"ORAL","start_dtc":"2024-02-09","end_dtc":"2024-02-09","visit":"BASELINE"},{"seq":"2","trt":"GB001","dose":null,"doseu":null,"dosef":"QD","route":"ORAL","start_dtc":"2024-02-10","end_dtc":"2024-02-10","visit":"BASELINE"},{"seq":"3","trt":"GB001","dose":null,"doseu":null,"dosef":"QD","route":"ORAL","start_dtc":"2024-02-11","end_dtc":"2024-02-11","visit":"BASELINE"},{"seq":"4","trt":"GB001","dose":"40.0","doseu":null,"dosef":"QD","route":"ORAL","start_dtc":"2024-02-12","end_dtc":"2024-02-12","visit":"BASELINE"},{"seq":"5","trt":"GB001","dose":"40.0","doseu":null,"dosef":"QD","route":"ORAL","start_dtc":"2024-02-13","end_dtc":"2024-02-13","visit":null},{"seq":"6","trt":"GB001","dose":"40.0","doseu":null,"dosef":"QD","route":"ORAL","start_dtc":"2024-02-14","end_dtc":"2024-02-14","visit":null},{"seq":"7","trt":"GB001","dose":"40.0","doseu":null,"dosef":"QD","route":"ORAL","start_dtc":"2024-02-15","end_dtc":"2024-02-15","visit":null},{"seq":"8","trt":"GB001","dose":null,"doseu":null,"dosef":"QD","route":"ORAL","start_dtc":"2024-02-16","end_dtc":"2024-02-16","visit":null},{"seq":"9","trt":"GB001","dose":null,"doseu":null,"dosef":"QD","route":"ORAL","start_dtc":"2024-02-17","end_dtc":"2024-02-17","visit":null},{"seq":"10","trt":"GB001","dose":"40.0","doseu":null,"dosef":"QD","route":"ORAL","start_dtc":"2024-02-18","end_dtc":"2024-02-18","visit":null},{"seq":"11","trt":"GB001","dose":"40.0","doseu":null,"dosef":"QD","route":"ORAL","start_dtc":"2024-02-19","end_dtc":"2024-02-19","visit":null},{"seq":"12","trt":"GB001","dose":"40.0","doseu":null,"dosef":"QD","route":"ORAL","start_dtc":"2024-03-04","end_dtc":"2024-03-04","visit":null},{"seq":"13","trt":"GB001","dose":"40.0","doseu":null,"dosef":"QD","route":"ORAL","start_dtc":"2024-03-05","end_dtc":"2024-03-05","visit":"WEEK 4"},{"seq":"14","trt":"GB001","dose":"40.0","doseu":null,"dosef":"QD","route":"ORAL","start_dtc":"2024-03-06","end_dtc":"2024-03-06","visit":"WEEK 4"},{"seq":"15","trt":"GB001","dose":"40.0","doseu":null,"dosef":"QD","route":"ORAL","start_dtc":"2024-03-07","end_dtc":"2024-03-07","visit":"WEEK 4"},{"seq":"16","trt":"GB001","dose":"40.0","doseu":null,"dosef":"QD","route":"ORAL","start_dtc":"2024-03-08","end_dtc":"2024-03-08","visit":"WEEK 4"},{"seq":"17","trt":"GB001","dose":"40.0","doseu":null,"dosef":"QD","route":"ORAL","start_dtc":"2024-03-09","end_dtc":"2024-03-09","visit":"WEEK 4"},{"seq":"18","trt":"GB001","dose":"40.0","doseu":null,"dosef":"QD","route":"ORAL","start_dtc":"2024-03-10","end_dtc":"2024-03-10","visit":"WEEK 4"},{"seq":"19","trt":"GB001","dose":"40.0","doseu":null,"dosef":"QD","route":"ORAL","start_dtc":"2024-03-11","end_dtc":"2024-03-11","visit":"WEEK 4"}]},"section_7_adverse_events":{"summary":{"total_aes":3,"serious_aes":1,"fatal_aes":0,"by_severity":{"SEVERE":1,"MILD":1,"MODERATE":1},"by_soc":{"Nervous system disorders":1,"Respiratory, thoracic and mediastinal disorders":1,"Immune system disorders":1}},"events":[{"seq":"1","term":"HEADACHE","decod":"Headache","llt":"Headache","hlt":"Headaches NEC","hlgt":"Headaches","soc":"Nervous system disorders","bodsys":"Nervous system disorders","severity":"SEVERE","serious":"Y","causality":"PROBABLY RELATED","action_taken":"DRUG INTERRUPTED","outcome":"RECOVERED/RESOLVED WITH SEQUELAE","fatal":"N","hospitalization":"Y","life_threatening":"N","onset_dtc":"2024-02-20","end_dtc":"2024-03-04","onset_dy":"12","end_dy":"25","duration":null,"epoch":"TREATMENT","visit":null,"supplemental":{"AETRTEM":"Y"}},{"seq":"2","term":"COUGH","decod":"Cough","llt":"Cough","hlt":"Coughing and associated symptoms","hlgt":"Respiratory tract signs and symptoms","soc":"Respiratory, thoracic and mediastinal disorders","bodsys":"Respiratory, thoracic and mediastinal disorders","severity":"MILD","serious":"N","causality":"NOT RELATED","action_taken":"DOSE NOT CHANGED","outcome":"RECOVERED/RESOLVED","fatal":"N","hospitalization":"N","life_threatening":"N","onset_dtc":"2024-02-26","end_dtc":"2024-03-01","onset_dy":"18","end_dy":"22","duration":null,"epoch":"TREATMENT","visit":null,"supplemental":{"AETRTEM":"Y"}},{"seq":"3","term":"CYTOKINE RELEASE SYNDROME","decod":"Cytokine release syndrome","llt":"Cytokine release syndrome","hlt":"Immune and associated conditions NEC","hlgt":"Autoimmune disorders","soc":"Immune system disorders","bodsys":"Immune system disorders","severity":"MODERATE","serious":"N","causality":"POSSIBLY RELATED","action_taken":"DOSE NOT CHANGED","outcome":"RECOVERED/RESOLVED","fatal":"N","hospitalization":"N","life_threatening":"N","onset_dtc":"2024-03-13","end_dtc":"2024-04-05","onset_dy":"34","end_dy":"57","duration":null,"epoch":"TREATMENT","visit":null,"supplemental":{"AETRTEM":"Y"}}]},"section_8_laboratory_results":{"summary":{"total_records":49,"abnormal_count":14,"abnormal_pct":28.6},"shift_summary":[{"testcd":"ALT","baseline_value":26.59,"baseline_nrind":"NORMAL","worst_post_baseline_value":27.74,"worst_post_baseline_nrind":"NORMAL","worst_visit":"WEEK 2"},{"testcd":"AST","baseline_value":15.94,"baseline_nrind":"NORMAL","worst_post_baseline_value":17.68,"worst_post_baseline_nrind":"NORMAL","worst_visit":"FOLLOW-UP"},{"testcd":"CREAT","baseline_value":67.81,"baseline_nrind":"NORMAL","worst_post_baseline_value":68.36,"worst_post_baseline_nrind":"NORMAL","worst_visit":"WEEK 2"},{"testcd":"GLUC","baseline_value":6.94,"baseline_nrind":"HIGH","worst_post_baseline_value":7.08,"worst_post_baseline_nrind":"HIGH","worst_visit":"WEEK 4"},{"testcd":"HGB","baseline_value":131.77,"baseline_nrind":"NORMAL","worst_post_baseline_value":128.63,"worst_post_baseline_nrind":"NORMAL","worst_visit":"FOLLOW-UP"},{"testcd":"PLAT","baseline_value":148.02,"baseline_nrind":"LOW","worst_post_baseline_value":146.78,"worst_post_baseline_nrind":"LOW","worst_visit":"WEEK 12"},{"testcd":"WBC","baseline_value":6.49,"baseline_nrind":"NORMAL","worst_post_baseline_value":6.34,"worst_post_baseline_nrind":"NORMAL","worst_visit":"WEEK 4"}],"results":[{"seq":"1","testcd":"ALT","test":"Alanine Aminotransferase","cat":"CHEMISTRY","orres":"26.59","orresu":"U/L","stresc":"26.59","stresn":"26.59","stresu":"U/L","stnrlo":"7","stnrhi":"56","nrind":"NORMAL","fast":null,"dtc":"2024-02-03","dy":"-6","visit":"SCREENING","visitnum":"1.0","epoch":"SCREENING","spec":null,"method":null},{"seq":"2","testcd":"AST","test":"Aspartate Aminotransferase","cat":"CHEMISTRY","orres":"15.94","orresu":"U/L","stresc":"15.94","stresn":"15.94","stresu":"U/L","stnrlo":"10","stnrhi":"40","nrind":"NORMAL","fast":null,"dtc":"2024-02-03","dy":"-6","visit":"SCREENING","visitnum":"1.0","epoch":"SCREENING","spec":null,"method":null},{"seq":"3","testcd":"CREAT","test":"Creatinine","cat":"CHEMISTRY","orres":"67.81","orresu":"umol/L","stresc":"67.81","stresn":"67.81","stresu":"umol/L","stnrlo":"44","stnrhi":"80","nrind":"NORMAL","fast":null,"dtc":"2024-02-03","dy":"-6","visit":"SCREENING","visitnum":"1.0","epoch":"SCREENING","spec":null,"method":null},{"seq":"4","testcd":"GLUC","test":"Glucose","cat":"CHEMISTRY","orres":"6.94","orresu":"mmol/L","stresc":"6.94","stresn":"6.94","stresu":"mmol/L","stnrlo":"3.9","stnrhi":"5.6","nrind":"HIGH","fast":null,"dtc":"2024-02-03","dy":"-6","visit":"SCREENING","visitnum":"1.0","epoch":"SCREENING","spec":null,"method":null},{"seq":"5","testcd":"HGB","test":"Hemoglobin","cat":"HEMATOLOGY","orres":null,"orresu":null,"stresc":null,"stresn":null,"stresu":null,"stnrlo":null,"stnrhi":null,"nrind":null,"fast":null,"dtc":"2024-02-03","dy":"-6","visit":"SCREENING","visitnum":"1.0","epoch":"SCREENING","spec":null,"method":null},{"seq":"6","testcd":"PLAT","test":"Platelets","cat":"HEMATOLOGY","orres":"148.02","orresu":"10^9/L","stresc":"148.02","stresn":"148.02","stresu":"10^9/L","stnrlo":"150","stnrhi":"400","nrind":"LOW","fast":null,"dtc":"2024-02-03","dy":"-6","visit":"SCREENING","visitnum":"1.0","epoch":"SCREENING","spec":null,"method":null},{"seq":"7","testcd":"WBC","test":"Leukocytes","cat":"HEMATOLOGY","orres":"6.49","orresu":"10^9/L","stresc":"6.49","stresn":"6.49","stresu":"10^9/L","stnrlo":"4.0","stnrhi":"11.0","nrind":"NORMAL","fast":null,"dtc":"2024-02-03","dy":"-6","visit":"SCREENING","visitnum":"1.0","epoch":"SCREENING","spec":null,"method":null},{"seq":"8","testcd":"ALT","test":"Alanine Aminotransferase","cat":"CHEMISTRY","orres":"27.49","orresu":"U/L","stresc":"27.49","stresn":"27.49","stresu":"U/L","stnrlo":"7","stnrhi":"56","nrind":"NORMAL","fast":null,"dtc":"2024-02-09","dy":"1","visit":"BASELINE","visitnum":"2.0","epoch":"TREATMENT","spec":null,"method":null},{"seq":"9","testcd":"AST","test":"Aspartate Aminotransferase","cat":"CHEMISTRY","orres":"17.26","orresu":"U/L","stresc":"17.26","stresn":"17.26","stresu":"U/L","stnrlo":"10","stnrhi":"40","nrind":"NORMAL","fast":null,"dtc":"2024-02-09","dy":"1","visit":"BASELINE","visitnum":"2.0","epoch":"TREATMENT","spec":null,"method":null},{"seq":"10","testcd":"CREAT","test":"Creatinine","cat":"CHEMISTRY","orres":"67.63","orresu":"umol/L","stresc":"67.63","stresn":"67.63","stresu":"umol/L","stnrlo":"44","stnrhi":"80","nrind":"NORMAL","fast":null,"dtc":"2024-02-09","dy":"1","visit":"BASELINE","visitnum":"2.0","epoch":"TREATMENT","spec":null,"method":null},{"seq":"11","testcd":"GLUC","test":"Glucose","cat":"CHEMISTRY","orres":"6.95","orresu":"mmol/L","stresc":"6.95","stresn":"6.95","stresu":"mmol/L","stnrlo":"3.9","stnrhi":"5.6","nrind":"HIGH","fast":null,"dtc":"2024-02-09","dy":"1","visit":"BASELINE","visitnum":"2.0","epoch":"TREATMENT","spec":null,"method":null},{"seq":"12","testcd":"HGB","test":"Hemoglobin","cat":"HEMATOLOGY","orres":"131.77","orresu":"g/L","stresc":"131.77","stresn":"131.77","stresu":"g/L","stnrlo":"120","stnrhi":"155","nrind":"NORMAL","fast":null,"dtc":"2024-02-09","dy":"1","visit":"BASELINE","visitnum":"2.0","epoch":"TREATMENT","spec":null,"method":null},{"seq":"13","testcd":"PLAT","test":"Platelets","cat":"HEMATOLOGY","orres":"131.2","orresu":"10^9/L","stresc":"131.2","stresn":"131.2","stresu":"10^9/L","stnrlo":"150","stnrhi":"400","nrind":"LOW","fast":null,"dtc":"2024-02-09","dy":"1","visit":"BASELINE","visitnum":"2.0","epoch":"TREATMENT","spec":null,"method":null},{"seq":"14","testcd":"WBC","test":"Leukocytes","cat":"HEMATOLOGY","orres":"6.01","orresu":"10^9/L","stresc":"6.01","stresn":"6.01","stresu":"10^9/L","stnrlo":"4.0","stnrhi":"11.0","nrind":"NORMAL","fast":null,"dtc":"2024-02-09","dy":"1","visit":"BASELINE","visitnum":"2.0","epoch":"TREATMENT","spec":null,"method":null},{"seq":"15","testcd":"ALT","test":"Alanine Aminotransferase","cat":"CHEMISTRY","orres":"27.74","orresu":"U/L","stresc":"27.74","stresn":"27.74","stresu":"U/L","stnrlo":"7","stnrhi":"56","nrind":"NORMAL","fast":null,"dtc":"2024-02-25","dy":"17","visit":"WEEK 2","visitnum":"3.0","epoch":"TREATMENT","spec":null,"method":null},{"seq":"16","testcd":"AST","test":"Aspartate Aminotransferase","cat":"CHEMISTRY","orres":"15.68","orresu":"U/L","stresc":"15.68","stresn":"15.68","stresu":"U/L","stnrlo":"10","stnrhi":"40","nrind":"NORMAL","fast":null,"dtc":"2024-02-25","dy":"17","visit":"WEEK 2","visitnum":"3.0","epoch":"TREATMENT","spec":null,"method":null},{"seq":"17","testcd":"CREAT","test":"Creatinine","cat":"CHEMISTRY","orres":"68.36","orresu":"umol/L","stresc":"68.36","stresn":"68.36","stresu":"umol/L","stnrlo":"44","stnrhi":"80","nrind":"NORMAL","fast":null,"dtc":"2024-02-25","dy":"17","visit":"WEEK 2","visitnum":"3.0","epoch":"TREATMENT","spec":null,"method":null},{"seq":"18","testcd":"GLUC","test":"Glucose","cat":"CHEMISTRY","orres":"7.06","orresu":"mmol/L","stresc":"7.06","stresn":"7.06","stresu":"mmol/L","stnrlo":"3.9","stnrhi":"5.6","nrind":"HIGH","fast":null,"dtc":"2024-02-25","dy":"17","visit":"WEEK 2","visitnum":"3.0","epoch":"TREATMENT","spec":null,"method":null},{"seq":"19","testcd":"HGB","test":"Hemoglobin","cat":"HEMATOLOGY","orres":"130.15","orresu":"g/L","stresc":"130.15","stresn":"130.15","stresu":"g/L","stnrlo":"120","stnrhi":"155","nrind":"NORMAL","fast":null,"dtc":"2024-02-25","dy":"17","visit":"WEEK 2","visitnum":"3.0","epoch":"TREATMENT","spec":null,"method":null},{"seq":"20","testcd":"PLAT","test":"Platelets","cat":"HEMATOLOGY","orres":"130.96","orresu":"10^9/L","stresc":"130.96","stresn":"130.96","stresu":"10^9/L","stnrlo":"150","stnrhi":"400","nrind":"LOW","fast":null,"dtc":"2024-02-25","dy":"17","visit":"WEEK 2","visitnum":"3.0","epoch":"TREATMENT","spec":null,"method":null},{"seq":"21","testcd":"WBC","test":"Leukocytes","cat":"HEMATOLOGY","orres":"5.93","orresu":"10^9/L","stresc":"5.93","stresn":"5.93","stresu":"10^9/L","stnrlo":"4.0","stnrhi":"11.0","nrind":"NORMAL","fast":null,"dtc":"2024-02-25","dy":"17","visit":"WEEK 2","visitnum":"3.0","epoch":"TREATMENT","spec":null,"method":null},{"seq":"22","testcd":"ALT","test":"Alanine Aminotransferase","cat":"CHEMISTRY","orres":"27.01","orresu":"U/L","stresc":"27.01","stresn":"27.01","stresu":"U/L","stnrlo":"7","stnrhi":"56","nrind":"NORMAL","fast":null,"dtc":"2024-03-06","dy":"27","visit":"WEEK 4","visitnum":"4.0","epoch":"TREATMENT","spec":null,"method":null},{"seq":"23","testcd":"AST","test":"Aspartate Aminotransferase","cat":"CHEMISTRY","orres":"15.75","orresu":"U/L","stresc":"15.75","stresn":"15.75","stresu":"U/L","stnrlo":"10","stnrhi":"40","nrind":"NORMAL","fast":null,"dtc":"2024-03-06","dy":"27","visit":"WEEK 4","visitnum":"4.0","epoch":"TREATMENT","spec":null,"method":null},{"seq":"24","testcd":"CREAT","test":"Creatinine","cat":"CHEMISTRY","orres":"66.04","orresu":"umol/L","stresc":"66.04","stresn":"66.04","stresu":"umol/L","stnrlo":"44","stnrhi":"80","nrind":"NORMAL","fast":null,"dtc":"2024-03-06","dy":"27","visit":"WEEK 4","visitnum":"4.0","epoch":"TREATMENT","spec":null,"method":null},{"seq":"25","testcd":"GLUC","test":"Glucose","cat":"CHEMISTRY","orres":"7.08","orresu":"mmol/L","stresc":"7.08","stresn":"7.08","stresu":"mmol/L","stnrlo":"3.9","stnrhi":"5.6","nrind":"HIGH","fast":null,"dtc":"2024-03-06","dy":"27","visit":"WEEK 4","visitnum":"4.0","epoch":"TREATMENT","spec":null,"method":null},{"seq":"26","testcd":"HGB","test":"Hemoglobin","cat":"HEMATOLOGY","orres":"130.44","orresu":"g/L","stresc":"130.44","stresn":"130.44","stresu":"g/L","stnrlo":"120","stnrhi":"155","nrind":"NORMAL","fast":null,"dtc":"2024-03-06","dy":"27","visit":"WEEK 4","visitnum":"4.0","epoch":"TREATMENT","spec":null,"method":null},{"seq":"27","testcd":"PLAT","test":"Platelets","cat":"HEMATOLOGY","orres":"134.2","orresu":"10^9/L","stresc":"134.2","stresn":"134.2","stresu":"10^9/L","stnrlo":"150","stnrhi":"400","nrind":"LOW","fast":null,"dtc":"2024-03-06","dy":"27","visit":"WEEK 4","visitnum":"4.0","epoch":"TREATMENT","spec":null,"method":null},{"seq":"28","testcd":"WBC","test":"Leukocytes","cat":"HEMATOLOGY","orres":"6.34","orresu":"10^9/L","stresc":"6.34","stresn":"6.34","stresu":"10^9/L","stnrlo":"4.0","stnrhi":"11.0","nrind":"NORMAL","fast":null,"dtc":"2024-03-06","dy":"27","visit":"WEEK 4","visitnum":"4.0","epoch":"TREATMENT","spec":null,"method":null},{"seq":"29","testcd":"ALT","test":"Alanine Aminotransferase","cat":"CHEMISTRY","orres":"27.57","orresu":"U/L","stresc":"27.57","stresn":"27.57","stresu":"U/L","stnrlo":"7","stnrhi":"56","nrind":"NORMAL","fast":null,"dtc":"2024-04-08","dy":"60","visit":"WEEK 8","visitnum":"5.0","epoch":"TREATMENT","spec":null,"method":null},{"seq":"30","testcd":"AST","test":"Aspartate Aminotransferase","cat":"CHEMISTRY","orres":"15.98","orresu":"U/L","stresc":"15.98","stresn":"15.98","stresu":"U/L","stnrlo":"10","stnrhi":"40","nrind":"NORMAL","fast":null,"dtc":"2024-04-08","dy":"60","visit":"WEEK 8","visitnum":"5.0","epoch":"TREATMENT","spec":null,"method":null},{"seq":"31","testcd":"CREAT","test":"Creatinine","cat":"CHEMISTRY","orres":"64.6","orresu":"umol/L","stresc":"64.6","stresn":"64.6","stresu":"umol/L","stnrlo":"44","stnrhi":"80","nrind":"NORMAL","fast":null,"dtc":"2024-04-08","dy":"60","visit":"WEEK 8","visitnum":"5.0","epoch":"TREATMENT","spec":null,"method":null},{"seq":"32","testcd":"GLUC","test":"Glucose","cat":"CHEMISTRY","orres":"7.03","orresu":"mmol/L","stresc":"7.03","stresn":"7.03","stresu":"mmol/L","stnrlo":"3.9","stnrhi":"5.6","nrind":"HIGH","fast":null,"dtc":"2024-04-08","dy":"60","visit":"WEEK 8","visitnum":"5.0","epoch":"TREATMENT","spec":null,"method":null},{"seq":"33","testcd":"HGB","test":"Hemoglobin","cat":"HEMATOLOGY","orres":null,"orresu":null,"stresc":null,"stresn":null,"stresu":null,"stnrlo":null,"stnrhi":null,"nrind":null,"fast":null,"dtc":"2024-04-08","dy":"60","visit":"WEEK 8","visitnum":"5.0","epoch":"TREATMENT","spec":null,"method":null},{"seq":"34","testcd":"PLAT","test":"Platelets","cat":"HEMATOLOGY","orres":"133.26","orresu":"10^9/L","stresc":"133.26","stresn":"133.26","stresu":"10^9/L","stnrlo":"150","stnrhi":"400","nrind":"LOW","fast":null,"dtc":"2024-04-08","dy":"60","visit":"WEEK 8","visitnum":"5.0","epoch":"TREATMENT","spec":null,"method":null},{"seq":"35","testcd":"WBC","test":"Leukocytes","cat":"HEMATOLOGY","orres":"6.22","orresu":"10^9/L","stresc":"6.22","stresn":"6.22","stresu":"10^9/L","stnrlo":"4.0","stnrhi":"11.0","nrind":"NORMAL","fast":null,"dtc":"2024-04-08","dy":"60","visit":"WEEK 8","visitnum":"5.0","epoch":"TREATMENT","spec":null,"method":null},{"seq":"36","testcd":"ALT","test":"Alanine Aminotransferase","cat":"CHEMISTRY","orres":"25.72","orresu":"U/L","stresc":"25.72","stresn":"25.72","stresu":"U/L","stnrlo":"7","stnrhi":"56","nrind":"NORMAL","fast":null,"dtc":"2024-05-04","dy":"86","visit":"WEEK 12","visitnum":"6.0","epoch":"TREATMENT","spec":null,"method":null},{"seq":"37","testcd":"AST","test":"Aspartate Aminotransferase","cat":"CHEMISTRY","orres":"17.37","orresu":"U/L","stresc":"17.37","stresn":"17.37","stresu":"U/L","stnrlo":"10","stnrhi":"40","nrind":"NORMAL","fast":null,"dtc":"2024-05-04","dy":"86","visit":"WEEK 12","visitnum":"6.0","epoch":"TREATMENT","spec":null,"method":null},{"seq":"38","testcd":"CREAT","test":"Creatinine","cat":"CHEMISTRY","orres":"65.28","orresu":"umol/L","stresc":"65.28","stresn":"65.28","stresu":"umol/L","stnrlo":"44","stnrhi":"80","nrind":"NORMAL","fast":null,"dtc":"2024-05-04","dy":"86","visit":"WEEK 12","visitnum":"6.0","epoch":"TREATMENT","spec":null,"method":null},{"seq":"39","testcd":"GLUC","test":"Glucose","cat":"CHEMISTRY","orres":"7.0","orresu":"mmol/L","stresc":"7.0","stresn":"7.0","stresu":"mmol/L","stnrlo":"3.9","stnrhi":"5.6","nrind":"HIGH","fast":null,"dtc":"2024-05-04","dy":"86","visit":"WEEK 12","visitnum":"6.0","epoch":"TREATMENT","spec":null,"method":null},{"seq":"40","testcd":"HGB","test":"Hemoglobin","cat":"HEMATOLOGY","orres":"129.72","orresu":"g/L","stresc":"129.72","stresn":"129.72","stresu":"g/L","stnrlo":"120","stnrhi":"155","nrind":"NORMAL","fast":null,"dtc":"2024-05-04","dy":"86","visit":"WEEK 12","visitnum":"6.0","epoch":"TREATMENT","spec":null,"method":null},{"seq":"41","testcd":"PLAT","test":"Platelets","cat":"HEMATOLOGY","orres":"146.78","orresu":"10^9/L","stresc":"146.78","stresn":"146.78","stresu":"10^9/L","stnrlo":"150","stnrhi":"400","nrind":"LOW","fast":null,"dtc":"2024-05-04","dy":"86","visit":"WEEK 12","visitnum":"6.0","epoch":"TREATMENT","spec":null,"method":null},{"seq":"42","testcd":"WBC","test":"Leukocytes","cat":"HEMATOLOGY","orres":"6.2","orresu":"10^9/L","stresc":"6.2","stresn":"6.2","stresu":"10^9/L","stnrlo":"4.0","stnrhi":"11.0","nrind":"NORMAL","fast":null,"dtc":"2024-05-04","dy":"86","visit":"WEEK 12","visitnum":"6.0","epoch":"TREATMENT","spec":null,"method":null},{"seq":"43","testcd":"ALT","test":"Alanine Aminotransferase","cat":"CHEMISTRY","orres":"24.82","orresu":"U/L","stresc":"24.82","stresn":"24.82","stresu":"U/L","stnrlo":"7","stnrhi":"56","nrind":"NORMAL","fast":null,"dtc":"2024-06-07","dy":"120","visit":"FOLLOW-UP","visitnum":"7.0","epoch":"FOLLOW-UP","spec":null,"method":null},{"seq":"44","testcd":"AST","test":"Aspartate Aminotransferase","cat":"CHEMISTRY","orres":"17.68","orresu":"U/L","stresc":"17.68","stresn":"17.68","stresu":"U/L","stnrlo":"10","stnrhi":"40","nrind":"NORMAL","fast":null,"dtc":"2024-06-07","dy":"120","visit":"FOLLOW-UP","visitnum":"7.0","epoch":"FOLLOW-UP","spec":null,"method":null},{"seq":"45","testcd":"CREAT","test":"Creatinine","cat":"CHEMISTRY","orres":"67.46","orresu":"umol/L","stresc":"67.46","stresn":"67.46","stresu":"umol/L","stnrlo":"44","stnrhi":"80","nrind":"NORMAL","fast":null,"dtc":"2024-06-07","dy":"120","visit":"FOLLOW-UP","visitnum":"7.0","epoch":"FOLLOW-UP","spec":null,"method":null},{"seq":"46","testcd":"GLUC","test":"Glucose","cat":"CHEMISTRY","orres":"7.03","orresu":"mmol/L","stresc":"7.03","stresn":"7.03","stresu":"mmol/L","stnrlo":"3.9","stnrhi":"5.6","nrind":"HIGH","fast":null,"dtc":"2024-06-07","dy":"120","visit":"FOLLOW-UP","visitnum":"7.0","epoch":"FOLLOW-UP","spec":null,"method":null},{"seq":"47","testcd":"HGB","test":"Hemoglobin","cat":"HEMATOLOGY","orres":"128.63","orresu":"g/L","stresc":"128.63","stresn":"128.63","stresu":"g/L","stnrlo":"120","stnrhi":"155","nrind":"NORMAL","fast":null,"dtc":"2024-06-07","dy":"120","visit":"FOLLOW-UP","visitnum":"7.0","epoch":"FOLLOW-UP","spec":null,"method":null},{"seq":"48","testcd":"PLAT","test":"Platelets","cat":"HEMATOLOGY","orres":"137.26","orresu":"10^9/L","stresc":"137.26","stresn":"137.26","stresu":"10^9/L","stnrlo":"150","stnrhi":"400","nrind":"LOW","fast":null,"dtc":"2024-06-07","dy":"120","visit":"FOLLOW-UP","visitnum":"7.0","epoch":"FOLLOW-UP","spec":null,"method":null},{"seq":"49","testcd":"WBC","test":"Leukocytes","cat":"HEMATOLOGY","orres":"5.38","orresu":"10^9/L","stresc":"5.38","stresn":"5.38","stresu":"10^9/L","stnrlo":"4.0","stnrhi":"11.0","nrind":"NORMAL","fast":null,"dtc":"2024-06-07","dy":"120","visit":"FOLLOW-UP","visitnum":"7.0","epoch":"FOLLOW-UP","spec":null,"method":null}]},"section_9_vital_signs":{"summary":{"total_records":56},"trends":{"BMI":[{"visit":"SCREENING","visitnum":"1.0","dtc":"2024-02-03","value":"44.1","unit":"kg/m2"},{"visit":"BASELINE","visitnum":"2.0","dtc":"2024-02-09","value":"44.7","unit":"kg/m2"},{"visit":"WEEK 2","visitnum":"3.0","dtc":"2024-02-25","value":"45.3","unit":"kg/m2"},{"visit":"WEEK 4","visitnum":"4.0","dtc":"2024-03-06","value":"46.1","unit":"kg/m2"},{"visit":"WEEK 8","visitnum":"5.0","dtc":"2024-04-08","value":"45.8","unit":"kg/m2"},{"visit":"WEEK 12","visitnum":"6.0","dtc":"2024-05-04","value":"44.6","unit":"kg/m2"},{"visit":"FOLLOW-UP","visitnum":"7.0","dtc":"2024-06-07","value":"44.2","unit":"kg/m2"}],"DIABP":[{"visit":"SCREENING","visitnum":"1.0","dtc":"2024-02-03","value":"83.9","unit":"mmHg"},{"visit":"BASELINE","visitnum":"2.0","dtc":"2024-02-09","value":"82.5","unit":"mmHg"},{"visit":"WEEK 2","visitnum":"3.0","dtc":"2024-02-25","value":"82.7","unit":"mmHg"},{"visit":"WEEK 4","visitnum":"4.0","dtc":"2024-03-06","value":"82.5","unit":"mmHg"},{"visit":"WEEK 8","visitnum":"5.0","dtc":"2024-04-08","value":"81.0","unit":"mmHg"},{"visit":"WEEK 12","visitnum":"6.0","dtc":"2024-05-04","value":"80.6","unit":"mmHg"},{"visit":"FOLLOW-UP","visitnum":"7.0","dtc":"2024-06-07","value":"79.7","unit":"mmHg"}],"HEIGHT":[{"visit":"SCREENING","visitnum":"1.0","dtc":"2024-02-03","value":"158.7","unit":"cm"},{"visit":"BASELINE","visitnum":"2.0","dtc":"2024-02-09","value":"157.9","unit":"cm"},{"visit":"WEEK 2","visitnum":"3.0","dtc":"2024-02-25","value":"156.8","unit":"cm"},{"visit":"WEEK 4","visitnum":"4.0","dtc":"2024-03-06","value":"156.9","unit":"cm"},{"visit":"WEEK 8","visitnum":"5.0","dtc":"2024-04-08","value":"155.6","unit":"cm"},{"visit":"WEEK 12","visitnum":"6.0","dtc":"2024-05-04","value":"155.7","unit":"cm"},{"visit":"FOLLOW-UP","visitnum":"7.0","dtc":"2024-06-07","value":"155.3","unit":"cm"}],"PULSE":[{"visit":"SCREENING","visitnum":"1.0","dtc":"2024-02-03","value":"68.6","unit":"beats/min"},{"visit":"BASELINE","visitnum":"2.0","dtc":"2024-02-09","value":"68.6","unit":"beats/min"},{"visit":"WEEK 2","visitnum":"3.0","dtc":"2024-02-25","value":"67.6","unit":"beats/min"},{"visit":"WEEK 8","visitnum":"5.0","dtc":"2024-04-08","value":"68.8","unit":"beats/min"},{"visit":"WEEK 12","visitnum":"6.0","dtc":"2024-05-04","value":"68.2","unit":"beats/min"},{"visit":"FOLLOW-UP","visitnum":"7.0","dtc":"2024-06-07","value":"70.2","unit":"beats/min"}],"RESP":[{"visit":"SCREENING","visitnum":"1.0","dtc":"2024-02-03","value":"20.2","unit":"breaths/min"},{"visit":"BASELINE","visitnum":"2.0","dtc":"2024-02-09","value":"19.9","unit":"breaths/min"},{"visit":"WEEK 2","visitnum":"3.0","dtc":"2024-02-25","value":"20.3","unit":"breaths/min"},{"visit":"WEEK 4","visitnum":"4.0","dtc":"2024-03-06","value":"22.0","unit":"breaths/min"},{"visit":"WEEK 8","visitnum":"5.0","dtc":"2024-04-08","value":"20.0","unit":"breaths/min"},{"visit":"WEEK 12","visitnum":"6.0","dtc":"2024-05-04","value":"18.5","unit":"breaths/min"},{"visit":"FOLLOW-UP","visitnum":"7.0","dtc":"2024-06-07","value":"18.8","unit":"breaths/min"}],"SYSBP":[{"visit":"SCREENING","visitnum":"1.0","dtc":"2024-02-03","value":"136.5","unit":"mmHg"},{"visit":"BASELINE","visitnum":"2.0","dtc":"2024-02-09","value":"135.5","unit":"mmHg"},{"visit":"WEEK 2","visitnum":"3.0","dtc":"2024-02-25","value":"136.8","unit":"mmHg"},{"visit":"WEEK 4","visitnum":"4.0","dtc":"2024-03-06","value":"133.1","unit":"mmHg"},{"visit":"WEEK 8","visitnum":"5.0","dtc":"2024-04-08","value":"132.6","unit":"mmHg"},{"visit":"WEEK 12","visitnum":"6.0","dtc":"2024-05-04","value":"134.0","unit":"mmHg"},{"visit":"FOLLOW-UP","visitnum":"7.0","dtc":"2024-06-07","value":"132.4","unit":"mmHg"}],"TEMP":[{"visit":"SCREENING","visitnum":"1.0","dtc":"2024-02-03","value":"36.8","unit":"C"},{"visit":"BASELINE","visitnum":"2.0","dtc":"2024-02-09","value":"36.6","unit":"C"},{"visit":"WEEK 2","visitnum":"3.0","dtc":"2024-02-25","value":"36.7","unit":"C"},{"visit":"WEEK 4","visitnum":"4.0","dtc":"2024-03-06","value":"36.7","unit":"C"},{"visit":"WEEK 8","visitnum":"5.0","dtc":"2024-04-08","value":"36.5","unit":"C"},{"visit":"WEEK 12","visitnum":"6.0","dtc":"2024-05-04","value":"36.8","unit":"C"},{"visit":"FOLLOW-UP","visitnum":"7.0","dtc":"2024-06-07","value":"36.5","unit":"C"}],"WEIGHT":[{"visit":"SCREENING","visitnum":"1.0","dtc":"2024-02-03","value":"111.1","unit":"kg"},{"visit":"BASELINE","visitnum":"2.0","dtc":"2024-02-09","value":"111.4","unit":"kg"},{"visit":"WEEK 2","visitnum":"3.0","dtc":"2024-02-25","value":"111.4","unit":"kg"},{"visit":"WEEK 4","visitnum":"4.0","dtc":"2024-03-06","value":"113.4","unit":"kg"},{"visit":"WEEK 8","visitnum":"5.0","dtc":"2024-04-08","value":"110.9","unit":"kg"},{"visit":"WEEK 12","visitnum":"6.0","dtc":"2024-05-04","value":"108.2","unit":"kg"},{"visit":"FOLLOW-UP","visitnum":"7.0","dtc":"2024-06-07","value":"106.5","unit":"kg"}]},"results":[{"seq":"1","testcd":"BMI","test":"BMI","cat":null,"orres":"44.1","orresu":"kg/m2","stresc":"44.1","stresn":"44.1","stresu":"kg/m2","stnrlo":null,"stnrhi":null,"nrind":null,"pos":null,"loc":null,"dtc":"2024-02-03","dy":"-6","visit":"SCREENING","visitnum":"1.0","epoch":"SCREENING"},{"seq":"2","testcd":"DIABP","test":"Diastolic Blood Pressure","cat":null,"orres":"83.9","orresu":"mmHg","stresc":"83.9","stresn":"83.9","stresu":"mmHg","stnrlo":null,"stnrhi":null,"nrind":null,"pos":null,"loc":null,"dtc":"2024-02-03","dy":"-6","visit":"SCREENING","visitnum":"1.0","epoch":"SCREENING"},{"seq":"3","testcd":"HEIGHT","test":"Height","cat":null,"orres":"158.7","orresu":"cm","stresc":"158.7","stresn":"158.7","stresu":"cm","stnrlo":null,"stnrhi":null,"nrind":null,"pos":null,"loc":null,"dtc":"2024-02-03","dy":"-6","visit":"SCREENING","visitnum":"1.0","epoch":"SCREENING"},{"seq":"4","testcd":"PULSE","test":"Pulse Rate","cat":null,"orres":"68.6","orresu":"beats/min","stresc":"68.6","stresn":"68.6","stresu":"beats/min","stnrlo":null,"stnrhi":null,"nrind":null,"pos":null,"loc":null,"dtc":"2024-02-03","dy":"-6","visit":"SCREENING","visitnum":"1.0","epoch":"SCREENING"},{"seq":"5","testcd":"RESP","test":"Respiratory Rate","cat":null,"orres":"20.2","orresu":"breaths/min","stresc":"20.2","stresn":"20.2","stresu":"breaths/min","stnrlo":null,"stnrhi":null,"nrind":null,"pos":null,"loc":null,"dtc":"2024-02-03","dy":"-6","visit":"SCREENING","visitnum":"1.0","epoch":"SCREENING"},{"seq":"6","testcd":"SYSBP","test":"Systolic Blood Pressure","cat":null,"orres":"136.5","orresu":"mmHg","stresc":"136.5","stresn":"136.5","stresu":"mmHg","stnrlo":null,"stnrhi":null,"nrind":null,"pos":null,"loc":null,"dtc":"2024-02-03","dy":"-6","visit":"SCREENING","visitnum":"1.0","epoch":"SCREENING"},{"seq":"7","testcd":"TEMP","test":"Temperature","cat":null,"orres":"36.8","orresu":"C","stresc":"36.8","stresn":"36.8","stresu":"C","stnrlo":null,"stnrhi":null,"nrind":null,"pos":null,"loc":null,"dtc":"2024-02-03","dy":"-6","visit":"SCREENING","visitnum":"1.0","epoch":"SCREENING"},{"seq":"8","testcd":"WEIGHT","test":"Weight","cat":null,"orres":"111.1","orresu":"kg","stresc":"111.1","stresn":"111.1","stresu":"kg","stnrlo":null,"stnrhi":null,"nrind":null,"pos":null,"loc":null,"dtc":"2024-02-03","dy":"-6","visit":"SCREENING","visitnum":"1.0","epoch":"SCREENING"},{"seq":"9","testcd":"BMI","test":"BMI","cat":null,"orres":"44.7","orresu":"kg/m2","stresc":"44.7","stresn":"44.7","stresu":"kg/m2","stnrlo":null,"stnrhi":null,"nrind":null,"pos":null,"loc":null,"dtc":"2024-02-09","dy":"1","visit":"BASELINE","visitnum":"2.0","epoch":"TREATMENT"},{"seq":"10","testcd":"DIABP","test":"Diastolic Blood Pressure","cat":null,"orres":"82.5","orresu":"mmHg","stresc":"82.5","stresn":"82.5","stresu":"mmHg","stnrlo":null,"stnrhi":null,"nrind":null,"pos":null,"loc":null,"dtc":"2024-02-09","dy":"1","visit":"BASELINE","visitnum":"2.0","epoch":"TREATMENT"},{"seq":"11","testcd":"HEIGHT","test":"Height","cat":null,"orres":"157.9","orresu":"cm","stresc":"157.9","stresn":"157.9","stresu":"cm","stnrlo":null,"stnrhi":null,"nrind":null,"pos":null,"loc":null,"dtc":"2024-02-09","dy":"1","visit":"BASELINE","visitnum":"2.0","epoch":"TREATMENT"},{"seq":"12","testcd":"PULSE","test":"Pulse Rate","cat":null,"orres":"68.6","orresu":"beats/min","stresc":"68.6","stresn":"68.6","stresu":"beats/min","stnrlo":null,"stnrhi":null,"nrind":null,"pos":null,"loc":null,"dtc":"2024-02-09","dy":"1","visit":"BASELINE","visitnum":"2.0","epoch":"TREATMENT"},{"seq":"13","testcd":"RESP","test":"Respiratory Rate","cat":null,"orres":"19.9","orresu":"breaths/min","stresc":"19.9","stresn":"19.9","stresu":"breaths/min","stnrlo":null,"stnrhi":null,"nrind":null,"pos":null,"loc":null,"dtc":"2024-02-09","dy":"1","visit":"BASELINE","visitnum":"2.0","epoch":"TREATMENT"},{"seq":"14","testcd":"SYSBP","test":"Systolic Blood Pressure","cat":null,"orres":"135.5","orresu":"mmHg","stresc":"135.5","stresn":"135.5","stresu":"mmHg","stnrlo":null,"stnrhi":null,"nrind":null,"pos":null,"loc":null,"dtc":"2024-02-09","dy":"1","visit":"BASELINE","visitnum":"2.0","epoch":"TREATMENT"},{"seq":"15","testcd":"TEMP","test":"Temperature","cat":null,"orres":"36.6","orresu":"C","stresc":"36.6","stresn":"36.6","stresu":"C","stnrlo":null,"stnrhi":null,"nrind":null,"pos":null,"loc":null,"dtc":"2024-02-09","dy":"1","visit":"BASELINE","visitnum":"2.0","epoch":"TREATMENT"},{"seq":"16","testcd":"WEIGHT","test":"Weight","cat":null,"orres":"111.4","orresu":"kg","stresc":"111.4","stresn":"111.4","stresu":"kg","stnrlo":null,"stnrhi":null,"nrind":null,"pos":null,"loc":null,"dtc":"2024-02-09","dy":"1","visit":"BASELINE","visitnum":"2.0","epoch":"TREATMENT"},{"seq":"17","testcd":"BMI","test":"BMI","cat":null,"orres":"45.3","orresu":"kg/m2","stresc":"45.3","stresn":"45.3","stresu":"kg/m2","stnrlo":null,"stnrhi":null,"nrind":null,"pos":null,"loc":null,"dtc":"2024-02-25","dy":"17","visit":"WEEK 2","visitnum":"3.0","epoch":"TREATMENT"},{"seq":"18","testcd":"DIABP","test":"Diastolic Blood Pressure","cat":null,"orres":"82.7","orresu":"mmHg","stresc":"82.7","stresn":"82.7","stresu":"mmHg","stnrlo":null,"stnrhi":null,"nrind":null,"pos":null,"loc":null,"dtc":"2024-02-25","dy":"17","visit":"WEEK 2","visitnum":"3.0","epoch":"TREATMENT"},{"seq":"19","testcd":"HEIGHT","test":"Height","cat":null,"orres":"156.8","orresu":"cm","stresc":"156.8","stresn":"156.8","stresu":"cm","stnrlo":null,"stnrhi":null,"nrind":null,"pos":null,"loc":null,"dtc":"2024-02-25","dy":"17","visit":"WEEK 2","visitnum":"3.0","epoch":"TREATMENT"},{"seq":"20","testcd":"PULSE","test":"Pulse Rate","cat":null,"orres":"67.6","orresu":"beats/min","stresc":"67.6","stresn":"67.6","stresu":"beats/min","stnrlo":null,"stnrhi":null,"nrind":null,"pos":null,"loc":null,"dtc":"2024-02-25","dy":"17","visit":"WEEK 2","visitnum":"3.0","epoch":"TREATMENT"},{"seq":"21","testcd":"RESP","test":"Respiratory Rate","cat":null,"orres":"20.3","orresu":"breaths/min","stresc":"20.3","stresn":"20.3","stresu":"breaths/min","stnrlo":null,"stnrhi":null,"nrind":null,"pos":null,"loc":null,"dtc":"2024-02-25","dy":"17","visit":"WEEK 2","visitnum":"3.0","epoch":"TREATMENT"},{"seq":"22","testcd":"SYSBP","test":"Systolic Blood Pressure","cat":null,"orres":"136.8","orresu":"mmHg","stresc":"136.8","stresn":"136.8","stresu":"mmHg","stnrlo":null,"stnrhi":null,"nrind":null,"pos":null,"loc":null,"dtc":"2024-02-25","dy":"17","visit":"WEEK 2","visitnum":"3.0","epoch":"TREATMENT"},{"seq":"23","testcd":"TEMP","test":"Temperature","cat":null,"orres":"36.7","orresu":"C","stresc":"36.7","stresn":"36.7","stresu":"C","stnrlo":null,"stnrhi":null,"nrind":null,"pos":null,"loc":null,"dtc":"2024-02-25","dy":"17","visit":"WEEK 2","visitnum":"3.0","epoch":"TREATMENT"},{"seq":"24","testcd":"WEIGHT","test":"Weight","cat":null,"orres":"111.4","orresu":"kg","stresc":"111.4","stresn":"111.4","stresu":"kg","stnrlo":null,"stnrhi":null,"nrind":null,"pos":null,"loc":null,"dtc":"2024-02-25","dy":"17","visit":"WEEK 2","visitnum":"3.0","epoch":"TREATMENT"},{"seq":"25","testcd":"BMI","test":"BMI","cat":null,"orres":"46.1","orresu":"kg/m2","stresc":"46.1","stresn":"46.1","stresu":"kg/m2","stnrlo":null,"stnrhi":null,"nrind":null,"pos":null,"loc":null,"dtc":"2024-03-06","dy":"27","visit":"WEEK 4","visitnum":"4.0","epoch":"TREATMENT"},{"seq":"26","testcd":"DIABP","test":"Diastolic Blood Pressure","cat":null,"orres":"82.5","orresu":"mmHg","stresc":"82.5","stresn":"82.5","stresu":"mmHg","stnrlo":null,"stnrhi":null,"nrind":null,"pos":null,"loc":null,"dtc":"2024-03-06","dy":"27","visit":"WEEK 4","visitnum":"4.0","epoch":"TREATMENT"},{"seq":"27","testcd":"HEIGHT","test":"Height","cat":null,"orres":"156.9","orresu":"cm","stresc":"156.9","stresn":"156.9","stresu":"cm","stnrlo":null,"stnrhi":null,"nrind":null,"pos":null,"loc":null,"dtc":"2024-03-06","dy":"27","visit":"WEEK 4","visitnum":"4.0","epoch":"TREATMENT"},{"seq":"28","testcd":"PULSE","test":"Pulse Rate","cat":null,"orres":null,"orresu":null,"stresc":null,"stresn":null,"stresu":null,"stnrlo":null,"stnrhi":null,"nrind":null,"pos":null,"loc":null,"dtc":"2024-03-06","dy":"27","visit":"WEEK 4","visitnum":"4.0","epoch":"TREATMENT"},{"seq":"29","testcd":"RESP","test":"Respiratory Rate","cat":null,"orres":"22.0","orresu":"breaths/min","stresc":"22.0","stresn":"22.0","stresu":"breaths/min","stnrlo":null,"stnrhi":null,"nrind":null,"pos":null,"loc":null,"dtc":"2024-03-06","dy":"27","visit":"WEEK 4","visitnum":"4.0","epoch":"TREATMENT"},{"seq":"30","testcd":"SYSBP","test":"Systolic Blood Pressure","cat":null,"orres":"133.1","orresu":"mmHg","stresc":"133.1","stresn":"133.1","stresu":"mmHg","stnrlo":null,"stnrhi":null,"nrind":null,"pos":null,"loc":null,"dtc":"2024-03-06","dy":"27","visit":"WEEK 4","visitnum":"4.0","epoch":"TREATMENT"},{"seq":"31","testcd":"TEMP","test":"Temperature","cat":null,"orres":"36.7","orresu":"C","stresc":"36.7","stresn":"36.7","stresu":"C","stnrlo":null,"stnrhi":null,"nrind":null,"pos":null,"loc":null,"dtc":"2024-03-06","dy":"27","visit":"WEEK 4","visitnum":"4.0","epoch":"TREATMENT"},{"seq":"32","testcd":"WEIGHT","test":"Weight","cat":null,"orres":"113.4","orresu":"kg","stresc":"113.4","stresn":"113.4","stresu":"kg","stnrlo":null,"stnrhi":null,"nrind":null,"pos":null,"loc":null,"dtc":"2024-03-06","dy":"27","visit":"WEEK 4","visitnum":"4.0","epoch":"TREATMENT"},{"seq":"33","testcd":"BMI","test":"BMI","cat":null,"orres":"45.8","orresu":"kg/m2","stresc":"45.8","stresn":"45.8","stresu":"kg/m2","stnrlo":null,"stnrhi":null,"nrind":null,"pos":null,"loc":null,"dtc":"2024-04-08","dy":"60","visit":"WEEK 8","visitnum":"5.0","epoch":"TREATMENT"},{"seq":"34","testcd":"DIABP","test":"Diastolic Blood Pressure","cat":null,"orres":"81.0","orresu":"mmHg","stresc":"81.0","stresn":"81.0","stresu":"mmHg","stnrlo":null,"stnrhi":null,"nrind":null,"pos":null,"loc":null,"dtc":"2024-04-08","dy":"60","visit":"WEEK 8","visitnum":"5.0","epoch":"TREATMENT"},{"seq":"35","testcd":"HEIGHT","test":"Height","cat":null,"orres":"155.6","orresu":"cm","stresc":"155.6","stresn":"155.6","stresu":"cm","stnrlo":null,"stnrhi":null,"nrind":null,"pos":null,"loc":null,"dtc":"2024-04-08","dy":"60","visit":"WEEK 8","visitnum":"5.0","epoch":"TREATMENT"},{"seq":"36","testcd":"PULSE","test":"Pulse Rate","cat":null,"orres":"68.8","orresu":"beats/min","stresc":"68.8","stresn":"68.8","stresu":"beats/min","stnrlo":null,"stnrhi":null,"nrind":null,"pos":null,"loc":null,"dtc":"2024-04-08","dy":"60","visit":"WEEK 8","visitnum":"5.0","epoch":"TREATMENT"},{"seq":"37","testcd":"RESP","test":"Respiratory Rate","cat":null,"orres":"20.0","orresu":"breaths/min","stresc":"20.0","stresn":"20.0","stresu":"breaths/min","stnrlo":null,"stnrhi":null,"nrind":null,"pos":null,"loc":null,"dtc":"2024-04-08","dy":"60","visit":"WEEK 8","visitnum":"5.0","epoch":"TREATMENT"},{"seq":"38","testcd":"SYSBP","test":"Systolic Blood Pressure","cat":null,"orres":"132.6","orresu":"mmHg","stresc":"132.6","stresn":"132.6","stresu":"mmHg","stnrlo":null,"stnrhi":null,"nrind":null,"pos":null,"loc":null,"dtc":"2024-04-08","dy":"60","visit":"WEEK 8","visitnum":"5.0","epoch":"TREATMENT"},{"seq":"39","testcd":"TEMP","test":"Temperature","cat":null,"orres":"36.5","orresu":"C","stresc":"36.5","stresn":"36.5","stresu":"C","stnrlo":null,"stnrhi":null,"nrind":null,"pos":null,"loc":null,"dtc":"2024-04-08","dy":"60","visit":"WEEK 8","visitnum":"5.0","epoch":"TREATMENT"},{"seq":"40","testcd":"WEIGHT","test":"Weight","cat":null,"orres":"110.9","orresu":"kg","stresc":"110.9","stresn":"110.9","stresu":"kg","stnrlo":null,"stnrhi":null,"nrind":null,"pos":null,"loc":null,"dtc":"2024-04-08","dy":"60","visit":"WEEK 8","visitnum":"5.0","epoch":"TREATMENT"},{"seq":"41","testcd":"BMI","test":"BMI","cat":null,"orres":"44.6","orresu":"kg/m2","stresc":"44.6","stresn":"44.6","stresu":"kg/m2","stnrlo":null,"stnrhi":null,"nrind":null,"pos":null,"loc":null,"dtc":"2024-05-04","dy":"86","visit":"WEEK 12","visitnum":"6.0","epoch":"TREATMENT"},{"seq":"42","testcd":"DIABP","test":"Diastolic Blood Pressure","cat":null,"orres":"80.6","orresu":"mmHg","stresc":"80.6","stresn":"80.6","stresu":"mmHg","stnrlo":null,"stnrhi":null,"nrind":null,"pos":null,"loc":null,"dtc":"2024-05-04","dy":"86","visit":"WEEK 12","visitnum":"6.0","epoch":"TREATMENT"},{"seq":"43","testcd":"HEIGHT","test":"Height","cat":null,"orres":"155.7","orresu":"cm","stresc":"155.7","stresn":"155.7","stresu":"cm","stnrlo":null,"stnrhi":null,"nrind":null,"pos":null,"loc":null,"dtc":"2024-05-04","dy":"86","visit":"WEEK 12","visitnum":"6.0","epoch":"TREATMENT"},{"seq":"44","testcd":"PULSE","test":"Pulse Rate","cat":null,"orres":"68.2","orresu":"beats/min","stresc":"68.2","stresn":"68.2","stresu":"beats/min","stnrlo":null,"stnrhi":null,"nrind":null,"pos":null,"loc":null,"dtc":"2024-05-04","dy":"86","visit":"WEEK 12","visitnum":"6.0","epoch":"TREATMENT"},{"seq":"45","testcd":"RESP","test":"Respiratory Rate","cat":null,"orres":"18.5","orresu":"breaths/min","stresc":"18.5","stresn":"18.5","stresu":"breaths/min","stnrlo":null,"stnrhi":null,"nrind":null,"pos":null,"loc":null,"dtc":"2024-05-04","dy":"86","visit":"WEEK 12","visitnum":"6.0","epoch":"TREATMENT"},{"seq":"46","testcd":"SYSBP","test":"Systolic Blood Pressure","cat":null,"orres":"134.0","orresu":"mmHg","stresc":"134.0","stresn":"134.0","stresu":"mmHg","stnrlo":null,"stnrhi":null,"nrind":null,"pos":null,"loc":null,"dtc":"2024-05-04","dy":"86","visit":"WEEK 12","visitnum":"6.0","epoch":"TREATMENT"},{"seq":"47","testcd":"TEMP","test":"Temperature","cat":null,"orres":"36.8","orresu":"C","stresc":"36.8","stresn":"36.8","stresu":"C","stnrlo":null,"stnrhi":null,"nrind":null,"pos":null,"loc":null,"dtc":"2024-05-04","dy":"86","visit":"WEEK 12","visitnum":"6.0","epoch":"TREATMENT"},{"seq":"48","testcd":"WEIGHT","test":"Weight","cat":null,"orres":"108.2","orresu":"kg","stresc":"108.2","stresn":"108.2","stresu":"kg","stnrlo":null,"stnrhi":null,"nrind":null,"pos":null,"loc":null,"dtc":"2024-05-04","dy":"86","visit":"WEEK 12","visitnum":"6.0","epoch":"TREATMENT"},{"seq":"49","testcd":"BMI","test":"BMI","cat":null,"orres":"44.2","orresu":"kg/m2","stresc":"44.2","stresn":"44.2","stresu":"kg/m2","stnrlo":null,"stnrhi":null,"nrind":null,"pos":null,"loc":null,"dtc":"2024-06-07","dy":"120","visit":"FOLLOW-UP","visitnum":"7.0","epoch":"FOLLOW-UP"},{"seq":"50","testcd":"DIABP","test":"Diastolic Blood Pressure","cat":null,"orres":"79.7","orresu":"mmHg","stresc":"79.7","stresn":"79.7","stresu":"mmHg","stnrlo":null,"stnrhi":null,"nrind":null,"pos":null,"loc":null,"dtc":"2024-06-07","dy":"120","visit":"FOLLOW-UP","visitnum":"7.0","epoch":"FOLLOW-UP"},{"seq":"51","testcd":"HEIGHT","test":"Height","cat":null,"orres":"155.3","orresu":"cm","stresc":"155.3","stresn":"155.3","stresu":"cm","stnrlo":null,"stnrhi":null,"nrind":null,"pos":null,"loc":null,"dtc":"2024-06-07","dy":"120","visit":"FOLLOW-UP","visitnum":"7.0","epoch":"FOLLOW-UP"},{"seq":"52","testcd":"PULSE","test":"Pulse Rate","cat":null,"orres":"70.2","orresu":"beats/min","stresc":"70.2","stresn":"70.2","stresu":"beats/min","stnrlo":null,"stnrhi":null,"nrind":null,"pos":null,"loc":null,"dtc":"2024-06-07","dy":"120","visit":"FOLLOW-UP","visitnum":"7.0","epoch":"FOLLOW-UP"},{"seq":"53","testcd":"RESP","test":"Respiratory Rate","cat":null,"orres":"18.8","orresu":"breaths/min","stresc":"18.8","stresn":"18.8","stresu":"breaths/min","stnrlo":null,"stnrhi":null,"nrind":null,"pos":null,"loc":null,"dtc":"2024-06-07","dy":"120","visit":"FOLLOW-UP","visitnum":"7.0","epoch":"FOLLOW-UP"},{"seq":"54","testcd":"SYSBP","test":"Systolic Blood Pressure","cat":null,"orres":"132.4","orresu":"mmHg","stresc":"132.4","stresn":"132.4","stresu":"mmHg","stnrlo":null,"stnrhi":null,"nrind":null,"pos":null,"loc":null,"dtc":"2024-06-07","dy":"120","visit":"FOLLOW-UP","visitnum":"7.0","epoch":"FOLLOW-UP"},{"seq":"55","testcd":"TEMP","test":"Temperature","cat":null,"orres":"36.5","orresu":"C","stresc":"36.5","stresn":"36.5","stresu":"C","stnrlo":null,"stnrhi":null,"nrind":null,"pos":null,"loc":null,"dtc":"2024-06-07","dy":"120","visit":"FOLLOW-UP","visitnum":"7.0","epoch":"FOLLOW-UP"},{"seq":"56","testcd":"WEIGHT","test":"Weight","cat":null,"orres":"106.5","orresu":"kg","stresc":"106.5","stresn":"106.5","stresu":"kg","stnrlo":null,"stnrhi":null,"nrind":null,"pos":null,"loc":null,"dtc":"2024-06-07","dy":"120","visit":"FOLLOW-UP","visitnum":"7.0","epoch":"FOLLOW-UP"}]},"section_10_questionnaires_and_scores":{"questionnaires":[],"findings_about":[]},"section_11_protocol_deviations":{"deviations":[{"seq":"1","term":"Missed GB001 dose on 2024-02-09","decod":"MISSED DOSE","cat":"MINOR","scat":"DOSING","start_dtc":"2024-02-09","end_dtc":null,"visit":null},{"seq":"2","term":"Missed GB001 dose on 2024-02-10","decod":"MISSED DOSE","cat":"MINOR","scat":"DOSING","start_dtc":"2024-02-10","end_dtc":null,"visit":null},{"seq":"3","term":"Missed GB001 dose on 2024-02-11","decod":"MISSED DOSE","cat":"MINOR","scat":"DOSING","start_dtc":"2024-02-11","end_dtc":null,"visit":null},{"seq":"4","term":"Missed GB001 dose on 2024-02-16","decod":"MISSED DOSE","cat":"MINOR","scat":"DOSING","start_dtc":"2024-02-16","end_dtc":null,"visit":null},{"seq":"5","term":"Missed GB001 dose on 2024-02-17","decod":"MISSED DOSE","cat":"MINOR","scat":"DOSING","start_dtc":"2024-02-17","end_dtc":null,"visit":null},{"seq":"6","term":"Visit WEEK 2 occurred 2 days late (Day 17 vs planned Day 15)","decod":"VISIT OCCURRED OUTSIDE VISIT WINDOW","cat":"MINOR","scat":"VISIT WINDOW","start_dtc":"2024-02-25","end_dtc":null,"visit":null},{"seq":"7","term":"Vital signs assessment not performed at WEEK 4","decod":"MISSED ASSESSMENT","cat":"MINOR","scat":"ASSESSMENT","start_dtc":"2024-03-06","end_dtc":null,"visit":null},{"seq":"8","term":"Visit WEEK 12 occurred 1 days late (Day 86 vs planned Day 85)","decod":"VISIT OCCURRED OUTSIDE VISIT WINDOW","cat":"MINOR","scat":"VISIT WINDOW","start_dtc":"2024-05-04","end_dtc":null,"visit":null}],"total":8},"section_12_disposition":{"completion_status":"COMPLETED","disposition_records":[{"seq":"1","term":"INFORMED CONSENT OBTAINED","decod":"INFORMED CONSENT OBTAINED","cat":"PROTOCOL MILESTONE","scat":null,"dtc":"2024-01-17","dy":null,"visit":null,"epoch":"SCREENING"},{"seq":"2","term":"RANDOMIZED","decod":"RANDOMIZED","cat":"PROTOCOL MILESTONE","scat":null,"dtc":"2024-02-09","dy":null,"visit":null,"epoch":"TREATMENT"},{"seq":"3","term":"COMPLETED","decod":"COMPLETED","cat":"DISPOSITION EVENT","scat":null,"dtc":"2024-06-27","dy":null,"visit":null,"epoch":"FOLLOW-UP"}],"death":null},"section_13_hospitalizations":{"items":[{"seq":"1","term":"Headache","decod":"Headache","cat":"EMERGENCY ROOM VISIT","start_dtc":"2024-02-20","end_dtc":"2024-02-23","epoch":"TREATMENT"}],"total":1},"section_14_substance_use":{"items":[{"seq":"1","substance":"ALCOHOL","decod":"ALCOHOL","cat":"ALCOHOL","scat":null,"usage":"Y","dose":"4.0","dosu":"DRINKS/WEEK","freq":"QW","start_dtc":"2000-01-23","end_dtc":null},{"seq":"2","substance":"COFFEE","decod":"COFFEE","cat":"CAFFEINE","scat":null,"usage":"N","dose":null,"dosu":null,"freq":null,"start_dtc":null,"end_dtc":null},{"seq":"3","substance":"CIGARETTES","decod":"CIGARETTES","cat":"TOBACCO","scat":"CIGARETTES","usage":"Y","dose":null,"dosu":null,"freq":null,"start_dtc":"2007-01-21","end_dtc":"2017-01-18"}],"total":3},"section_15_subject_status":{"items":[{"seq":"1","testcd":"SURVSTAT","test":"Survival Status","orres":"ALIVE","stresc":"ALIVE","dtc":"2024-06-27","visit":"END OF STUDY","epoch":"FOLLOW-UP"}],"total":1}}