{"subject_id":"GB001-ASTHMA-201-SITE002-0038","study_id":"GB001-ASTHMA-201","generated_at":"2026-06-16T07:22:32.541027+00:00","sdtmig_version":"3.4","flags":{"has_serious_ae":false,"has_fatal_ae":false,"has_protocol_deviation":true,"n_protocol_deviations":1,"n_adverse_events":0,"n_concomitant_meds":1,"max_ae_severity":null,"screen_failure":false,"discontinued_early":true,"discontinuation_reason":"LOST TO FOLLOW-UP","death":false,"exposure_days":2},"timeline":[{"dtc":"2024-02-19","dy":"-28","event":"INFORMED CONSENT OBTAINED","domain":"DS","category":"milestone"},{"dtc":"2024-02-25","dy":"-22","event":"VISIT: SCREENING","domain":"SV","category":"visit"},{"dtc":"2024-03-18","dy":"1","event":"RANDOMIZED","domain":"DS","category":"milestone"},{"dtc":"2024-03-18","dy":"1","event":"FIRST DOSE: GB001","domain":"EX","category":"exposure"},{"dtc":"2024-03-18","dy":"1","event":"VISIT: BASELINE","domain":"SV","category":"visit"},{"dtc":"2024-03-20","dy":"3","event":"DEVIATION: MISSED DOSE","domain":"DV","category":"deviation"},{"dtc":"2024-03-22","dy":"5","event":"CM START: IBUPROFEN","domain":"CM","category":"concomitant_med"},{"dtc":"2024-03-23","dy":"6","event":"LOST TO FOLLOW-UP","domain":"DS","category":"milestone"}],"section_1_demographics":{"usubjid":"GB001-ASTHMA-201-SITE002-0038","subjid":"0038","siteid":"SITE002","age":"36","ageu":"YEARS","sex":"M","race":"WHITE","ethnicity":"NOT HISPANIC OR LATINO","country":"USA","arm":"GB001 40mg QD","armcd":"GB40","actarm":"GB001 40mg QD","actarmcd":"GB40","randomization_date":null,"informed_consent_date":"2024-02-19","reference_start_date":"2024-03-18","reference_end_date":"2024-03-23","screen_failure":false,"death_flag":null,"death_date":null,"subject_characteristics":[{"testcd":"ALCUSE","test":"Alcohol Use","orres":"NON-DRINKER","stresc":"NON-DRINKER","visit":null,"dtc":"2024-02-19"},{"testcd":"BMI","test":"Body Mass Index","orres":"21.3","stresc":"21.3","visit":null,"dtc":"2024-02-19"},{"testcd":"TOBPKYR","test":"Tobacco Pack-Years","orres":"11","stresc":"11","visit":null,"dtc":"2024-02-19"},{"testcd":"TOBUSE","test":"Tobacco Use","orres":"FORMER SMOKER","stresc":"FORMER SMOKER","visit":null,"dtc":"2024-02-19"}]},"section_2_medical_history":{"items":[]},"section_3_inclusion_exclusion":{"criteria":[]},"section_4_trial_participation":{"visits":[{"visitnum":"1.0","visit":"SCREENING","start_dtc":"2024-02-25","end_dtc":"2024-02-25","updes":null},{"visitnum":"2.0","visit":"BASELINE","start_dtc":"2024-03-18","end_dtc":"2024-03-18","updes":null}],"epochs":[{"seq":"1","etcd":"SCRN","element":"Screening","start_dtc":"2024-02-19","end_dtc":"2024-03-18","updes":null},{"seq":"2","etcd":"TRT","element":"Treatment","start_dtc":"2024-03-18","end_dtc":"2024-03-23","updes":null}],"visit_count":2},"section_5_concomitant_medications":{"medications":[{"seq":"1","trt":"IBUPROFEN","decod":"IBUPROFEN","cat":"CONCOMITANT","dose":null,"doseu":null,"dosef":"PRN","route":"ORAL","indication":null,"start_dtc":"2024-03-22","end_dtc":"2024-03-23","ongoing":null,"visit":null}]},"section_6_exposure":{"exposure_as_administered":[{"seq":"1","trt":"GB001","dose":"40.0","doseu":null,"dosef":"QD","route":"ORAL","lot":null,"start_dtc":"2024-03-18","end_dtc":"2024-03-20","start_dy":"1","end_dy":"3","epoch":"TREATMENT","visit":null}],"exposure_as_collected":[{"seq":"1","trt":"GB001","dose":"40.0","doseu":null,"dosef":"QD","route":"ORAL","start_dtc":"2024-03-18","end_dtc":"2024-03-18","visit":"BASELINE"},{"seq":"2","trt":"GB001","dose":"40.0","doseu":null,"dosef":"QD","route":"ORAL","start_dtc":"2024-03-19","end_dtc":"2024-03-19","visit":"BASELINE"},{"seq":"3","trt":"GB001","dose":null,"doseu":null,"dosef":"QD","route":"ORAL","start_dtc":"2024-03-20","end_dtc":"2024-03-20","visit":"BASELINE"}]},"section_7_adverse_events":{"summary":{"total_aes":0,"serious_aes":0,"fatal_aes":0,"by_severity":{},"by_soc":{}},"events":[]},"section_8_laboratory_results":{"summary":{"total_records":14,"abnormal_count":2,"abnormal_pct":14.3},"shift_summary":[{"testcd":"ALT","baseline_value":15.01,"baseline_nrind":"NORMAL","worst_post_baseline_value":14.8,"worst_post_baseline_nrind":"NORMAL","worst_visit":"BASELINE"},{"testcd":"AST","baseline_value":23.58,"baseline_nrind":"NORMAL","worst_post_baseline_value":24.28,"worst_post_baseline_nrind":"NORMAL","worst_visit":"BASELINE"},{"testcd":"CREAT","baseline_value":83.09,"baseline_nrind":"NORMAL","worst_post_baseline_value":86.32,"worst_post_baseline_nrind":"NORMAL","worst_visit":"BASELINE"},{"testcd":"GLUC","baseline_value":5.11,"baseline_nrind":"NORMAL","worst_post_baseline_value":5.06,"worst_post_baseline_nrind":"NORMAL","worst_visit":"BASELINE"},{"testcd":"HGB","baseline_value":141.28,"baseline_nrind":"NORMAL","worst_post_baseline_value":142.41,"worst_post_baseline_nrind":"NORMAL","worst_visit":"BASELINE"},{"testcd":"PLAT","baseline_value":270.1,"baseline_nrind":"NORMAL","worst_post_baseline_value":266.07,"worst_post_baseline_nrind":"NORMAL","worst_visit":"BASELINE"},{"testcd":"WBC","baseline_value":11.61,"baseline_nrind":"HIGH","worst_post_baseline_value":11.48,"worst_post_baseline_nrind":"HIGH","worst_visit":"BASELINE"}],"results":[{"seq":"1","testcd":"ALT","test":"Alanine Aminotransferase","cat":"CHEMISTRY","orres":"15.01","orresu":"U/L","stresc":"15.01","stresn":"15.01","stresu":"U/L","stnrlo":"7","stnrhi":"56","nrind":"NORMAL","fast":null,"dtc":"2024-02-25","dy":"-22","visit":"SCREENING","visitnum":"1.0","epoch":"SCREENING","spec":null,"method":null},{"seq":"2","testcd":"AST","test":"Aspartate Aminotransferase","cat":"CHEMISTRY","orres":"23.58","orresu":"U/L","stresc":"23.58","stresn":"23.58","stresu":"U/L","stnrlo":"10","stnrhi":"40","nrind":"NORMAL","fast":null,"dtc":"2024-02-25","dy":"-22","visit":"SCREENING","visitnum":"1.0","epoch":"SCREENING","spec":null,"method":null},{"seq":"3","testcd":"CREAT","test":"Creatinine","cat":"CHEMISTRY","orres":"83.09","orresu":"umol/L","stresc":"83.09","stresn":"83.09","stresu":"umol/L","stnrlo":"62","stnrhi":"106","nrind":"NORMAL","fast":null,"dtc":"2024-02-25","dy":"-22","visit":"SCREENING","visitnum":"1.0","epoch":"SCREENING","spec":null,"method":null},{"seq":"4","testcd":"GLUC","test":"Glucose","cat":"CHEMISTRY","orres":"5.11","orresu":"mmol/L","stresc":"5.11","stresn":"5.11","stresu":"mmol/L","stnrlo":"3.9","stnrhi":"5.6","nrind":"NORMAL","fast":null,"dtc":"2024-02-25","dy":"-22","visit":"SCREENING","visitnum":"1.0","epoch":"SCREENING","spec":null,"method":null},{"seq":"5","testcd":"HGB","test":"Hemoglobin","cat":"HEMATOLOGY","orres":"141.28","orresu":"g/L","stresc":"141.28","stresn":"141.28","stresu":"g/L","stnrlo":"130","stnrhi":"175","nrind":"NORMAL","fast":null,"dtc":"2024-02-25","dy":"-22","visit":"SCREENING","visitnum":"1.0","epoch":"SCREENING","spec":null,"method":null},{"seq":"6","testcd":"PLAT","test":"Platelets","cat":"HEMATOLOGY","orres":"270.1","orresu":"10^9/L","stresc":"270.1","stresn":"270.1","stresu":"10^9/L","stnrlo":"150","stnrhi":"400","nrind":"NORMAL","fast":null,"dtc":"2024-02-25","dy":"-22","visit":"SCREENING","visitnum":"1.0","epoch":"SCREENING","spec":null,"method":null},{"seq":"7","testcd":"WBC","test":"Leukocytes","cat":"HEMATOLOGY","orres":"11.61","orresu":"10^9/L","stresc":"11.61","stresn":"11.61","stresu":"10^9/L","stnrlo":"4.0","stnrhi":"11.0","nrind":"HIGH","fast":null,"dtc":"2024-02-25","dy":"-22","visit":"SCREENING","visitnum":"1.0","epoch":"SCREENING","spec":null,"method":null},{"seq":"8","testcd":"ALT","test":"Alanine Aminotransferase","cat":"CHEMISTRY","orres":"14.8","orresu":"U/L","stresc":"14.8","stresn":"14.8","stresu":"U/L","stnrlo":"7","stnrhi":"56","nrind":"NORMAL","fast":null,"dtc":"2024-03-18","dy":"1","visit":"BASELINE","visitnum":"2.0","epoch":"TREATMENT","spec":null,"method":null},{"seq":"9","testcd":"AST","test":"Aspartate Aminotransferase","cat":"CHEMISTRY","orres":"24.28","orresu":"U/L","stresc":"24.28","stresn":"24.28","stresu":"U/L","stnrlo":"10","stnrhi":"40","nrind":"NORMAL","fast":null,"dtc":"2024-03-18","dy":"1","visit":"BASELINE","visitnum":"2.0","epoch":"TREATMENT","spec":null,"method":null},{"seq":"10","testcd":"CREAT","test":"Creatinine","cat":"CHEMISTRY","orres":"86.32","orresu":"umol/L","stresc":"86.32","stresn":"86.32","stresu":"umol/L","stnrlo":"62","stnrhi":"106","nrind":"NORMAL","fast":null,"dtc":"2024-03-18","dy":"1","visit":"BASELINE","visitnum":"2.0","epoch":"TREATMENT","spec":null,"method":null},{"seq":"11","testcd":"GLUC","test":"Glucose","cat":"CHEMISTRY","orres":"5.06","orresu":"mmol/L","stresc":"5.06","stresn":"5.06","stresu":"mmol/L","stnrlo":"3.9","stnrhi":"5.6","nrind":"NORMAL","fast":null,"dtc":"2024-03-18","dy":"1","visit":"BASELINE","visitnum":"2.0","epoch":"TREATMENT","spec":null,"method":null},{"seq":"12","testcd":"HGB","test":"Hemoglobin","cat":"HEMATOLOGY","orres":"142.41","orresu":"g/L","stresc":"142.41","stresn":"142.41","stresu":"g/L","stnrlo":"130","stnrhi":"175","nrind":"NORMAL","fast":null,"dtc":"2024-03-18","dy":"1","visit":"BASELINE","visitnum":"2.0","epoch":"TREATMENT","spec":null,"method":null},{"seq":"13","testcd":"PLAT","test":"Platelets","cat":"HEMATOLOGY","orres":"266.07","orresu":"10^9/L","stresc":"266.07","stresn":"266.07","stresu":"10^9/L","stnrlo":"150","stnrhi":"400","nrind":"NORMAL","fast":null,"dtc":"2024-03-18","dy":"1","visit":"BASELINE","visitnum":"2.0","epoch":"TREATMENT","spec":null,"method":null},{"seq":"14","testcd":"WBC","test":"Leukocytes","cat":"HEMATOLOGY","orres":"11.48","orresu":"10^9/L","stresc":"11.48","stresn":"11.48","stresu":"10^9/L","stnrlo":"4.0","stnrhi":"11.0","nrind":"HIGH","fast":null,"dtc":"2024-03-18","dy":"1","visit":"BASELINE","visitnum":"2.0","epoch":"TREATMENT","spec":null,"method":null}]},"section_9_vital_signs":{"summary":{"total_records":16},"trends":{"BMI":[{"visit":"SCREENING","visitnum":"1.0","dtc":"2024-02-25","value":"21.3","unit":"kg/m2"},{"visit":"BASELINE","visitnum":"2.0","dtc":"2024-03-18","value":"21.2","unit":"kg/m2"}],"DIABP":[{"visit":"SCREENING","visitnum":"1.0","dtc":"2024-02-25","value":"62.5","unit":"mmHg"},{"visit":"BASELINE","visitnum":"2.0","dtc":"2024-03-18","value":"64.0","unit":"mmHg"}],"HEIGHT":[{"visit":"SCREENING","visitnum":"1.0","dtc":"2024-02-25","value":"171.7","unit":"cm"},{"visit":"BASELINE","visitnum":"2.0","dtc":"2024-03-18","value":"171.6","unit":"cm"}],"PULSE":[{"visit":"SCREENING","visitnum":"1.0","dtc":"2024-02-25","value":"56.5","unit":"beats/min"},{"visit":"BASELINE","visitnum":"2.0","dtc":"2024-03-18","value":"55.2","unit":"beats/min"}],"RESP":[{"visit":"SCREENING","visitnum":"1.0","dtc":"2024-02-25","value":"17.4","unit":"breaths/min"},{"visit":"BASELINE","visitnum":"2.0","dtc":"2024-03-18","value":"19.3","unit":"breaths/min"}],"SYSBP":[{"visit":"SCREENING","visitnum":"1.0","dtc":"2024-02-25","value":"116.9","unit":"mmHg"},{"visit":"BASELINE","visitnum":"2.0","dtc":"2024-03-18","value":"119.7","unit":"mmHg"}],"TEMP":[{"visit":"SCREENING","visitnum":"1.0","dtc":"2024-02-25","value":"36.7","unit":"C"},{"visit":"BASELINE","visitnum":"2.0","dtc":"2024-03-18","value":"36.8","unit":"C"}],"WEIGHT":[{"visit":"SCREENING","visitnum":"1.0","dtc":"2024-02-25","value":"62.9","unit":"kg"},{"visit":"BASELINE","visitnum":"2.0","dtc":"2024-03-18","value":"62.4","unit":"kg"}]},"results":[{"seq":"1","testcd":"BMI","test":"BMI","cat":null,"orres":"21.3","orresu":"kg/m2","stresc":"21.3","stresn":"21.3","stresu":"kg/m2","stnrlo":null,"stnrhi":null,"nrind":null,"pos":null,"loc":null,"dtc":"2024-02-25","dy":"-22","visit":"SCREENING","visitnum":"1.0","epoch":"SCREENING"},{"seq":"2","testcd":"DIABP","test":"Diastolic Blood Pressure","cat":null,"orres":"62.5","orresu":"mmHg","stresc":"62.5","stresn":"62.5","stresu":"mmHg","stnrlo":null,"stnrhi":null,"nrind":null,"pos":null,"loc":null,"dtc":"2024-02-25","dy":"-22","visit":"SCREENING","visitnum":"1.0","epoch":"SCREENING"},{"seq":"3","testcd":"HEIGHT","test":"Height","cat":null,"orres":"171.7","orresu":"cm","stresc":"171.7","stresn":"171.7","stresu":"cm","stnrlo":null,"stnrhi":null,"nrind":null,"pos":null,"loc":null,"dtc":"2024-02-25","dy":"-22","visit":"SCREENING","visitnum":"1.0","epoch":"SCREENING"},{"seq":"4","testcd":"PULSE","test":"Pulse Rate","cat":null,"orres":"56.5","orresu":"beats/min","stresc":"56.5","stresn":"56.5","stresu":"beats/min","stnrlo":null,"stnrhi":null,"nrind":null,"pos":null,"loc":null,"dtc":"2024-02-25","dy":"-22","visit":"SCREENING","visitnum":"1.0","epoch":"SCREENING"},{"seq":"5","testcd":"RESP","test":"Respiratory Rate","cat":null,"orres":"17.4","orresu":"breaths/min","stresc":"17.4","stresn":"17.4","stresu":"breaths/min","stnrlo":null,"stnrhi":null,"nrind":null,"pos":null,"loc":null,"dtc":"2024-02-25","dy":"-22","visit":"SCREENING","visitnum":"1.0","epoch":"SCREENING"},{"seq":"6","testcd":"SYSBP","test":"Systolic Blood Pressure","cat":null,"orres":"116.9","orresu":"mmHg","stresc":"116.9","stresn":"116.9","stresu":"mmHg","stnrlo":null,"stnrhi":null,"nrind":null,"pos":null,"loc":null,"dtc":"2024-02-25","dy":"-22","visit":"SCREENING","visitnum":"1.0","epoch":"SCREENING"},{"seq":"7","testcd":"TEMP","test":"Temperature","cat":null,"orres":"36.7","orresu":"C","stresc":"36.7","stresn":"36.7","stresu":"C","stnrlo":null,"stnrhi":null,"nrind":null,"pos":null,"loc":null,"dtc":"2024-02-25","dy":"-22","visit":"SCREENING","visitnum":"1.0","epoch":"SCREENING"},{"seq":"8","testcd":"WEIGHT","test":"Weight","cat":null,"orres":"62.9","orresu":"kg","stresc":"62.9","stresn":"62.9","stresu":"kg","stnrlo":null,"stnrhi":null,"nrind":null,"pos":null,"loc":null,"dtc":"2024-02-25","dy":"-22","visit":"SCREENING","visitnum":"1.0","epoch":"SCREENING"},{"seq":"9","testcd":"BMI","test":"BMI","cat":null,"orres":"21.2","orresu":"kg/m2","stresc":"21.2","stresn":"21.2","stresu":"kg/m2","stnrlo":null,"stnrhi":null,"nrind":null,"pos":null,"loc":null,"dtc":"2024-03-18","dy":"1","visit":"BASELINE","visitnum":"2.0","epoch":"TREATMENT"},{"seq":"10","testcd":"DIABP","test":"Diastolic Blood Pressure","cat":null,"orres":"64.0","orresu":"mmHg","stresc":"64.0","stresn":"64.0","stresu":"mmHg","stnrlo":null,"stnrhi":null,"nrind":null,"pos":null,"loc":null,"dtc":"2024-03-18","dy":"1","visit":"BASELINE","visitnum":"2.0","epoch":"TREATMENT"},{"seq":"11","testcd":"HEIGHT","test":"Height","cat":null,"orres":"171.6","orresu":"cm","stresc":"171.6","stresn":"171.6","stresu":"cm","stnrlo":null,"stnrhi":null,"nrind":null,"pos":null,"loc":null,"dtc":"2024-03-18","dy":"1","visit":"BASELINE","visitnum":"2.0","epoch":"TREATMENT"},{"seq":"12","testcd":"PULSE","test":"Pulse Rate","cat":null,"orres":"55.2","orresu":"beats/min","stresc":"55.2","stresn":"55.2","stresu":"beats/min","stnrlo":null,"stnrhi":null,"nrind":null,"pos":null,"loc":null,"dtc":"2024-03-18","dy":"1","visit":"BASELINE","visitnum":"2.0","epoch":"TREATMENT"},{"seq":"13","testcd":"RESP","test":"Respiratory Rate","cat":null,"orres":"19.3","orresu":"breaths/min","stresc":"19.3","stresn":"19.3","stresu":"breaths/min","stnrlo":null,"stnrhi":null,"nrind":null,"pos":null,"loc":null,"dtc":"2024-03-18","dy":"1","visit":"BASELINE","visitnum":"2.0","epoch":"TREATMENT"},{"seq":"14","testcd":"SYSBP","test":"Systolic Blood Pressure","cat":null,"orres":"119.7","orresu":"mmHg","stresc":"119.7","stresn":"119.7","stresu":"mmHg","stnrlo":null,"stnrhi":null,"nrind":null,"pos":null,"loc":null,"dtc":"2024-03-18","dy":"1","visit":"BASELINE","visitnum":"2.0","epoch":"TREATMENT"},{"seq":"15","testcd":"TEMP","test":"Temperature","cat":null,"orres":"36.8","orresu":"C","stresc":"36.8","stresn":"36.8","stresu":"C","stnrlo":null,"stnrhi":null,"nrind":null,"pos":null,"loc":null,"dtc":"2024-03-18","dy":"1","visit":"BASELINE","visitnum":"2.0","epoch":"TREATMENT"},{"seq":"16","testcd":"WEIGHT","test":"Weight","cat":null,"orres":"62.4","orresu":"kg","stresc":"62.4","stresn":"62.4","stresu":"kg","stnrlo":null,"stnrhi":null,"nrind":null,"pos":null,"loc":null,"dtc":"2024-03-18","dy":"1","visit":"BASELINE","visitnum":"2.0","epoch":"TREATMENT"}]},"section_10_questionnaires_and_scores":{"questionnaires":[],"findings_about":[]},"section_11_protocol_deviations":{"deviations":[{"seq":"1","term":"Missed GB001 dose on 2024-03-20","decod":"MISSED DOSE","cat":"MINOR","scat":"DOSING","start_dtc":"2024-03-20","end_dtc":null,"visit":null}],"total":1},"section_12_disposition":{"completion_status":"INFORMED CONSENT OBTAINED","disposition_records":[{"seq":"1","term":"INFORMED CONSENT OBTAINED","decod":"INFORMED CONSENT OBTAINED","cat":"PROTOCOL MILESTONE","scat":null,"dtc":"2024-02-19","dy":null,"visit":null,"epoch":"SCREENING"},{"seq":"2","term":"RANDOMIZED","decod":"RANDOMIZED","cat":"PROTOCOL MILESTONE","scat":null,"dtc":"2024-03-18","dy":null,"visit":null,"epoch":"TREATMENT"},{"seq":"3","term":"LOST TO FOLLOW-UP","decod":"LOST TO FOLLOW-UP","cat":"DISPOSITION EVENT","scat":null,"dtc":"2024-03-23","dy":null,"visit":null,"epoch":"TREATMENT"}],"death":null},"section_13_hospitalizations":{"items":[],"total":0},"section_14_substance_use":{"items":[{"seq":"1","substance":"ALCOHOL","decod":"ALCOHOL","cat":"ALCOHOL","scat":null,"usage":"N","dose":null,"dosu":null,"freq":null,"start_dtc":null,"end_dtc":null},{"seq":"2","substance":"COFFEE","decod":"COFFEE","cat":"CAFFEINE","scat":null,"usage":"Y","dose":"2.0","dosu":"CUPS/DAY","freq":"QD","start_dtc":"2020-02-20","end_dtc":null},{"seq":"3","substance":"CIGARETTES","decod":"CIGARETTES","cat":"TOBACCO","scat":"CIGARETTES","usage":"Y","dose":null,"dosu":null,"freq":null,"start_dtc":"1999-02-25","end_dtc":"2013-02-21"}],"total":3},"section_15_subject_status":{"items":[{"seq":"1","testcd":"SURVSTAT","test":"Survival Status","orres":"ALIVE","stresc":"ALIVE","dtc":"2024-03-23","visit":"END OF STUDY","epoch":"FOLLOW-UP"}],"total":1}}