{"subject_id":"GB001-ASTHMA-201-SITE001-0295","study_id":"GB001-ASTHMA-201","generated_at":"2026-06-16T07:22:24.373500+00:00","sdtmig_version":"3.4","flags":{"has_serious_ae":false,"has_fatal_ae":false,"has_protocol_deviation":true,"n_protocol_deviations":5,"n_adverse_events":1,"n_concomitant_meds":1,"max_ae_severity":"MILD","screen_failure":false,"discontinued_early":false,"discontinuation_reason":null,"death":false,"exposure_days":67},"timeline":[{"dtc":"2016-04-01","dy":"-2937","event":"CM START: METFORMIN","domain":"CM","category":"concomitant_med"},{"dtc":"2024-03-20","dy":"-27","event":"VISIT: SCREENING","domain":"SV","category":"visit"},{"dtc":"2024-03-30","dy":"-17","event":"INFORMED CONSENT OBTAINED","domain":"DS","category":"milestone"},{"dtc":"2024-04-16","dy":"1","event":"RANDOMIZED","domain":"DS","category":"milestone"},{"dtc":"2024-04-16","dy":"1","event":"FIRST DOSE: PLACEBO","domain":"EX","category":"exposure"},{"dtc":"2024-04-16","dy":"1","event":"VISIT: BASELINE","domain":"SV","category":"visit"},{"dtc":"2024-04-22","dy":"7","event":"DEVIATION: MISSED DOSE","domain":"DV","category":"deviation"},{"dtc":"2024-05-02","dy":"17","event":"VISIT: WEEK 2","domain":"SV","category":"visit"},{"dtc":"2024-05-06","dy":"21","event":"AE: Bronchitis (MILD)","domain":"AE","category":"adverse_event"},{"dtc":"2024-05-10","dy":"25","event":"DEVIATION: MISSED DOSE","domain":"DV","category":"deviation"},{"dtc":"2024-05-15","dy":"30","event":"DEVIATION: MISSED DOSE","domain":"DV","category":"deviation"},{"dtc":"2024-05-16","dy":"31","event":"VISIT: WEEK 4","domain":"SV","category":"visit"},{"dtc":"2024-05-17","dy":"32","event":"DEVIATION: MISSED DOSE","domain":"DV","category":"deviation"},{"dtc":"2024-06-10","dy":"56","event":"VISIT: WEEK 8","domain":"SV","category":"visit"},{"dtc":"2024-07-09","dy":"85","event":"DEVIATION: MISSED ASSESSMENT","domain":"DV","category":"deviation"},{"dtc":"2024-07-09","dy":"85","event":"VISIT: WEEK 12","domain":"SV","category":"visit"},{"dtc":"2024-08-12","dy":"119","event":"VISIT: FOLLOW-UP","domain":"SV","category":"visit"},{"dtc":"2024-09-02","dy":"140","event":"COMPLETED","domain":"DS","category":"milestone"}],"section_1_demographics":{"usubjid":"GB001-ASTHMA-201-SITE001-0295","subjid":"0295","siteid":"SITE001","age":"42","ageu":"YEARS","sex":"F","race":"WHITE","ethnicity":"NOT HISPANIC OR LATINO","country":"USA","arm":"Placebo","armcd":"PBO","actarm":"Placebo","actarmcd":"PBO","randomization_date":null,"informed_consent_date":"2024-03-30","reference_start_date":"2024-04-16","reference_end_date":"2024-09-02","screen_failure":false,"death_flag":null,"death_date":null,"subject_characteristics":[{"testcd":"ALCUSE","test":"Alcohol Use","orres":"NON-DRINKER","stresc":"NON-DRINKER","visit":null,"dtc":"2024-03-30"},{"testcd":"BMI","test":"Body Mass Index","orres":"21.5","stresc":"21.5","visit":null,"dtc":"2024-03-30"},{"testcd":"DURDIS","test":"Duration of Disease","orres":"97 months","stresc":"97","visit":null,"dtc":"2024-03-30"},{"testcd":"TOBUSE","test":"Tobacco Use","orres":"NEVER SMOKED","stresc":"NEVER SMOKED","visit":null,"dtc":"2024-03-30"}]},"section_2_medical_history":{"items":[{"seq":"1","term":"DIABETES MELLITUS TYPE 2","decod":"DIABETES MELLITUS TYPE 2","cat":"ENDOCRINE","scat":null,"presp":null,"occur":null,"status":null,"onset_dtc":"2016-04-01","end_dtc":null,"visit":null}]},"section_3_inclusion_exclusion":{"criteria":[]},"section_4_trial_participation":{"visits":[{"visitnum":"1.0","visit":"SCREENING","start_dtc":"2024-03-20","end_dtc":"2024-03-20","updes":null},{"visitnum":"2.0","visit":"BASELINE","start_dtc":"2024-04-16","end_dtc":"2024-04-16","updes":null},{"visitnum":"3.0","visit":"WEEK 2","start_dtc":"2024-05-02","end_dtc":"2024-05-02","updes":null},{"visitnum":"4.0","visit":"WEEK 4","start_dtc":"2024-05-16","end_dtc":"2024-05-16","updes":null},{"visitnum":"5.0","visit":"WEEK 8","start_dtc":"2024-06-10","end_dtc":"2024-06-10","updes":null},{"visitnum":"6.0","visit":"WEEK 12","start_dtc":"2024-07-09","end_dtc":"2024-07-09","updes":null},{"visitnum":"7.0","visit":"FOLLOW-UP","start_dtc":"2024-08-12","end_dtc":"2024-08-12","updes":null}],"epochs":[{"seq":"1","etcd":"SCRN","element":"Screening","start_dtc":"2024-03-19","end_dtc":"2024-04-16","updes":null},{"seq":"2","etcd":"TRT","element":"Treatment","start_dtc":"2024-04-16","end_dtc":"2024-07-09","updes":null},{"seq":"3","etcd":"FU","element":"Follow-up","start_dtc":"2024-07-09","end_dtc":"2024-08-05","updes":null}],"visit_count":7},"section_5_concomitant_medications":{"medications":[{"seq":"1","trt":"METFORMIN","decod":"METFORMIN","cat":"PRIOR","dose":"500","doseu":null,"dosef":"BID","route":"ORAL","indication":"DIABETES MELLITUS TYPE 2","start_dtc":"2016-04-01","end_dtc":"2024-09-02","ongoing":null,"visit":null}]},"section_6_exposure":{"exposure_as_administered":[{"seq":"1","trt":"PLACEBO","dose":"0.0","doseu":null,"dosef":"QD","route":"ORAL","lot":null,"start_dtc":"2024-04-16","end_dtc":"2024-06-22","start_dy":"1","end_dy":"68","epoch":"TREATMENT","visit":null}],"exposure_as_collected":[{"seq":"1","trt":"PLACEBO","dose":null,"doseu":null,"dosef":"QD","route":"ORAL","start_dtc":"2024-04-16","end_dtc":"2024-04-16","visit":"BASELINE"},{"seq":"2","trt":"PLACEBO","dose":null,"doseu":null,"dosef":"QD","route":"ORAL","start_dtc":"2024-04-17","end_dtc":"2024-04-17","visit":"BASELINE"},{"seq":"3","trt":"PLACEBO","dose":null,"doseu":null,"dosef":"QD","route":"ORAL","start_dtc":"2024-04-18","end_dtc":"2024-04-18","visit":"BASELINE"},{"seq":"4","trt":"PLACEBO","dose":null,"doseu":null,"dosef":"QD","route":"ORAL","start_dtc":"2024-04-19","end_dtc":"2024-04-19","visit":"BASELINE"},{"seq":"5","trt":"PLACEBO","dose":null,"doseu":null,"dosef":"QD","route":"ORAL","start_dtc":"2024-04-20","end_dtc":"2024-04-20","visit":null},{"seq":"6","trt":"PLACEBO","dose":null,"doseu":null,"dosef":"QD","route":"ORAL","start_dtc":"2024-04-21","end_dtc":"2024-04-21","visit":null},{"seq":"7","trt":"PLACEBO","dose":null,"doseu":null,"dosef":"QD","route":"ORAL","start_dtc":"2024-04-22","end_dtc":"2024-04-22","visit":null},{"seq":"8","trt":"PLACEBO","dose":null,"doseu":null,"dosef":"QD","route":"ORAL","start_dtc":"2024-04-23","end_dtc":"2024-04-23","visit":null},{"seq":"9","trt":"PLACEBO","dose":null,"doseu":null,"dosef":"QD","route":"ORAL","start_dtc":"2024-04-24","end_dtc":"2024-04-24","visit":null},{"seq":"10","trt":"PLACEBO","dose":null,"doseu":null,"dosef":"QD","route":"ORAL","start_dtc":"2024-04-25","end_dtc":"2024-04-25","visit":null},{"seq":"11","trt":"PLACEBO","dose":null,"doseu":null,"dosef":"QD","route":"ORAL","start_dtc":"2024-04-26","end_dtc":"2024-04-26","visit":null},{"seq":"12","trt":"PLACEBO","dose":null,"doseu":null,"dosef":"QD","route":"ORAL","start_dtc":"2024-04-27","end_dtc":"2024-04-27","visit":"WEEK 2"},{"seq":"13","trt":"PLACEBO","dose":null,"doseu":null,"dosef":"QD","route":"ORAL","start_dtc":"2024-04-28","end_dtc":"2024-04-28","visit":"WEEK 2"},{"seq":"14","trt":"PLACEBO","dose":null,"doseu":null,"dosef":"QD","route":"ORAL","start_dtc":"2024-04-29","end_dtc":"2024-04-29","visit":"WEEK 2"},{"seq":"15","trt":"PLACEBO","dose":null,"doseu":null,"dosef":"QD","route":"ORAL","start_dtc":"2024-04-30","end_dtc":"2024-04-30","visit":"WEEK 2"},{"seq":"16","trt":"PLACEBO","dose":null,"doseu":null,"dosef":"QD","route":"ORAL","start_dtc":"2024-05-01","end_dtc":"2024-05-01","visit":"WEEK 2"},{"seq":"17","trt":"PLACEBO","dose":null,"doseu":null,"dosef":"QD","route":"ORAL","start_dtc":"2024-05-02","end_dtc":"2024-05-02","visit":"WEEK 2"},{"seq":"18","trt":"PLACEBO","dose":null,"doseu":null,"dosef":"QD","route":"ORAL","start_dtc":"2024-05-03","end_dtc":"2024-05-03","visit":"WEEK 2"},{"seq":"19","trt":"PLACEBO","dose":null,"doseu":null,"dosef":"QD","route":"ORAL","start_dtc":"2024-05-04","end_dtc":"2024-05-04","visit":null},{"seq":"20","trt":"PLACEBO","dose":null,"doseu":null,"dosef":"QD","route":"ORAL","start_dtc":"2024-05-05","end_dtc":"2024-05-05","visit":null},{"seq":"21","trt":"PLACEBO","dose":null,"doseu":null,"dosef":"QD","route":"ORAL","start_dtc":"2024-05-06","end_dtc":"2024-05-06","visit":null},{"seq":"22","trt":"PLACEBO","dose":null,"doseu":null,"dosef":"QD","route":"ORAL","start_dtc":"2024-05-07","end_dtc":"2024-05-07","visit":null},{"seq":"23","trt":"PLACEBO","dose":null,"doseu":null,"dosef":"QD","route":"ORAL","start_dtc":"2024-05-08","end_dtc":"2024-05-08","visit":null},{"seq":"24","trt":"PLACEBO","dose":null,"doseu":null,"dosef":"QD","route":"ORAL","start_dtc":"2024-05-09","end_dtc":"2024-05-09","visit":null},{"seq":"25","trt":"PLACEBO","dose":null,"doseu":null,"dosef":"QD","route":"ORAL","start_dtc":"2024-05-10","end_dtc":"2024-05-10","visit":null},{"seq":"26","trt":"PLACEBO","dose":null,"doseu":null,"dosef":"QD","route":"ORAL","start_dtc":"2024-05-11","end_dtc":"2024-05-11","visit":"WEEK 4"},{"seq":"27","trt":"PLACEBO","dose":null,"doseu":null,"dosef":"QD","route":"ORAL","start_dtc":"2024-05-12","end_dtc":"2024-05-12","visit":"WEEK 4"},{"seq":"28","trt":"PLACEBO","dose":null,"doseu":null,"dosef":"QD","route":"ORAL","start_dtc":"2024-05-13","end_dtc":"2024-05-13","visit":"WEEK 4"},{"seq":"29","trt":"PLACEBO","dose":null,"doseu":null,"dosef":"QD","route":"ORAL","start_dtc":"2024-05-14","end_dtc":"2024-05-14","visit":"WEEK 4"},{"seq":"30","trt":"PLACEBO","dose":null,"doseu":null,"dosef":"QD","route":"ORAL","start_dtc":"2024-05-15","end_dtc":"2024-05-15","visit":"WEEK 4"},{"seq":"31","trt":"PLACEBO","dose":null,"doseu":null,"dosef":"QD","route":"ORAL","start_dtc":"2024-05-16","end_dtc":"2024-05-16","visit":"WEEK 4"},{"seq":"32","trt":"PLACEBO","dose":null,"doseu":null,"dosef":"QD","route":"ORAL","start_dtc":"2024-05-17","end_dtc":"2024-05-17","visit":"WEEK 4"},{"seq":"33","trt":"PLACEBO","dose":null,"doseu":null,"dosef":"QD","route":"ORAL","start_dtc":"2024-05-18","end_dtc":"2024-05-18","visit":null},{"seq":"34","trt":"PLACEBO","dose":null,"doseu":null,"dosef":"QD","route":"ORAL","start_dtc":"2024-05-19","end_dtc":"2024-05-19","visit":null},{"seq":"35","trt":"PLACEBO","dose":null,"doseu":null,"dosef":"QD","route":"ORAL","start_dtc":"2024-05-20","end_dtc":"2024-05-20","visit":null},{"seq":"36","trt":"PLACEBO","dose":null,"doseu":null,"dosef":"QD","route":"ORAL","start_dtc":"2024-05-21","end_dtc":"2024-05-21","visit":null},{"seq":"37","trt":"PLACEBO","dose":null,"doseu":null,"dosef":"QD","route":"ORAL","start_dtc":"2024-05-22","end_dtc":"2024-05-22","visit":null},{"seq":"38","trt":"PLACEBO","dose":null,"doseu":null,"dosef":"QD","route":"ORAL","start_dtc":"2024-05-23","end_dtc":"2024-05-23","visit":null},{"seq":"39","trt":"PLACEBO","dose":null,"doseu":null,"dosef":"QD","route":"ORAL","start_dtc":"2024-05-24","end_dtc":"2024-05-24","visit":null},{"seq":"40","trt":"PLACEBO","dose":null,"doseu":null,"dosef":"QD","route":"ORAL","start_dtc":"2024-05-25","end_dtc":"2024-05-25","visit":null},{"seq":"41","trt":"PLACEBO","dose":null,"doseu":null,"dosef":"QD","route":"ORAL","start_dtc":"2024-05-26","end_dtc":"2024-05-26","visit":null},{"seq":"42","trt":"PLACEBO","dose":null,"doseu":null,"dosef":"QD","route":"ORAL","start_dtc":"2024-05-27","end_dtc":"2024-05-27","visit":null},{"seq":"43","trt":"PLACEBO","dose":null,"doseu":null,"dosef":"QD","route":"ORAL","start_dtc":"2024-05-28","end_dtc":"2024-05-28","visit":null},{"seq":"44","trt":"PLACEBO","dose":null,"doseu":null,"dosef":"QD","route":"ORAL","start_dtc":"2024-05-29","end_dtc":"2024-05-29","visit":null},{"seq":"45","trt":"PLACEBO","dose":null,"doseu":null,"dosef":"QD","route":"ORAL","start_dtc":"2024-05-30","end_dtc":"2024-05-30","visit":null},{"seq":"46","trt":"PLACEBO","dose":null,"doseu":null,"dosef":"QD","route":"ORAL","start_dtc":"2024-05-31","end_dtc":"2024-05-31","visit":null},{"seq":"47","trt":"PLACEBO","dose":null,"doseu":null,"dosef":"QD","route":"ORAL","start_dtc":"2024-06-01","end_dtc":"2024-06-01","visit":null},{"seq":"48","trt":"PLACEBO","dose":null,"doseu":null,"dosef":"QD","route":"ORAL","start_dtc":"2024-06-02","end_dtc":"2024-06-02","visit":null},{"seq":"49","trt":"PLACEBO","dose":null,"doseu":null,"dosef":"QD","route":"ORAL","start_dtc":"2024-06-03","end_dtc":"2024-06-03","visit":null},{"seq":"50","trt":"PLACEBO","dose":null,"doseu":null,"dosef":"QD","route":"ORAL","start_dtc":"2024-06-04","end_dtc":"2024-06-04","visit":null},{"seq":"51","trt":"PLACEBO","dose":null,"doseu":null,"dosef":"QD","route":"ORAL","start_dtc":"2024-06-05","end_dtc":"2024-06-05","visit":null},{"seq":"52","trt":"PLACEBO","dose":null,"doseu":null,"dosef":"QD","route":"ORAL","start_dtc":"2024-06-06","end_dtc":"2024-06-06","visit":null},{"seq":"53","trt":"PLACEBO","dose":null,"doseu":null,"dosef":"QD","route":"ORAL","start_dtc":"2024-06-07","end_dtc":"2024-06-07","visit":null},{"seq":"54","trt":"PLACEBO","dose":null,"doseu":null,"dosef":"QD","route":"ORAL","start_dtc":"2024-06-08","end_dtc":"2024-06-08","visit":"WEEK 8"},{"seq":"55","trt":"PLACEBO","dose":null,"doseu":null,"dosef":"QD","route":"ORAL","start_dtc":"2024-06-09","end_dtc":"2024-06-09","visit":"WEEK 8"},{"seq":"56","trt":"PLACEBO","dose":null,"doseu":null,"dosef":"QD","route":"ORAL","start_dtc":"2024-06-10","end_dtc":"2024-06-10","visit":"WEEK 8"},{"seq":"57","trt":"PLACEBO","dose":null,"doseu":null,"dosef":"QD","route":"ORAL","start_dtc":"2024-06-11","end_dtc":"2024-06-11","visit":"WEEK 8"},{"seq":"58","trt":"PLACEBO","dose":null,"doseu":null,"dosef":"QD","route":"ORAL","start_dtc":"2024-06-12","end_dtc":"2024-06-12","visit":"WEEK 8"},{"seq":"59","trt":"PLACEBO","dose":null,"doseu":null,"dosef":"QD","route":"ORAL","start_dtc":"2024-06-13","end_dtc":"2024-06-13","visit":"WEEK 8"},{"seq":"60","trt":"PLACEBO","dose":null,"doseu":null,"dosef":"QD","route":"ORAL","start_dtc":"2024-06-14","end_dtc":"2024-06-14","visit":"WEEK 8"},{"seq":"61","trt":"PLACEBO","dose":null,"doseu":null,"dosef":"QD","route":"ORAL","start_dtc":"2024-06-15","end_dtc":"2024-06-15","visit":null},{"seq":"62","trt":"PLACEBO","dose":null,"doseu":null,"dosef":"QD","route":"ORAL","start_dtc":"2024-06-16","end_dtc":"2024-06-16","visit":null},{"seq":"63","trt":"PLACEBO","dose":null,"doseu":null,"dosef":"QD","route":"ORAL","start_dtc":"2024-06-17","end_dtc":"2024-06-17","visit":null},{"seq":"64","trt":"PLACEBO","dose":null,"doseu":null,"dosef":"QD","route":"ORAL","start_dtc":"2024-06-18","end_dtc":"2024-06-18","visit":null},{"seq":"65","trt":"PLACEBO","dose":null,"doseu":null,"dosef":"QD","route":"ORAL","start_dtc":"2024-06-19","end_dtc":"2024-06-19","visit":null},{"seq":"66","trt":"PLACEBO","dose":null,"doseu":null,"dosef":"QD","route":"ORAL","start_dtc":"2024-06-20","end_dtc":"2024-06-20","visit":null},{"seq":"67","trt":"PLACEBO","dose":null,"doseu":null,"dosef":"QD","route":"ORAL","start_dtc":"2024-06-21","end_dtc":"2024-06-21","visit":null},{"seq":"68","trt":"PLACEBO","dose":null,"doseu":null,"dosef":"QD","route":"ORAL","start_dtc":"2024-06-22","end_dtc":"2024-06-22","visit":null}]},"section_7_adverse_events":{"summary":{"total_aes":1,"serious_aes":0,"fatal_aes":0,"by_severity":{"MILD":1},"by_soc":{"Infections and infestations":1}},"events":[{"seq":"1","term":"BRONCHITIS","decod":"Bronchitis","llt":"Bronchitis","hlt":"Lower respiratory tract and lung infections","hlgt":"Infections NEC","soc":"Infections and infestations","bodsys":"Infections and infestations","severity":"MILD","serious":"N","causality":"NOT RELATED","action_taken":"DOSE NOT CHANGED","outcome":"RECOVERED/RESOLVED","fatal":"N","hospitalization":"N","life_threatening":"N","onset_dtc":"2024-05-06","end_dtc":"2024-05-11","onset_dy":"21","end_dy":"26","duration":null,"epoch":"TREATMENT","visit":null,"supplemental":{"AETRTEM":"Y"}}]},"section_8_laboratory_results":{"summary":{"total_records":49,"abnormal_count":14,"abnormal_pct":28.6},"shift_summary":[{"testcd":"ALT","baseline_value":39.52,"baseline_nrind":"NORMAL","worst_post_baseline_value":42.62,"worst_post_baseline_nrind":"NORMAL","worst_visit":"WEEK 4"},{"testcd":"AST","baseline_value":13.85,"baseline_nrind":"NORMAL","worst_post_baseline_value":14.69,"worst_post_baseline_nrind":"NORMAL","worst_visit":"WEEK 8"},{"testcd":"CREAT","baseline_value":120.77,"baseline_nrind":"HIGH","worst_post_baseline_value":125.52,"worst_post_baseline_nrind":"HIGH","worst_visit":"WEEK 2"},{"testcd":"GLUC","baseline_value":6.35,"baseline_nrind":"HIGH","worst_post_baseline_value":6.71,"worst_post_baseline_nrind":"HIGH","worst_visit":"FOLLOW-UP"},{"testcd":"HGB","baseline_value":124.41,"baseline_nrind":"NORMAL","worst_post_baseline_value":121.54,"worst_post_baseline_nrind":"NORMAL","worst_visit":"WEEK 8"},{"testcd":"PLAT","baseline_value":252.03,"baseline_nrind":"NORMAL","worst_post_baseline_value":257.66,"worst_post_baseline_nrind":"NORMAL","worst_visit":"BASELINE"},{"testcd":"WBC","baseline_value":7.75,"baseline_nrind":"NORMAL","worst_post_baseline_value":7.38,"worst_post_baseline_nrind":"NORMAL","worst_visit":"FOLLOW-UP"}],"results":[{"seq":"1","testcd":"ALT","test":"Alanine Aminotransferase","cat":"CHEMISTRY","orres":"39.52","orresu":"U/L","stresc":"39.52","stresn":"39.52","stresu":"U/L","stnrlo":"7","stnrhi":"56","nrind":"NORMAL","fast":null,"dtc":"2024-03-20","dy":"-27","visit":"SCREENING","visitnum":"1.0","epoch":"SCREENING","spec":null,"method":null},{"seq":"2","testcd":"AST","test":"Aspartate Aminotransferase","cat":"CHEMISTRY","orres":"13.85","orresu":"U/L","stresc":"13.85","stresn":"13.85","stresu":"U/L","stnrlo":"10","stnrhi":"40","nrind":"NORMAL","fast":null,"dtc":"2024-03-20","dy":"-27","visit":"SCREENING","visitnum":"1.0","epoch":"SCREENING","spec":null,"method":null},{"seq":"3","testcd":"CREAT","test":"Creatinine","cat":"CHEMISTRY","orres":"120.77","orresu":"umol/L","stresc":"120.77","stresn":"120.77","stresu":"umol/L","stnrlo":"44","stnrhi":"80","nrind":"HIGH","fast":null,"dtc":"2024-03-20","dy":"-27","visit":"SCREENING","visitnum":"1.0","epoch":"SCREENING","spec":null,"method":null},{"seq":"4","testcd":"GLUC","test":"Glucose","cat":"CHEMISTRY","orres":"6.35","orresu":"mmol/L","stresc":"6.35","stresn":"6.35","stresu":"mmol/L","stnrlo":"3.9","stnrhi":"5.6","nrind":"HIGH","fast":null,"dtc":"2024-03-20","dy":"-27","visit":"SCREENING","visitnum":"1.0","epoch":"SCREENING","spec":null,"method":null},{"seq":"5","testcd":"HGB","test":"Hemoglobin","cat":"HEMATOLOGY","orres":"124.41","orresu":"g/L","stresc":"124.41","stresn":"124.41","stresu":"g/L","stnrlo":"120","stnrhi":"155","nrind":"NORMAL","fast":null,"dtc":"2024-03-20","dy":"-27","visit":"SCREENING","visitnum":"1.0","epoch":"SCREENING","spec":null,"method":null},{"seq":"6","testcd":"PLAT","test":"Platelets","cat":"HEMATOLOGY","orres":"252.03","orresu":"10^9/L","stresc":"252.03","stresn":"252.03","stresu":"10^9/L","stnrlo":"150","stnrhi":"400","nrind":"NORMAL","fast":null,"dtc":"2024-03-20","dy":"-27","visit":"SCREENING","visitnum":"1.0","epoch":"SCREENING","spec":null,"method":null},{"seq":"7","testcd":"WBC","test":"Leukocytes","cat":"HEMATOLOGY","orres":"7.75","orresu":"10^9/L","stresc":"7.75","stresn":"7.75","stresu":"10^9/L","stnrlo":"4.0","stnrhi":"11.0","nrind":"NORMAL","fast":null,"dtc":"2024-03-20","dy":"-27","visit":"SCREENING","visitnum":"1.0","epoch":"SCREENING","spec":null,"method":null},{"seq":"8","testcd":"ALT","test":"Alanine Aminotransferase","cat":"CHEMISTRY","orres":"40.3","orresu":"U/L","stresc":"40.3","stresn":"40.3","stresu":"U/L","stnrlo":"7","stnrhi":"56","nrind":"NORMAL","fast":null,"dtc":"2024-04-16","dy":"1","visit":"BASELINE","visitnum":"2.0","epoch":"TREATMENT","spec":null,"method":null},{"seq":"9","testcd":"AST","test":"Aspartate Aminotransferase","cat":"CHEMISTRY","orres":"13.22","orresu":"U/L","stresc":"13.22","stresn":"13.22","stresu":"U/L","stnrlo":"10","stnrhi":"40","nrind":"NORMAL","fast":null,"dtc":"2024-04-16","dy":"1","visit":"BASELINE","visitnum":"2.0","epoch":"TREATMENT","spec":null,"method":null},{"seq":"10","testcd":"CREAT","test":"Creatinine","cat":"CHEMISTRY","orres":"123.44","orresu":"umol/L","stresc":"123.44","stresn":"123.44","stresu":"umol/L","stnrlo":"44","stnrhi":"80","nrind":"HIGH","fast":null,"dtc":"2024-04-16","dy":"1","visit":"BASELINE","visitnum":"2.0","epoch":"TREATMENT","spec":null,"method":null},{"seq":"11","testcd":"GLUC","test":"Glucose","cat":"CHEMISTRY","orres":"6.54","orresu":"mmol/L","stresc":"6.54","stresn":"6.54","stresu":"mmol/L","stnrlo":"3.9","stnrhi":"5.6","nrind":"HIGH","fast":null,"dtc":"2024-04-16","dy":"1","visit":"BASELINE","visitnum":"2.0","epoch":"TREATMENT","spec":null,"method":null},{"seq":"12","testcd":"HGB","test":"Hemoglobin","cat":"HEMATOLOGY","orres":"127.31","orresu":"g/L","stresc":"127.31","stresn":"127.31","stresu":"g/L","stnrlo":"120","stnrhi":"155","nrind":"NORMAL","fast":null,"dtc":"2024-04-16","dy":"1","visit":"BASELINE","visitnum":"2.0","epoch":"TREATMENT","spec":null,"method":null},{"seq":"13","testcd":"PLAT","test":"Platelets","cat":"HEMATOLOGY","orres":"257.66","orresu":"10^9/L","stresc":"257.66","stresn":"257.66","stresu":"10^9/L","stnrlo":"150","stnrhi":"400","nrind":"NORMAL","fast":null,"dtc":"2024-04-16","dy":"1","visit":"BASELINE","visitnum":"2.0","epoch":"TREATMENT","spec":null,"method":null},{"seq":"14","testcd":"WBC","test":"Leukocytes","cat":"HEMATOLOGY","orres":"6.93","orresu":"10^9/L","stresc":"6.93","stresn":"6.93","stresu":"10^9/L","stnrlo":"4.0","stnrhi":"11.0","nrind":"NORMAL","fast":null,"dtc":"2024-04-16","dy":"1","visit":"BASELINE","visitnum":"2.0","epoch":"TREATMENT","spec":null,"method":null},{"seq":"15","testcd":"ALT","test":"Alanine Aminotransferase","cat":"CHEMISTRY","orres":null,"orresu":null,"stresc":null,"stresn":null,"stresu":null,"stnrlo":null,"stnrhi":null,"nrind":null,"fast":null,"dtc":"2024-05-02","dy":"17","visit":"WEEK 2","visitnum":"3.0","epoch":"TREATMENT","spec":null,"method":null},{"seq":"16","testcd":"AST","test":"Aspartate Aminotransferase","cat":"CHEMISTRY","orres":"11.91","orresu":"U/L","stresc":"11.91","stresn":"11.91","stresu":"U/L","stnrlo":"10","stnrhi":"40","nrind":"NORMAL","fast":null,"dtc":"2024-05-02","dy":"17","visit":"WEEK 2","visitnum":"3.0","epoch":"TREATMENT","spec":null,"method":null},{"seq":"17","testcd":"CREAT","test":"Creatinine","cat":"CHEMISTRY","orres":"125.52","orresu":"umol/L","stresc":"125.52","stresn":"125.52","stresu":"umol/L","stnrlo":"44","stnrhi":"80","nrind":"HIGH","fast":null,"dtc":"2024-05-02","dy":"17","visit":"WEEK 2","visitnum":"3.0","epoch":"TREATMENT","spec":null,"method":null},{"seq":"18","testcd":"GLUC","test":"Glucose","cat":"CHEMISTRY","orres":"6.64","orresu":"mmol/L","stresc":"6.64","stresn":"6.64","stresu":"mmol/L","stnrlo":"3.9","stnrhi":"5.6","nrind":"HIGH","fast":null,"dtc":"2024-05-02","dy":"17","visit":"WEEK 2","visitnum":"3.0","epoch":"TREATMENT","spec":null,"method":null},{"seq":"19","testcd":"HGB","test":"Hemoglobin","cat":"HEMATOLOGY","orres":"124.29","orresu":"g/L","stresc":"124.29","stresn":"124.29","stresu":"g/L","stnrlo":"120","stnrhi":"155","nrind":"NORMAL","fast":null,"dtc":"2024-05-02","dy":"17","visit":"WEEK 2","visitnum":"3.0","epoch":"TREATMENT","spec":null,"method":null},{"seq":"20","testcd":"PLAT","test":"Platelets","cat":"HEMATOLOGY","orres":"254.94","orresu":"10^9/L","stresc":"254.94","stresn":"254.94","stresu":"10^9/L","stnrlo":"150","stnrhi":"400","nrind":"NORMAL","fast":null,"dtc":"2024-05-02","dy":"17","visit":"WEEK 2","visitnum":"3.0","epoch":"TREATMENT","spec":null,"method":null},{"seq":"21","testcd":"WBC","test":"Leukocytes","cat":"HEMATOLOGY","orres":"7.36","orresu":"10^9/L","stresc":"7.36","stresn":"7.36","stresu":"10^9/L","stnrlo":"4.0","stnrhi":"11.0","nrind":"NORMAL","fast":null,"dtc":"2024-05-02","dy":"17","visit":"WEEK 2","visitnum":"3.0","epoch":"TREATMENT","spec":null,"method":null},{"seq":"22","testcd":"ALT","test":"Alanine Aminotransferase","cat":"CHEMISTRY","orres":"42.62","orresu":"U/L","stresc":"42.62","stresn":"42.62","stresu":"U/L","stnrlo":"7","stnrhi":"56","nrind":"NORMAL","fast":null,"dtc":"2024-05-16","dy":"31","visit":"WEEK 4","visitnum":"4.0","epoch":"TREATMENT","spec":null,"method":null},{"seq":"23","testcd":"AST","test":"Aspartate Aminotransferase","cat":"CHEMISTRY","orres":"12.8","orresu":"U/L","stresc":"12.8","stresn":"12.8","stresu":"U/L","stnrlo":"10","stnrhi":"40","nrind":"NORMAL","fast":null,"dtc":"2024-05-16","dy":"31","visit":"WEEK 4","visitnum":"4.0","epoch":"TREATMENT","spec":null,"method":null},{"seq":"24","testcd":"CREAT","test":"Creatinine","cat":"CHEMISTRY","orres":"123.64","orresu":"umol/L","stresc":"123.64","stresn":"123.64","stresu":"umol/L","stnrlo":"44","stnrhi":"80","nrind":"HIGH","fast":null,"dtc":"2024-05-16","dy":"31","visit":"WEEK 4","visitnum":"4.0","epoch":"TREATMENT","spec":null,"method":null},{"seq":"25","testcd":"GLUC","test":"Glucose","cat":"CHEMISTRY","orres":"6.68","orresu":"mmol/L","stresc":"6.68","stresn":"6.68","stresu":"mmol/L","stnrlo":"3.9","stnrhi":"5.6","nrind":"HIGH","fast":null,"dtc":"2024-05-16","dy":"31","visit":"WEEK 4","visitnum":"4.0","epoch":"TREATMENT","spec":null,"method":null},{"seq":"26","testcd":"HGB","test":"Hemoglobin","cat":"HEMATOLOGY","orres":"124.0","orresu":"g/L","stresc":"124.0","stresn":"124.0","stresu":"g/L","stnrlo":"120","stnrhi":"155","nrind":"NORMAL","fast":null,"dtc":"2024-05-16","dy":"31","visit":"WEEK 4","visitnum":"4.0","epoch":"TREATMENT","spec":null,"method":null},{"seq":"27","testcd":"PLAT","test":"Platelets","cat":"HEMATOLOGY","orres":"252.72","orresu":"10^9/L","stresc":"252.72","stresn":"252.72","stresu":"10^9/L","stnrlo":"150","stnrhi":"400","nrind":"NORMAL","fast":null,"dtc":"2024-05-16","dy":"31","visit":"WEEK 4","visitnum":"4.0","epoch":"TREATMENT","spec":null,"method":null},{"seq":"28","testcd":"WBC","test":"Leukocytes","cat":"HEMATOLOGY","orres":"6.78","orresu":"10^9/L","stresc":"6.78","stresn":"6.78","stresu":"10^9/L","stnrlo":"4.0","stnrhi":"11.0","nrind":"NORMAL","fast":null,"dtc":"2024-05-16","dy":"31","visit":"WEEK 4","visitnum":"4.0","epoch":"TREATMENT","spec":null,"method":null},{"seq":"29","testcd":"ALT","test":"Alanine Aminotransferase","cat":"CHEMISTRY","orres":"41.18","orresu":"U/L","stresc":"41.18","stresn":"41.18","stresu":"U/L","stnrlo":"7","stnrhi":"56","nrind":"NORMAL","fast":null,"dtc":"2024-06-10","dy":"56","visit":"WEEK 8","visitnum":"5.0","epoch":"TREATMENT","spec":null,"method":null},{"seq":"30","testcd":"AST","test":"Aspartate Aminotransferase","cat":"CHEMISTRY","orres":"14.69","orresu":"U/L","stresc":"14.69","stresn":"14.69","stresu":"U/L","stnrlo":"10","stnrhi":"40","nrind":"NORMAL","fast":null,"dtc":"2024-06-10","dy":"56","visit":"WEEK 8","visitnum":"5.0","epoch":"TREATMENT","spec":null,"method":null},{"seq":"31","testcd":"CREAT","test":"Creatinine","cat":"CHEMISTRY","orres":"122.53","orresu":"umol/L","stresc":"122.53","stresn":"122.53","stresu":"umol/L","stnrlo":"44","stnrhi":"80","nrind":"HIGH","fast":null,"dtc":"2024-06-10","dy":"56","visit":"WEEK 8","visitnum":"5.0","epoch":"TREATMENT","spec":null,"method":null},{"seq":"32","testcd":"GLUC","test":"Glucose","cat":"CHEMISTRY","orres":"6.64","orresu":"mmol/L","stresc":"6.64","stresn":"6.64","stresu":"mmol/L","stnrlo":"3.9","stnrhi":"5.6","nrind":"HIGH","fast":null,"dtc":"2024-06-10","dy":"56","visit":"WEEK 8","visitnum":"5.0","epoch":"TREATMENT","spec":null,"method":null},{"seq":"33","testcd":"HGB","test":"Hemoglobin","cat":"HEMATOLOGY","orres":"121.54","orresu":"g/L","stresc":"121.54","stresn":"121.54","stresu":"g/L","stnrlo":"120","stnrhi":"155","nrind":"NORMAL","fast":null,"dtc":"2024-06-10","dy":"56","visit":"WEEK 8","visitnum":"5.0","epoch":"TREATMENT","spec":null,"method":null},{"seq":"34","testcd":"PLAT","test":"Platelets","cat":"HEMATOLOGY","orres":"253.61","orresu":"10^9/L","stresc":"253.61","stresn":"253.61","stresu":"10^9/L","stnrlo":"150","stnrhi":"400","nrind":"NORMAL","fast":null,"dtc":"2024-06-10","dy":"56","visit":"WEEK 8","visitnum":"5.0","epoch":"TREATMENT","spec":null,"method":null},{"seq":"35","testcd":"WBC","test":"Leukocytes","cat":"HEMATOLOGY","orres":"7.13","orresu":"10^9/L","stresc":"7.13","stresn":"7.13","stresu":"10^9/L","stnrlo":"4.0","stnrhi":"11.0","nrind":"NORMAL","fast":null,"dtc":"2024-06-10","dy":"56","visit":"WEEK 8","visitnum":"5.0","epoch":"TREATMENT","spec":null,"method":null},{"seq":"36","testcd":"ALT","test":"Alanine Aminotransferase","cat":"CHEMISTRY","orres":"39.41","orresu":"U/L","stresc":"39.41","stresn":"39.41","stresu":"U/L","stnrlo":"7","stnrhi":"56","nrind":"NORMAL","fast":null,"dtc":"2024-07-09","dy":"85","visit":"WEEK 12","visitnum":"6.0","epoch":"TREATMENT","spec":null,"method":null},{"seq":"37","testcd":"AST","test":"Aspartate Aminotransferase","cat":"CHEMISTRY","orres":"12.15","orresu":"U/L","stresc":"12.15","stresn":"12.15","stresu":"U/L","stnrlo":"10","stnrhi":"40","nrind":"NORMAL","fast":null,"dtc":"2024-07-09","dy":"85","visit":"WEEK 12","visitnum":"6.0","epoch":"TREATMENT","spec":null,"method":null},{"seq":"38","testcd":"CREAT","test":"Creatinine","cat":"CHEMISTRY","orres":"122.11","orresu":"umol/L","stresc":"122.11","stresn":"122.11","stresu":"umol/L","stnrlo":"44","stnrhi":"80","nrind":"HIGH","fast":null,"dtc":"2024-07-09","dy":"85","visit":"WEEK 12","visitnum":"6.0","epoch":"TREATMENT","spec":null,"method":null},{"seq":"39","testcd":"GLUC","test":"Glucose","cat":"CHEMISTRY","orres":"6.63","orresu":"mmol/L","stresc":"6.63","stresn":"6.63","stresu":"mmol/L","stnrlo":"3.9","stnrhi":"5.6","nrind":"HIGH","fast":null,"dtc":"2024-07-09","dy":"85","visit":"WEEK 12","visitnum":"6.0","epoch":"TREATMENT","spec":null,"method":null},{"seq":"40","testcd":"HGB","test":"Hemoglobin","cat":"HEMATOLOGY","orres":"123.7","orresu":"g/L","stresc":"123.7","stresn":"123.7","stresu":"g/L","stnrlo":"120","stnrhi":"155","nrind":"NORMAL","fast":null,"dtc":"2024-07-09","dy":"85","visit":"WEEK 12","visitnum":"6.0","epoch":"TREATMENT","spec":null,"method":null},{"seq":"41","testcd":"PLAT","test":"Platelets","cat":"HEMATOLOGY","orres":"244.64","orresu":"10^9/L","stresc":"244.64","stresn":"244.64","stresu":"10^9/L","stnrlo":"150","stnrhi":"400","nrind":"NORMAL","fast":null,"dtc":"2024-07-09","dy":"85","visit":"WEEK 12","visitnum":"6.0","epoch":"TREATMENT","spec":null,"method":null},{"seq":"42","testcd":"WBC","test":"Leukocytes","cat":"HEMATOLOGY","orres":"6.81","orresu":"10^9/L","stresc":"6.81","stresn":"6.81","stresu":"10^9/L","stnrlo":"4.0","stnrhi":"11.0","nrind":"NORMAL","fast":null,"dtc":"2024-07-09","dy":"85","visit":"WEEK 12","visitnum":"6.0","epoch":"TREATMENT","spec":null,"method":null},{"seq":"43","testcd":"ALT","test":"Alanine Aminotransferase","cat":"CHEMISTRY","orres":"41.18","orresu":"U/L","stresc":"41.18","stresn":"41.18","stresu":"U/L","stnrlo":"7","stnrhi":"56","nrind":"NORMAL","fast":null,"dtc":"2024-08-12","dy":"119","visit":"FOLLOW-UP","visitnum":"7.0","epoch":"FOLLOW-UP","spec":null,"method":null},{"seq":"44","testcd":"AST","test":"Aspartate Aminotransferase","cat":"CHEMISTRY","orres":"13.43","orresu":"U/L","stresc":"13.43","stresn":"13.43","stresu":"U/L","stnrlo":"10","stnrhi":"40","nrind":"NORMAL","fast":null,"dtc":"2024-08-12","dy":"119","visit":"FOLLOW-UP","visitnum":"7.0","epoch":"FOLLOW-UP","spec":null,"method":null},{"seq":"45","testcd":"CREAT","test":"Creatinine","cat":"CHEMISTRY","orres":"121.27","orresu":"umol/L","stresc":"121.27","stresn":"121.27","stresu":"umol/L","stnrlo":"44","stnrhi":"80","nrind":"HIGH","fast":null,"dtc":"2024-08-12","dy":"119","visit":"FOLLOW-UP","visitnum":"7.0","epoch":"FOLLOW-UP","spec":null,"method":null},{"seq":"46","testcd":"GLUC","test":"Glucose","cat":"CHEMISTRY","orres":"6.71","orresu":"mmol/L","stresc":"6.71","stresn":"6.71","stresu":"mmol/L","stnrlo":"3.9","stnrhi":"5.6","nrind":"HIGH","fast":null,"dtc":"2024-08-12","dy":"119","visit":"FOLLOW-UP","visitnum":"7.0","epoch":"FOLLOW-UP","spec":null,"method":null},{"seq":"47","testcd":"HGB","test":"Hemoglobin","cat":"HEMATOLOGY","orres":"124.05","orresu":"g/L","stresc":"124.05","stresn":"124.05","stresu":"g/L","stnrlo":"120","stnrhi":"155","nrind":"NORMAL","fast":null,"dtc":"2024-08-12","dy":"119","visit":"FOLLOW-UP","visitnum":"7.0","epoch":"FOLLOW-UP","spec":null,"method":null},{"seq":"48","testcd":"PLAT","test":"Platelets","cat":"HEMATOLOGY","orres":"239.16","orresu":"10^9/L","stresc":"239.16","stresn":"239.16","stresu":"10^9/L","stnrlo":"150","stnrhi":"400","nrind":"NORMAL","fast":null,"dtc":"2024-08-12","dy":"119","visit":"FOLLOW-UP","visitnum":"7.0","epoch":"FOLLOW-UP","spec":null,"method":null},{"seq":"49","testcd":"WBC","test":"Leukocytes","cat":"HEMATOLOGY","orres":"7.38","orresu":"10^9/L","stresc":"7.38","stresn":"7.38","stresu":"10^9/L","stnrlo":"4.0","stnrhi":"11.0","nrind":"NORMAL","fast":null,"dtc":"2024-08-12","dy":"119","visit":"FOLLOW-UP","visitnum":"7.0","epoch":"FOLLOW-UP","spec":null,"method":null}]},"section_9_vital_signs":{"summary":{"total_records":55},"trends":{"BMI":[{"visit":"SCREENING","visitnum":"1.0","dtc":"2024-03-20","value":"21.5","unit":"kg/m2"},{"visit":"BASELINE","visitnum":"2.0","dtc":"2024-04-16","value":"21.2","unit":"kg/m2"},{"visit":"WEEK 2","visitnum":"3.0","dtc":"2024-05-02","value":"21.0","unit":"kg/m2"},{"visit":"WEEK 4","visitnum":"4.0","dtc":"2024-05-16","value":"21.3","unit":"kg/m2"},{"visit":"WEEK 8","visitnum":"5.0","dtc":"2024-06-10","value":"21.7","unit":"kg/m2"},{"visit":"FOLLOW-UP","visitnum":"7.0","dtc":"2024-08-12","value":"19.6","unit":"kg/m2"}],"DIABP":[{"visit":"SCREENING","visitnum":"1.0","dtc":"2024-03-20","value":"79.7","unit":"mmHg"},{"visit":"BASELINE","visitnum":"2.0","dtc":"2024-04-16","value":"78.7","unit":"mmHg"},{"visit":"WEEK 2","visitnum":"3.0","dtc":"2024-05-02","value":"78.9","unit":"mmHg"},{"visit":"WEEK 4","visitnum":"4.0","dtc":"2024-05-16","value":"79.4","unit":"mmHg"},{"visit":"WEEK 8","visitnum":"5.0","dtc":"2024-06-10","value":"80.5","unit":"mmHg"},{"visit":"WEEK 12","visitnum":"6.0","dtc":"2024-07-09","value":"78.5","unit":"mmHg"},{"visit":"FOLLOW-UP","visitnum":"7.0","dtc":"2024-08-12","value":"77.4","unit":"mmHg"}],"HEIGHT":[{"visit":"SCREENING","visitnum":"1.0","dtc":"2024-03-20","value":"154.7","unit":"cm"},{"visit":"BASELINE","visitnum":"2.0","dtc":"2024-04-16","value":"154.3","unit":"cm"},{"visit":"WEEK 2","visitnum":"3.0","dtc":"2024-05-02","value":"154.3","unit":"cm"},{"visit":"WEEK 4","visitnum":"4.0","dtc":"2024-05-16","value":"154.9","unit":"cm"},{"visit":"WEEK 8","visitnum":"5.0","dtc":"2024-06-10","value":"153.9","unit":"cm"},{"visit":"FOLLOW-UP","visitnum":"7.0","dtc":"2024-08-12","value":"154.5","unit":"cm"}],"PULSE":[{"visit":"SCREENING","visitnum":"1.0","dtc":"2024-03-20","value":"67.4","unit":"beats/min"},{"visit":"BASELINE","visitnum":"2.0","dtc":"2024-04-16","value":"63.6","unit":"beats/min"},{"visit":"WEEK 2","visitnum":"3.0","dtc":"2024-05-02","value":"63.6","unit":"beats/min"},{"visit":"WEEK 4","visitnum":"4.0","dtc":"2024-05-16","value":"68.9","unit":"beats/min"},{"visit":"WEEK 8","visitnum":"5.0","dtc":"2024-06-10","value":"71.6","unit":"beats/min"},{"visit":"WEEK 12","visitnum":"6.0","dtc":"2024-07-09","value":"71.4","unit":"beats/min"},{"visit":"FOLLOW-UP","visitnum":"7.0","dtc":"2024-08-12","value":"71.3","unit":"beats/min"}],"RESP":[{"visit":"SCREENING","visitnum":"1.0","dtc":"2024-03-20","value":"14.2","unit":"breaths/min"},{"visit":"BASELINE","visitnum":"2.0","dtc":"2024-04-16","value":"15.2","unit":"breaths/min"},{"visit":"WEEK 2","visitnum":"3.0","dtc":"2024-05-02","value":"15.7","unit":"breaths/min"},{"visit":"WEEK 4","visitnum":"4.0","dtc":"2024-05-16","value":"16.1","unit":"breaths/min"},{"visit":"WEEK 8","visitnum":"5.0","dtc":"2024-06-10","value":"15.5","unit":"breaths/min"},{"visit":"WEEK 12","visitnum":"6.0","dtc":"2024-07-09","value":"13.8","unit":"breaths/min"},{"visit":"FOLLOW-UP","visitnum":"7.0","dtc":"2024-08-12","value":"13.6","unit":"breaths/min"}],"SYSBP":[{"visit":"SCREENING","visitnum":"1.0","dtc":"2024-03-20","value":"95.7","unit":"mmHg"},{"visit":"WEEK 2","visitnum":"3.0","dtc":"2024-05-02","value":"94.9","unit":"mmHg"},{"visit":"WEEK 4","visitnum":"4.0","dtc":"2024-05-16","value":"95.7","unit":"mmHg"},{"visit":"WEEK 8","visitnum":"5.0","dtc":"2024-06-10","value":"94.7","unit":"mmHg"},{"visit":"WEEK 12","visitnum":"6.0","dtc":"2024-07-09","value":"93.8","unit":"mmHg"},{"visit":"FOLLOW-UP","visitnum":"7.0","dtc":"2024-08-12","value":"92.0","unit":"mmHg"}],"TEMP":[{"visit":"SCREENING","visitnum":"1.0","dtc":"2024-03-20","value":"36.8","unit":"C"},{"visit":"BASELINE","visitnum":"2.0","dtc":"2024-04-16","value":"36.8","unit":"C"},{"visit":"WEEK 2","visitnum":"3.0","dtc":"2024-05-02","value":"36.8","unit":"C"},{"visit":"WEEK 4","visitnum":"4.0","dtc":"2024-05-16","value":"36.6","unit":"C"},{"visit":"WEEK 8","visitnum":"5.0","dtc":"2024-06-10","value":"36.9","unit":"C"},{"visit":"WEEK 12","visitnum":"6.0","dtc":"2024-07-09","value":"36.7","unit":"C"},{"visit":"FOLLOW-UP","visitnum":"7.0","dtc":"2024-08-12","value":"36.9","unit":"C"}],"WEIGHT":[{"visit":"SCREENING","visitnum":"1.0","dtc":"2024-03-20","value":"51.5","unit":"kg"},{"visit":"BASELINE","visitnum":"2.0","dtc":"2024-04-16","value":"50.4","unit":"kg"},{"visit":"WEEK 2","visitnum":"3.0","dtc":"2024-05-02","value":"50.0","unit":"kg"},{"visit":"WEEK 4","visitnum":"4.0","dtc":"2024-05-16","value":"51.0","unit":"kg"},{"visit":"WEEK 8","visitnum":"5.0","dtc":"2024-06-10","value":"51.5","unit":"kg"},{"visit":"WEEK 12","visitnum":"6.0","dtc":"2024-07-09","value":"48.1","unit":"kg"},{"visit":"FOLLOW-UP","visitnum":"7.0","dtc":"2024-08-12","value":"46.7","unit":"kg"}]},"results":[{"seq":"1","testcd":"BMI","test":"BMI","cat":null,"orres":"21.5","orresu":"kg/m2","stresc":"21.5","stresn":"21.5","stresu":"kg/m2","stnrlo":null,"stnrhi":null,"nrind":null,"pos":null,"loc":null,"dtc":"2024-03-20","dy":"-27","visit":"SCREENING","visitnum":"1.0","epoch":"SCREENING"},{"seq":"2","testcd":"DIABP","test":"Diastolic Blood Pressure","cat":null,"orres":"79.7","orresu":"mmHg","stresc":"79.7","stresn":"79.7","stresu":"mmHg","stnrlo":null,"stnrhi":null,"nrind":null,"pos":null,"loc":null,"dtc":"2024-03-20","dy":"-27","visit":"SCREENING","visitnum":"1.0","epoch":"SCREENING"},{"seq":"3","testcd":"HEIGHT","test":"Height","cat":null,"orres":"154.7","orresu":"cm","stresc":"154.7","stresn":"154.7","stresu":"cm","stnrlo":null,"stnrhi":null,"nrind":null,"pos":null,"loc":null,"dtc":"2024-03-20","dy":"-27","visit":"SCREENING","visitnum":"1.0","epoch":"SCREENING"},{"seq":"4","testcd":"PULSE","test":"Pulse Rate","cat":null,"orres":"67.4","orresu":"beats/min","stresc":"67.4","stresn":"67.4","stresu":"beats/min","stnrlo":null,"stnrhi":null,"nrind":null,"pos":null,"loc":null,"dtc":"2024-03-20","dy":"-27","visit":"SCREENING","visitnum":"1.0","epoch":"SCREENING"},{"seq":"5","testcd":"RESP","test":"Respiratory Rate","cat":null,"orres":"14.2","orresu":"breaths/min","stresc":"14.2","stresn":"14.2","stresu":"breaths/min","stnrlo":null,"stnrhi":null,"nrind":null,"pos":null,"loc":null,"dtc":"2024-03-20","dy":"-27","visit":"SCREENING","visitnum":"1.0","epoch":"SCREENING"},{"seq":"6","testcd":"SYSBP","test":"Systolic Blood Pressure","cat":null,"orres":"95.7","orresu":"mmHg","stresc":"95.7","stresn":"95.7","stresu":"mmHg","stnrlo":null,"stnrhi":null,"nrind":null,"pos":null,"loc":null,"dtc":"2024-03-20","dy":"-27","visit":"SCREENING","visitnum":"1.0","epoch":"SCREENING"},{"seq":"7","testcd":"TEMP","test":"Temperature","cat":null,"orres":"36.8","orresu":"C","stresc":"36.8","stresn":"36.8","stresu":"C","stnrlo":null,"stnrhi":null,"nrind":null,"pos":null,"loc":null,"dtc":"2024-03-20","dy":"-27","visit":"SCREENING","visitnum":"1.0","epoch":"SCREENING"},{"seq":"8","testcd":"WEIGHT","test":"Weight","cat":null,"orres":"51.5","orresu":"kg","stresc":"51.5","stresn":"51.5","stresu":"kg","stnrlo":null,"stnrhi":null,"nrind":null,"pos":null,"loc":null,"dtc":"2024-03-20","dy":"-27","visit":"SCREENING","visitnum":"1.0","epoch":"SCREENING"},{"seq":"9","testcd":"BMI","test":"BMI","cat":null,"orres":"21.2","orresu":"kg/m2","stresc":"21.2","stresn":"21.2","stresu":"kg/m2","stnrlo":null,"stnrhi":null,"nrind":null,"pos":null,"loc":null,"dtc":"2024-04-16","dy":"1","visit":"BASELINE","visitnum":"2.0","epoch":"TREATMENT"},{"seq":"10","testcd":"DIABP","test":"Diastolic Blood Pressure","cat":null,"orres":"78.7","orresu":"mmHg","stresc":"78.7","stresn":"78.7","stresu":"mmHg","stnrlo":null,"stnrhi":null,"nrind":null,"pos":null,"loc":null,"dtc":"2024-04-16","dy":"1","visit":"BASELINE","visitnum":"2.0","epoch":"TREATMENT"},{"seq":"11","testcd":"HEIGHT","test":"Height","cat":null,"orres":"154.3","orresu":"cm","stresc":"154.3","stresn":"154.3","stresu":"cm","stnrlo":null,"stnrhi":null,"nrind":null,"pos":null,"loc":null,"dtc":"2024-04-16","dy":"1","visit":"BASELINE","visitnum":"2.0","epoch":"TREATMENT"},{"seq":"12","testcd":"PULSE","test":"Pulse Rate","cat":null,"orres":"63.6","orresu":"beats/min","stresc":"63.6","stresn":"63.6","stresu":"beats/min","stnrlo":null,"stnrhi":null,"nrind":null,"pos":null,"loc":null,"dtc":"2024-04-16","dy":"1","visit":"BASELINE","visitnum":"2.0","epoch":"TREATMENT"},{"seq":"13","testcd":"RESP","test":"Respiratory Rate","cat":null,"orres":"15.2","orresu":"breaths/min","stresc":"15.2","stresn":"15.2","stresu":"breaths/min","stnrlo":null,"stnrhi":null,"nrind":null,"pos":null,"loc":null,"dtc":"2024-04-16","dy":"1","visit":"BASELINE","visitnum":"2.0","epoch":"TREATMENT"},{"seq":"14","testcd":"SYSBP","test":"Systolic Blood Pressure","cat":null,"orres":null,"orresu":null,"stresc":null,"stresn":null,"stresu":null,"stnrlo":null,"stnrhi":null,"nrind":null,"pos":null,"loc":null,"dtc":"2024-04-16","dy":"1","visit":"BASELINE","visitnum":"2.0","epoch":"TREATMENT"},{"seq":"15","testcd":"TEMP","test":"Temperature","cat":null,"orres":"36.8","orresu":"C","stresc":"36.8","stresn":"36.8","stresu":"C","stnrlo":null,"stnrhi":null,"nrind":null,"pos":null,"loc":null,"dtc":"2024-04-16","dy":"1","visit":"BASELINE","visitnum":"2.0","epoch":"TREATMENT"},{"seq":"16","testcd":"WEIGHT","test":"Weight","cat":null,"orres":"50.4","orresu":"kg","stresc":"50.4","stresn":"50.4","stresu":"kg","stnrlo":null,"stnrhi":null,"nrind":null,"pos":null,"loc":null,"dtc":"2024-04-16","dy":"1","visit":"BASELINE","visitnum":"2.0","epoch":"TREATMENT"},{"seq":"17","testcd":"BMI","test":"BMI","cat":null,"orres":"21.0","orresu":"kg/m2","stresc":"21.0","stresn":"21.0","stresu":"kg/m2","stnrlo":null,"stnrhi":null,"nrind":null,"pos":null,"loc":null,"dtc":"2024-05-02","dy":"17","visit":"WEEK 2","visitnum":"3.0","epoch":"TREATMENT"},{"seq":"18","testcd":"DIABP","test":"Diastolic Blood Pressure","cat":null,"orres":"78.9","orresu":"mmHg","stresc":"78.9","stresn":"78.9","stresu":"mmHg","stnrlo":null,"stnrhi":null,"nrind":null,"pos":null,"loc":null,"dtc":"2024-05-02","dy":"17","visit":"WEEK 2","visitnum":"3.0","epoch":"TREATMENT"},{"seq":"19","testcd":"HEIGHT","test":"Height","cat":null,"orres":"154.3","orresu":"cm","stresc":"154.3","stresn":"154.3","stresu":"cm","stnrlo":null,"stnrhi":null,"nrind":null,"pos":null,"loc":null,"dtc":"2024-05-02","dy":"17","visit":"WEEK 2","visitnum":"3.0","epoch":"TREATMENT"},{"seq":"20","testcd":"PULSE","test":"Pulse Rate","cat":null,"orres":"63.6","orresu":"beats/min","stresc":"63.6","stresn":"63.6","stresu":"beats/min","stnrlo":null,"stnrhi":null,"nrind":null,"pos":null,"loc":null,"dtc":"2024-05-02","dy":"17","visit":"WEEK 2","visitnum":"3.0","epoch":"TREATMENT"},{"seq":"21","testcd":"RESP","test":"Respiratory Rate","cat":null,"orres":"15.7","orresu":"breaths/min","stresc":"15.7","stresn":"15.7","stresu":"breaths/min","stnrlo":null,"stnrhi":null,"nrind":null,"pos":null,"loc":null,"dtc":"2024-05-02","dy":"17","visit":"WEEK 2","visitnum":"3.0","epoch":"TREATMENT"},{"seq":"22","testcd":"SYSBP","test":"Systolic Blood Pressure","cat":null,"orres":"94.9","orresu":"mmHg","stresc":"94.9","stresn":"94.9","stresu":"mmHg","stnrlo":null,"stnrhi":null,"nrind":null,"pos":null,"loc":null,"dtc":"2024-05-02","dy":"17","visit":"WEEK 2","visitnum":"3.0","epoch":"TREATMENT"},{"seq":"23","testcd":"TEMP","test":"Temperature","cat":null,"orres":"36.8","orresu":"C","stresc":"36.8","stresn":"36.8","stresu":"C","stnrlo":null,"stnrhi":null,"nrind":null,"pos":null,"loc":null,"dtc":"2024-05-02","dy":"17","visit":"WEEK 2","visitnum":"3.0","epoch":"TREATMENT"},{"seq":"24","testcd":"WEIGHT","test":"Weight","cat":null,"orres":"50.0","orresu":"kg","stresc":"50.0","stresn":"50.0","stresu":"kg","stnrlo":null,"stnrhi":null,"nrind":null,"pos":null,"loc":null,"dtc":"2024-05-02","dy":"17","visit":"WEEK 2","visitnum":"3.0","epoch":"TREATMENT"},{"seq":"25","testcd":"BMI","test":"BMI","cat":null,"orres":"21.3","orresu":"kg/m2","stresc":"21.3","stresn":"21.3","stresu":"kg/m2","stnrlo":null,"stnrhi":null,"nrind":null,"pos":null,"loc":null,"dtc":"2024-05-16","dy":"31","visit":"WEEK 4","visitnum":"4.0","epoch":"TREATMENT"},{"seq":"26","testcd":"DIABP","test":"Diastolic Blood Pressure","cat":null,"orres":"79.4","orresu":"mmHg","stresc":"79.4","stresn":"79.4","stresu":"mmHg","stnrlo":null,"stnrhi":null,"nrind":null,"pos":null,"loc":null,"dtc":"2024-05-16","dy":"31","visit":"WEEK 4","visitnum":"4.0","epoch":"TREATMENT"},{"seq":"27","testcd":"HEIGHT","test":"Height","cat":null,"orres":"154.9","orresu":"cm","stresc":"154.9","stresn":"154.9","stresu":"cm","stnrlo":null,"stnrhi":null,"nrind":null,"pos":null,"loc":null,"dtc":"2024-05-16","dy":"31","visit":"WEEK 4","visitnum":"4.0","epoch":"TREATMENT"},{"seq":"28","testcd":"PULSE","test":"Pulse Rate","cat":null,"orres":"68.9","orresu":"beats/min","stresc":"68.9","stresn":"68.9","stresu":"beats/min","stnrlo":null,"stnrhi":null,"nrind":null,"pos":null,"loc":null,"dtc":"2024-05-16","dy":"31","visit":"WEEK 4","visitnum":"4.0","epoch":"TREATMENT"},{"seq":"29","testcd":"RESP","test":"Respiratory Rate","cat":null,"orres":"16.1","orresu":"breaths/min","stresc":"16.1","stresn":"16.1","stresu":"breaths/min","stnrlo":null,"stnrhi":null,"nrind":null,"pos":null,"loc":null,"dtc":"2024-05-16","dy":"31","visit":"WEEK 4","visitnum":"4.0","epoch":"TREATMENT"},{"seq":"30","testcd":"SYSBP","test":"Systolic Blood Pressure","cat":null,"orres":"95.7","orresu":"mmHg","stresc":"95.7","stresn":"95.7","stresu":"mmHg","stnrlo":null,"stnrhi":null,"nrind":null,"pos":null,"loc":null,"dtc":"2024-05-16","dy":"31","visit":"WEEK 4","visitnum":"4.0","epoch":"TREATMENT"},{"seq":"31","testcd":"TEMP","test":"Temperature","cat":null,"orres":"36.6","orresu":"C","stresc":"36.6","stresn":"36.6","stresu":"C","stnrlo":null,"stnrhi":null,"nrind":null,"pos":null,"loc":null,"dtc":"2024-05-16","dy":"31","visit":"WEEK 4","visitnum":"4.0","epoch":"TREATMENT"},{"seq":"32","testcd":"WEIGHT","test":"Weight","cat":null,"orres":"51.0","orresu":"kg","stresc":"51.0","stresn":"51.0","stresu":"kg","stnrlo":null,"stnrhi":null,"nrind":null,"pos":null,"loc":null,"dtc":"2024-05-16","dy":"31","visit":"WEEK 4","visitnum":"4.0","epoch":"TREATMENT"},{"seq":"33","testcd":"BMI","test":"BMI","cat":null,"orres":"21.7","orresu":"kg/m2","stresc":"21.7","stresn":"21.7","stresu":"kg/m2","stnrlo":null,"stnrhi":null,"nrind":null,"pos":null,"loc":null,"dtc":"2024-06-10","dy":"56","visit":"WEEK 8","visitnum":"5.0","epoch":"TREATMENT"},{"seq":"34","testcd":"DIABP","test":"Diastolic Blood Pressure","cat":null,"orres":"80.5","orresu":"mmHg","stresc":"80.5","stresn":"80.5","stresu":"mmHg","stnrlo":null,"stnrhi":null,"nrind":null,"pos":null,"loc":null,"dtc":"2024-06-10","dy":"56","visit":"WEEK 8","visitnum":"5.0","epoch":"TREATMENT"},{"seq":"35","testcd":"HEIGHT","test":"Height","cat":null,"orres":"153.9","orresu":"cm","stresc":"153.9","stresn":"153.9","stresu":"cm","stnrlo":null,"stnrhi":null,"nrind":null,"pos":null,"loc":null,"dtc":"2024-06-10","dy":"56","visit":"WEEK 8","visitnum":"5.0","epoch":"TREATMENT"},{"seq":"36","testcd":"PULSE","test":"Pulse Rate","cat":null,"orres":"71.6","orresu":"beats/min","stresc":"71.6","stresn":"71.6","stresu":"beats/min","stnrlo":null,"stnrhi":null,"nrind":null,"pos":null,"loc":null,"dtc":"2024-06-10","dy":"56","visit":"WEEK 8","visitnum":"5.0","epoch":"TREATMENT"},{"seq":"37","testcd":"RESP","test":"Respiratory Rate","cat":null,"orres":"15.5","orresu":"breaths/min","stresc":"15.5","stresn":"15.5","stresu":"breaths/min","stnrlo":null,"stnrhi":null,"nrind":null,"pos":null,"loc":null,"dtc":"2024-06-10","dy":"56","visit":"WEEK 8","visitnum":"5.0","epoch":"TREATMENT"},{"seq":"38","testcd":"SYSBP","test":"Systolic Blood Pressure","cat":null,"orres":"94.7","orresu":"mmHg","stresc":"94.7","stresn":"94.7","stresu":"mmHg","stnrlo":null,"stnrhi":null,"nrind":null,"pos":null,"loc":null,"dtc":"2024-06-10","dy":"56","visit":"WEEK 8","visitnum":"5.0","epoch":"TREATMENT"},{"seq":"39","testcd":"TEMP","test":"Temperature","cat":null,"orres":"36.9","orresu":"C","stresc":"36.9","stresn":"36.9","stresu":"C","stnrlo":null,"stnrhi":null,"nrind":null,"pos":null,"loc":null,"dtc":"2024-06-10","dy":"56","visit":"WEEK 8","visitnum":"5.0","epoch":"TREATMENT"},{"seq":"40","testcd":"WEIGHT","test":"Weight","cat":null,"orres":"51.5","orresu":"kg","stresc":"51.5","stresn":"51.5","stresu":"kg","stnrlo":null,"stnrhi":null,"nrind":null,"pos":null,"loc":null,"dtc":"2024-06-10","dy":"56","visit":"WEEK 8","visitnum":"5.0","epoch":"TREATMENT"},{"seq":"41","testcd":"DIABP","test":"Diastolic Blood Pressure","cat":null,"orres":"78.5","orresu":"mmHg","stresc":"78.5","stresn":"78.5","stresu":"mmHg","stnrlo":null,"stnrhi":null,"nrind":null,"pos":null,"loc":null,"dtc":"2024-07-09","dy":"85","visit":"WEEK 12","visitnum":"6.0","epoch":"TREATMENT"},{"seq":"42","testcd":"HEIGHT","test":"Height","cat":null,"orres":null,"orresu":null,"stresc":null,"stresn":null,"stresu":null,"stnrlo":null,"stnrhi":null,"nrind":null,"pos":null,"loc":null,"dtc":"2024-07-09","dy":"85","visit":"WEEK 12","visitnum":"6.0","epoch":"TREATMENT"},{"seq":"43","testcd":"PULSE","test":"Pulse Rate","cat":null,"orres":"71.4","orresu":"beats/min","stresc":"71.4","stresn":"71.4","stresu":"beats/min","stnrlo":null,"stnrhi":null,"nrind":null,"pos":null,"loc":null,"dtc":"2024-07-09","dy":"85","visit":"WEEK 12","visitnum":"6.0","epoch":"TREATMENT"},{"seq":"44","testcd":"RESP","test":"Respiratory Rate","cat":null,"orres":"13.8","orresu":"breaths/min","stresc":"13.8","stresn":"13.8","stresu":"breaths/min","stnrlo":null,"stnrhi":null,"nrind":null,"pos":null,"loc":null,"dtc":"2024-07-09","dy":"85","visit":"WEEK 12","visitnum":"6.0","epoch":"TREATMENT"},{"seq":"45","testcd":"SYSBP","test":"Systolic Blood Pressure","cat":null,"orres":"93.8","orresu":"mmHg","stresc":"93.8","stresn":"93.8","stresu":"mmHg","stnrlo":null,"stnrhi":null,"nrind":null,"pos":null,"loc":null,"dtc":"2024-07-09","dy":"85","visit":"WEEK 12","visitnum":"6.0","epoch":"TREATMENT"},{"seq":"46","testcd":"TEMP","test":"Temperature","cat":null,"orres":"36.7","orresu":"C","stresc":"36.7","stresn":"36.7","stresu":"C","stnrlo":null,"stnrhi":null,"nrind":null,"pos":null,"loc":null,"dtc":"2024-07-09","dy":"85","visit":"WEEK 12","visitnum":"6.0","epoch":"TREATMENT"},{"seq":"47","testcd":"WEIGHT","test":"Weight","cat":null,"orres":"48.1","orresu":"kg","stresc":"48.1","stresn":"48.1","stresu":"kg","stnrlo":null,"stnrhi":null,"nrind":null,"pos":null,"loc":null,"dtc":"2024-07-09","dy":"85","visit":"WEEK 12","visitnum":"6.0","epoch":"TREATMENT"},{"seq":"48","testcd":"BMI","test":"BMI","cat":null,"orres":"19.6","orresu":"kg/m2","stresc":"19.6","stresn":"19.6","stresu":"kg/m2","stnrlo":null,"stnrhi":null,"nrind":null,"pos":null,"loc":null,"dtc":"2024-08-12","dy":"119","visit":"FOLLOW-UP","visitnum":"7.0","epoch":"FOLLOW-UP"},{"seq":"49","testcd":"DIABP","test":"Diastolic Blood Pressure","cat":null,"orres":"77.4","orresu":"mmHg","stresc":"77.4","stresn":"77.4","stresu":"mmHg","stnrlo":null,"stnrhi":null,"nrind":null,"pos":null,"loc":null,"dtc":"2024-08-12","dy":"119","visit":"FOLLOW-UP","visitnum":"7.0","epoch":"FOLLOW-UP"},{"seq":"50","testcd":"HEIGHT","test":"Height","cat":null,"orres":"154.5","orresu":"cm","stresc":"154.5","stresn":"154.5","stresu":"cm","stnrlo":null,"stnrhi":null,"nrind":null,"pos":null,"loc":null,"dtc":"2024-08-12","dy":"119","visit":"FOLLOW-UP","visitnum":"7.0","epoch":"FOLLOW-UP"},{"seq":"51","testcd":"PULSE","test":"Pulse Rate","cat":null,"orres":"71.3","orresu":"beats/min","stresc":"71.3","stresn":"71.3","stresu":"beats/min","stnrlo":null,"stnrhi":null,"nrind":null,"pos":null,"loc":null,"dtc":"2024-08-12","dy":"119","visit":"FOLLOW-UP","visitnum":"7.0","epoch":"FOLLOW-UP"},{"seq":"52","testcd":"RESP","test":"Respiratory Rate","cat":null,"orres":"13.6","orresu":"breaths/min","stresc":"13.6","stresn":"13.6","stresu":"breaths/min","stnrlo":null,"stnrhi":null,"nrind":null,"pos":null,"loc":null,"dtc":"2024-08-12","dy":"119","visit":"FOLLOW-UP","visitnum":"7.0","epoch":"FOLLOW-UP"},{"seq":"53","testcd":"SYSBP","test":"Systolic Blood Pressure","cat":null,"orres":"92.0","orresu":"mmHg","stresc":"92.0","stresn":"92.0","stresu":"mmHg","stnrlo":null,"stnrhi":null,"nrind":null,"pos":null,"loc":null,"dtc":"2024-08-12","dy":"119","visit":"FOLLOW-UP","visitnum":"7.0","epoch":"FOLLOW-UP"},{"seq":"54","testcd":"TEMP","test":"Temperature","cat":null,"orres":"36.9","orresu":"C","stresc":"36.9","stresn":"36.9","stresu":"C","stnrlo":null,"stnrhi":null,"nrind":null,"pos":null,"loc":null,"dtc":"2024-08-12","dy":"119","visit":"FOLLOW-UP","visitnum":"7.0","epoch":"FOLLOW-UP"},{"seq":"55","testcd":"WEIGHT","test":"Weight","cat":null,"orres":"46.7","orresu":"kg","stresc":"46.7","stresn":"46.7","stresu":"kg","stnrlo":null,"stnrhi":null,"nrind":null,"pos":null,"loc":null,"dtc":"2024-08-12","dy":"119","visit":"FOLLOW-UP","visitnum":"7.0","epoch":"FOLLOW-UP"}]},"section_10_questionnaires_and_scores":{"questionnaires":[],"findings_about":[]},"section_11_protocol_deviations":{"deviations":[{"seq":"1","term":"Missed PLACEBO dose on 2024-04-22","decod":"MISSED DOSE","cat":"MINOR","scat":"DOSING","start_dtc":"2024-04-22","end_dtc":null,"visit":null},{"seq":"2","term":"Missed PLACEBO dose on 2024-05-10","decod":"MISSED DOSE","cat":"MINOR","scat":"DOSING","start_dtc":"2024-05-10","end_dtc":null,"visit":null},{"seq":"3","term":"Missed PLACEBO dose on 2024-05-15","decod":"MISSED DOSE","cat":"MINOR","scat":"DOSING","start_dtc":"2024-05-15","end_dtc":null,"visit":null},{"seq":"4","term":"Missed PLACEBO dose on 2024-05-17","decod":"MISSED DOSE","cat":"MINOR","scat":"DOSING","start_dtc":"2024-05-17","end_dtc":null,"visit":null},{"seq":"5","term":"Vital signs assessment not performed at WEEK 12","decod":"MISSED ASSESSMENT","cat":"MINOR","scat":"ASSESSMENT","start_dtc":"2024-07-09","end_dtc":null,"visit":null}],"total":5},"section_12_disposition":{"completion_status":"COMPLETED","disposition_records":[{"seq":"1","term":"INFORMED CONSENT OBTAINED","decod":"INFORMED CONSENT OBTAINED","cat":"PROTOCOL MILESTONE","scat":null,"dtc":"2024-03-30","dy":null,"visit":null,"epoch":"SCREENING"},{"seq":"2","term":"RANDOMIZED","decod":"RANDOMIZED","cat":"PROTOCOL MILESTONE","scat":null,"dtc":"2024-04-16","dy":null,"visit":null,"epoch":"TREATMENT"},{"seq":"3","term":"COMPLETED","decod":"COMPLETED","cat":"DISPOSITION EVENT","scat":null,"dtc":"2024-09-02","dy":null,"visit":null,"epoch":"FOLLOW-UP"}],"death":null},"section_13_hospitalizations":{"items":[],"total":0},"section_14_substance_use":{"items":[{"seq":"1","substance":"ALCOHOL","decod":"ALCOHOL","cat":"ALCOHOL","scat":null,"usage":"Y","dose":"11.0","dosu":"DRINKS/WEEK","freq":"QW","start_dtc":"1999-04-06","end_dtc":null},{"seq":"2","substance":"COFFEE","decod":"COFFEE","cat":"CAFFEINE","scat":null,"usage":"Y","dose":"1.0","dosu":"CUPS/DAY","freq":"QD","start_dtc":"2002-04-05","end_dtc":null},{"seq":"3","substance":"CIGARETTES","decod":"CIGARETTES","cat":"TOBACCO","scat":"CIGARETTES","usage":"N","dose":null,"dosu":null,"freq":null,"start_dtc":null,"end_dtc":null}],"total":3},"section_15_subject_status":{"items":[{"seq":"1","testcd":"SURVSTAT","test":"Survival Status","orres":"ALIVE","stresc":"ALIVE","dtc":"2024-09-02","visit":"END OF STUDY","epoch":"FOLLOW-UP"}],"total":1}}