{"subject_id":"GB001-ASTHMA-201-SITE001-0286","study_id":"GB001-ASTHMA-201","generated_at":"2026-06-16T07:22:24.011363+00:00","sdtmig_version":"3.4","flags":{"has_serious_ae":false,"has_fatal_ae":false,"has_protocol_deviation":false,"n_protocol_deviations":0,"n_adverse_events":0,"n_concomitant_meds":1,"max_ae_severity":null,"screen_failure":false,"discontinued_early":true,"discontinuation_reason":"PHYSICIAN DECISION","death":false,"exposure_days":2},"timeline":[{"dtc":"2023-04-01","dy":"-384","event":"CM START: SERTRALINE","domain":"CM","category":"concomitant_med"},{"dtc":"2024-02-27","dy":"-52","event":"VISIT: SCREENING","domain":"SV","category":"visit"},{"dtc":"2024-03-31","dy":"-19","event":"INFORMED CONSENT OBTAINED","domain":"DS","category":"milestone"},{"dtc":"2024-04-19","dy":"1","event":"RANDOMIZED","domain":"DS","category":"milestone"},{"dtc":"2024-04-19","dy":"1","event":"FIRST DOSE: GB001","domain":"EX","category":"exposure"},{"dtc":"2024-04-19","dy":"1","event":"VISIT: BASELINE","domain":"SV","category":"visit"},{"dtc":"2024-04-23","dy":"5","event":"PHYSICIAN DECISION","domain":"DS","category":"milestone"}],"section_1_demographics":{"usubjid":"GB001-ASTHMA-201-SITE001-0286","subjid":"0286","siteid":"SITE001","age":"62","ageu":"YEARS","sex":"F","race":"WHITE","ethnicity":"HISPANIC OR LATINO","country":"USA","arm":"GB001 40mg QD","armcd":"GB40","actarm":"GB001 40mg QD","actarmcd":"GB40","randomization_date":null,"informed_consent_date":"2024-03-31","reference_start_date":"2024-04-19","reference_end_date":"2024-04-23","screen_failure":false,"death_flag":null,"death_date":null,"subject_characteristics":[{"testcd":"ALCUSE","test":"Alcohol Use","orres":"NON-DRINKER","stresc":"NON-DRINKER","visit":null,"dtc":"2024-03-31"},{"testcd":"BMI","test":"Body Mass Index","orres":"26.3","stresc":"26.3","visit":null,"dtc":"2024-03-31"},{"testcd":"DURDIS","test":"Duration of Disease","orres":"121 months","stresc":"121","visit":null,"dtc":"2024-03-31"},{"testcd":"TOBUSE","test":"Tobacco Use","orres":"NEVER SMOKED","stresc":"NEVER SMOKED","visit":null,"dtc":"2024-03-31"}]},"section_2_medical_history":{"items":[{"seq":"1","term":"ASTHMA","decod":"ASTHMA","cat":"RESPIRATORY","scat":null,"presp":null,"occur":null,"status":null,"onset_dtc":"2014-04-03","end_dtc":"2022-07-27","visit":null},{"seq":"2","term":"DEPRESSION","decod":"DEPRESSION","cat":"PSYCHIATRIC","scat":null,"presp":null,"occur":null,"status":null,"onset_dtc":"2023-04-01","end_dtc":null,"visit":null},{"seq":"3","term":"HYPERLIPIDEMIA","decod":"HYPERLIPIDEMIA","cat":"METABOLIC","scat":null,"presp":null,"occur":null,"status":null,"onset_dtc":"2021-04-01","end_dtc":"2021-07-12","visit":null}]},"section_3_inclusion_exclusion":{"criteria":[]},"section_4_trial_participation":{"visits":[{"visitnum":"1.0","visit":"SCREENING","start_dtc":"2024-02-27","end_dtc":"2024-02-27","updes":null},{"visitnum":"2.0","visit":"BASELINE","start_dtc":"2024-04-19","end_dtc":"2024-04-19","updes":null}],"epochs":[{"seq":"1","etcd":"SCRN","element":"Screening","start_dtc":"2024-03-22","end_dtc":"2024-04-19","updes":null},{"seq":"2","etcd":"TRT","element":"Treatment","start_dtc":"2024-04-19","end_dtc":"2024-04-23","updes":null}],"visit_count":2},"section_5_concomitant_medications":{"medications":[{"seq":"1","trt":"SERTRALINE","decod":"SERTRALINE","cat":"PRIOR","dose":"50","doseu":null,"dosef":"QD","route":"ORAL","indication":"DEPRESSION","start_dtc":"2023-04-01","end_dtc":"2024-04-23","ongoing":null,"visit":null}]},"section_6_exposure":{"exposure_as_administered":[{"seq":"1","trt":"GB001","dose":"40.0","doseu":null,"dosef":"QD","route":"ORAL","lot":null,"start_dtc":"2024-04-19","end_dtc":"2024-04-21","start_dy":"1","end_dy":"3","epoch":"TREATMENT","visit":null}],"exposure_as_collected":[{"seq":"1","trt":"GB001","dose":"40.0","doseu":null,"dosef":"QD","route":"ORAL","start_dtc":"2024-04-19","end_dtc":"2024-04-19","visit":"BASELINE"},{"seq":"2","trt":"GB001","dose":"40.0","doseu":null,"dosef":"QD","route":"ORAL","start_dtc":"2024-04-20","end_dtc":"2024-04-20","visit":"BASELINE"},{"seq":"3","trt":"GB001","dose":"40.0","doseu":null,"dosef":"QD","route":"ORAL","start_dtc":"2024-04-21","end_dtc":"2024-04-21","visit":"BASELINE"}]},"section_7_adverse_events":{"summary":{"total_aes":0,"serious_aes":0,"fatal_aes":0,"by_severity":{},"by_soc":{}},"events":[]},"section_8_laboratory_results":{"summary":{"total_records":14,"abnormal_count":3,"abnormal_pct":21.4},"shift_summary":[{"testcd":"ALT","baseline_value":25.24,"baseline_nrind":"NORMAL","worst_post_baseline_value":25.09,"worst_post_baseline_nrind":"NORMAL","worst_visit":"BASELINE"},{"testcd":"AST","baseline_value":24.43,"baseline_nrind":"NORMAL","worst_post_baseline_value":25.86,"worst_post_baseline_nrind":"NORMAL","worst_visit":"BASELINE"},{"testcd":"CREAT","baseline_value":30.42,"baseline_nrind":"LOW","worst_post_baseline_value":31.63,"worst_post_baseline_nrind":"LOW","worst_visit":"BASELINE"},{"testcd":"GLUC","baseline_value":5.05,"baseline_nrind":"NORMAL","worst_post_baseline_value":5.1,"worst_post_baseline_nrind":"NORMAL","worst_visit":"BASELINE"},{"testcd":"HGB","baseline_value":128.59,"baseline_nrind":"NORMAL","worst_post_baseline_value":127.26,"worst_post_baseline_nrind":"NORMAL","worst_visit":"BASELINE"},{"testcd":"PLAT","baseline_value":189.73,"baseline_nrind":"NORMAL","worst_post_baseline_value":209.29,"worst_post_baseline_nrind":"NORMAL","worst_visit":"BASELINE"},{"testcd":"WBC","baseline_value":2.29,"baseline_nrind":"LOW","worst_post_baseline_value":2.29,"worst_post_baseline_nrind":"LOW","worst_visit":"BASELINE"}],"results":[{"seq":"1","testcd":"ALT","test":"Alanine Aminotransferase","cat":"CHEMISTRY","orres":"25.24","orresu":"U/L","stresc":"25.24","stresn":"25.24","stresu":"U/L","stnrlo":"7","stnrhi":"56","nrind":"NORMAL","fast":null,"dtc":"2024-02-27","dy":"-52","visit":"SCREENING","visitnum":"1.0","epoch":"SCREENING","spec":null,"method":null},{"seq":"2","testcd":"AST","test":"Aspartate Aminotransferase","cat":"CHEMISTRY","orres":"24.43","orresu":"U/L","stresc":"24.43","stresn":"24.43","stresu":"U/L","stnrlo":"10","stnrhi":"40","nrind":"NORMAL","fast":null,"dtc":"2024-02-27","dy":"-52","visit":"SCREENING","visitnum":"1.0","epoch":"SCREENING","spec":null,"method":null},{"seq":"3","testcd":"CREAT","test":"Creatinine","cat":"CHEMISTRY","orres":"30.42","orresu":"umol/L","stresc":"30.42","stresn":"30.42","stresu":"umol/L","stnrlo":"44","stnrhi":"80","nrind":"LOW","fast":null,"dtc":"2024-02-27","dy":"-52","visit":"SCREENING","visitnum":"1.0","epoch":"SCREENING","spec":null,"method":null},{"seq":"4","testcd":"GLUC","test":"Glucose","cat":"CHEMISTRY","orres":"5.05","orresu":"mmol/L","stresc":"5.05","stresn":"5.05","stresu":"mmol/L","stnrlo":"3.9","stnrhi":"5.6","nrind":"NORMAL","fast":null,"dtc":"2024-02-27","dy":"-52","visit":"SCREENING","visitnum":"1.0","epoch":"SCREENING","spec":null,"method":null},{"seq":"5","testcd":"HGB","test":"Hemoglobin","cat":"HEMATOLOGY","orres":"128.59","orresu":"g/L","stresc":"128.59","stresn":"128.59","stresu":"g/L","stnrlo":"120","stnrhi":"155","nrind":"NORMAL","fast":null,"dtc":"2024-02-27","dy":"-52","visit":"SCREENING","visitnum":"1.0","epoch":"SCREENING","spec":null,"method":null},{"seq":"6","testcd":"PLAT","test":"Platelets","cat":"HEMATOLOGY","orres":"189.73","orresu":"10^9/L","stresc":"189.73","stresn":"189.73","stresu":"10^9/L","stnrlo":"150","stnrhi":"400","nrind":"NORMAL","fast":null,"dtc":"2024-02-27","dy":"-52","visit":"SCREENING","visitnum":"1.0","epoch":"SCREENING","spec":null,"method":null},{"seq":"7","testcd":"WBC","test":"Leukocytes","cat":"HEMATOLOGY","orres":null,"orresu":null,"stresc":null,"stresn":null,"stresu":null,"stnrlo":null,"stnrhi":null,"nrind":null,"fast":null,"dtc":"2024-02-27","dy":"-52","visit":"SCREENING","visitnum":"1.0","epoch":"SCREENING","spec":null,"method":null},{"seq":"8","testcd":"ALT","test":"Alanine Aminotransferase","cat":"CHEMISTRY","orres":"25.09","orresu":"U/L","stresc":"25.09","stresn":"25.09","stresu":"U/L","stnrlo":"7","stnrhi":"56","nrind":"NORMAL","fast":null,"dtc":"2024-04-19","dy":"1","visit":"BASELINE","visitnum":"2.0","epoch":"TREATMENT","spec":null,"method":null},{"seq":"9","testcd":"AST","test":"Aspartate Aminotransferase","cat":"CHEMISTRY","orres":"25.86","orresu":"U/L","stresc":"25.86","stresn":"25.86","stresu":"U/L","stnrlo":"10","stnrhi":"40","nrind":"NORMAL","fast":null,"dtc":"2024-04-19","dy":"1","visit":"BASELINE","visitnum":"2.0","epoch":"TREATMENT","spec":null,"method":null},{"seq":"10","testcd":"CREAT","test":"Creatinine","cat":"CHEMISTRY","orres":"31.63","orresu":"umol/L","stresc":"31.63","stresn":"31.63","stresu":"umol/L","stnrlo":"44","stnrhi":"80","nrind":"LOW","fast":null,"dtc":"2024-04-19","dy":"1","visit":"BASELINE","visitnum":"2.0","epoch":"TREATMENT","spec":null,"method":null},{"seq":"11","testcd":"GLUC","test":"Glucose","cat":"CHEMISTRY","orres":"5.1","orresu":"mmol/L","stresc":"5.1","stresn":"5.1","stresu":"mmol/L","stnrlo":"3.9","stnrhi":"5.6","nrind":"NORMAL","fast":null,"dtc":"2024-04-19","dy":"1","visit":"BASELINE","visitnum":"2.0","epoch":"TREATMENT","spec":null,"method":null},{"seq":"12","testcd":"HGB","test":"Hemoglobin","cat":"HEMATOLOGY","orres":"127.26","orresu":"g/L","stresc":"127.26","stresn":"127.26","stresu":"g/L","stnrlo":"120","stnrhi":"155","nrind":"NORMAL","fast":null,"dtc":"2024-04-19","dy":"1","visit":"BASELINE","visitnum":"2.0","epoch":"TREATMENT","spec":null,"method":null},{"seq":"13","testcd":"PLAT","test":"Platelets","cat":"HEMATOLOGY","orres":"209.29","orresu":"10^9/L","stresc":"209.29","stresn":"209.29","stresu":"10^9/L","stnrlo":"150","stnrhi":"400","nrind":"NORMAL","fast":null,"dtc":"2024-04-19","dy":"1","visit":"BASELINE","visitnum":"2.0","epoch":"TREATMENT","spec":null,"method":null},{"seq":"14","testcd":"WBC","test":"Leukocytes","cat":"HEMATOLOGY","orres":"2.29","orresu":"10^9/L","stresc":"2.29","stresn":"2.29","stresu":"10^9/L","stnrlo":"4.0","stnrhi":"11.0","nrind":"LOW","fast":null,"dtc":"2024-04-19","dy":"1","visit":"BASELINE","visitnum":"2.0","epoch":"TREATMENT","spec":null,"method":null}]},"section_9_vital_signs":{"summary":{"total_records":16},"trends":{"BMI":[{"visit":"SCREENING","visitnum":"1.0","dtc":"2024-02-27","value":"26.3","unit":"kg/m2"},{"visit":"BASELINE","visitnum":"2.0","dtc":"2024-04-19","value":"25.6","unit":"kg/m2"}],"DIABP":[{"visit":"SCREENING","visitnum":"1.0","dtc":"2024-02-27","value":"60.7","unit":"mmHg"},{"visit":"BASELINE","visitnum":"2.0","dtc":"2024-04-19","value":"60.5","unit":"mmHg"}],"HEIGHT":[{"visit":"SCREENING","visitnum":"1.0","dtc":"2024-02-27","value":"164.6","unit":"cm"},{"visit":"BASELINE","visitnum":"2.0","dtc":"2024-04-19","value":"165.0","unit":"cm"}],"PULSE":[{"visit":"SCREENING","visitnum":"1.0","dtc":"2024-02-27","value":"77.5","unit":"beats/min"},{"visit":"BASELINE","visitnum":"2.0","dtc":"2024-04-19","value":"75.8","unit":"beats/min"}],"RESP":[{"visit":"SCREENING","visitnum":"1.0","dtc":"2024-02-27","value":"16.2","unit":"breaths/min"},{"visit":"BASELINE","visitnum":"2.0","dtc":"2024-04-19","value":"18.1","unit":"breaths/min"}],"SYSBP":[{"visit":"SCREENING","visitnum":"1.0","dtc":"2024-02-27","value":"130.8","unit":"mmHg"},{"visit":"BASELINE","visitnum":"2.0","dtc":"2024-04-19","value":"131.3","unit":"mmHg"}],"TEMP":[{"visit":"SCREENING","visitnum":"1.0","dtc":"2024-02-27","value":"36.9","unit":"C"},{"visit":"BASELINE","visitnum":"2.0","dtc":"2024-04-19","value":"37.0","unit":"C"}],"WEIGHT":[{"visit":"SCREENING","visitnum":"1.0","dtc":"2024-02-27","value":"71.2","unit":"kg"},{"visit":"BASELINE","visitnum":"2.0","dtc":"2024-04-19","value":"69.7","unit":"kg"}]},"results":[{"seq":"1","testcd":"BMI","test":"BMI","cat":null,"orres":"26.3","orresu":"kg/m2","stresc":"26.3","stresn":"26.3","stresu":"kg/m2","stnrlo":null,"stnrhi":null,"nrind":null,"pos":null,"loc":null,"dtc":"2024-02-27","dy":"-52","visit":"SCREENING","visitnum":"1.0","epoch":"SCREENING"},{"seq":"2","testcd":"DIABP","test":"Diastolic Blood Pressure","cat":null,"orres":"60.7","orresu":"mmHg","stresc":"60.7","stresn":"60.7","stresu":"mmHg","stnrlo":null,"stnrhi":null,"nrind":null,"pos":null,"loc":null,"dtc":"2024-02-27","dy":"-52","visit":"SCREENING","visitnum":"1.0","epoch":"SCREENING"},{"seq":"3","testcd":"HEIGHT","test":"Height","cat":null,"orres":"164.6","orresu":"cm","stresc":"164.6","stresn":"164.6","stresu":"cm","stnrlo":null,"stnrhi":null,"nrind":null,"pos":null,"loc":null,"dtc":"2024-02-27","dy":"-52","visit":"SCREENING","visitnum":"1.0","epoch":"SCREENING"},{"seq":"4","testcd":"PULSE","test":"Pulse Rate","cat":null,"orres":"77.5","orresu":"beats/min","stresc":"77.5","stresn":"77.5","stresu":"beats/min","stnrlo":null,"stnrhi":null,"nrind":null,"pos":null,"loc":null,"dtc":"2024-02-27","dy":"-52","visit":"SCREENING","visitnum":"1.0","epoch":"SCREENING"},{"seq":"5","testcd":"RESP","test":"Respiratory Rate","cat":null,"orres":"16.2","orresu":"breaths/min","stresc":"16.2","stresn":"16.2","stresu":"breaths/min","stnrlo":null,"stnrhi":null,"nrind":null,"pos":null,"loc":null,"dtc":"2024-02-27","dy":"-52","visit":"SCREENING","visitnum":"1.0","epoch":"SCREENING"},{"seq":"6","testcd":"SYSBP","test":"Systolic Blood Pressure","cat":null,"orres":"130.8","orresu":"mmHg","stresc":"130.8","stresn":"130.8","stresu":"mmHg","stnrlo":null,"stnrhi":null,"nrind":null,"pos":null,"loc":null,"dtc":"2024-02-27","dy":"-52","visit":"SCREENING","visitnum":"1.0","epoch":"SCREENING"},{"seq":"7","testcd":"TEMP","test":"Temperature","cat":null,"orres":"36.9","orresu":"C","stresc":"36.9","stresn":"36.9","stresu":"C","stnrlo":null,"stnrhi":null,"nrind":null,"pos":null,"loc":null,"dtc":"2024-02-27","dy":"-52","visit":"SCREENING","visitnum":"1.0","epoch":"SCREENING"},{"seq":"8","testcd":"WEIGHT","test":"Weight","cat":null,"orres":"71.2","orresu":"kg","stresc":"71.2","stresn":"71.2","stresu":"kg","stnrlo":null,"stnrhi":null,"nrind":null,"pos":null,"loc":null,"dtc":"2024-02-27","dy":"-52","visit":"SCREENING","visitnum":"1.0","epoch":"SCREENING"},{"seq":"9","testcd":"BMI","test":"BMI","cat":null,"orres":"25.6","orresu":"kg/m2","stresc":"25.6","stresn":"25.6","stresu":"kg/m2","stnrlo":null,"stnrhi":null,"nrind":null,"pos":null,"loc":null,"dtc":"2024-04-19","dy":"1","visit":"BASELINE","visitnum":"2.0","epoch":"TREATMENT"},{"seq":"10","testcd":"DIABP","test":"Diastolic Blood Pressure","cat":null,"orres":"60.5","orresu":"mmHg","stresc":"60.5","stresn":"60.5","stresu":"mmHg","stnrlo":null,"stnrhi":null,"nrind":null,"pos":null,"loc":null,"dtc":"2024-04-19","dy":"1","visit":"BASELINE","visitnum":"2.0","epoch":"TREATMENT"},{"seq":"11","testcd":"HEIGHT","test":"Height","cat":null,"orres":"165.0","orresu":"cm","stresc":"165.0","stresn":"165.0","stresu":"cm","stnrlo":null,"stnrhi":null,"nrind":null,"pos":null,"loc":null,"dtc":"2024-04-19","dy":"1","visit":"BASELINE","visitnum":"2.0","epoch":"TREATMENT"},{"seq":"12","testcd":"PULSE","test":"Pulse Rate","cat":null,"orres":"75.8","orresu":"beats/min","stresc":"75.8","stresn":"75.8","stresu":"beats/min","stnrlo":null,"stnrhi":null,"nrind":null,"pos":null,"loc":null,"dtc":"2024-04-19","dy":"1","visit":"BASELINE","visitnum":"2.0","epoch":"TREATMENT"},{"seq":"13","testcd":"RESP","test":"Respiratory Rate","cat":null,"orres":"18.1","orresu":"breaths/min","stresc":"18.1","stresn":"18.1","stresu":"breaths/min","stnrlo":null,"stnrhi":null,"nrind":null,"pos":null,"loc":null,"dtc":"2024-04-19","dy":"1","visit":"BASELINE","visitnum":"2.0","epoch":"TREATMENT"},{"seq":"14","testcd":"SYSBP","test":"Systolic Blood Pressure","cat":null,"orres":"131.3","orresu":"mmHg","stresc":"131.3","stresn":"131.3","stresu":"mmHg","stnrlo":null,"stnrhi":null,"nrind":null,"pos":null,"loc":null,"dtc":"2024-04-19","dy":"1","visit":"BASELINE","visitnum":"2.0","epoch":"TREATMENT"},{"seq":"15","testcd":"TEMP","test":"Temperature","cat":null,"orres":"37.0","orresu":"C","stresc":"37.0","stresn":"37.0","stresu":"C","stnrlo":null,"stnrhi":null,"nrind":null,"pos":null,"loc":null,"dtc":"2024-04-19","dy":"1","visit":"BASELINE","visitnum":"2.0","epoch":"TREATMENT"},{"seq":"16","testcd":"WEIGHT","test":"Weight","cat":null,"orres":"69.7","orresu":"kg","stresc":"69.7","stresn":"69.7","stresu":"kg","stnrlo":null,"stnrhi":null,"nrind":null,"pos":null,"loc":null,"dtc":"2024-04-19","dy":"1","visit":"BASELINE","visitnum":"2.0","epoch":"TREATMENT"}]},"section_10_questionnaires_and_scores":{"questionnaires":[],"findings_about":[]},"section_11_protocol_deviations":{"deviations":[],"total":0},"section_12_disposition":{"completion_status":"INFORMED CONSENT OBTAINED","disposition_records":[{"seq":"1","term":"INFORMED CONSENT OBTAINED","decod":"INFORMED CONSENT OBTAINED","cat":"PROTOCOL MILESTONE","scat":null,"dtc":"2024-03-31","dy":null,"visit":null,"epoch":"SCREENING"},{"seq":"2","term":"RANDOMIZED","decod":"RANDOMIZED","cat":"PROTOCOL MILESTONE","scat":null,"dtc":"2024-04-19","dy":null,"visit":null,"epoch":"TREATMENT"},{"seq":"3","term":"PHYSICIAN DECISION","decod":"PHYSICIAN DECISION","cat":"DISPOSITION EVENT","scat":null,"dtc":"2024-04-23","dy":null,"visit":null,"epoch":"TREATMENT"}],"death":null},"section_13_hospitalizations":{"items":[],"total":0},"section_14_substance_use":{"items":[{"seq":"1","substance":"ALCOHOL","decod":"ALCOHOL","cat":"ALCOHOL","scat":null,"usage":"Y","dose":null,"dosu":null,"freq":null,"start_dtc":"2012-04-03","end_dtc":"2015-04-03"},{"seq":"2","substance":"COFFEE","decod":"COFFEE","cat":"CAFFEINE","scat":null,"usage":"N","dose":null,"dosu":null,"freq":null,"start_dtc":null,"end_dtc":null},{"seq":"3","substance":"CIGARETTES","decod":"CIGARETTES","cat":"TOBACCO","scat":"CIGARETTES","usage":"N","dose":null,"dosu":null,"freq":null,"start_dtc":null,"end_dtc":null}],"total":3},"section_15_subject_status":{"items":[{"seq":"1","testcd":"SURVSTAT","test":"Survival Status","orres":"ALIVE","stresc":"ALIVE","dtc":"2024-04-23","visit":"END OF STUDY","epoch":"FOLLOW-UP"}],"total":1}}