{"subject_id":"GB001-ASTHMA-201-SITE003-0369","study_id":"GB001-ASTHMA-201","generated_at":"2026-06-16T07:22:59.700201+00:00","sdtmig_version":"3.4","flags":{"has_serious_ae":false,"has_fatal_ae":false,"has_protocol_deviation":true,"n_protocol_deviations":7,"n_adverse_events":4,"n_concomitant_meds":3,"max_ae_severity":"MODERATE","screen_failure":false,"discontinued_early":false,"discontinuation_reason":null,"death":false,"exposure_days":57},"timeline":[{"dtc":"2017-02-21","dy":"-2585","event":"CM START: HYDROCHLOROTHIAZIDE","domain":"CM","category":"concomitant_med"},{"dtc":"2024-02-20","dy":"-30","event":"INFORMED CONSENT OBTAINED","domain":"DS","category":"milestone"},{"dtc":"2024-03-09","dy":"-12","event":"VISIT: SCREENING","domain":"SV","category":"visit"},{"dtc":"2024-03-21","dy":"1","event":"RANDOMIZED","domain":"DS","category":"milestone"},{"dtc":"2024-03-21","dy":"1","event":"FIRST DOSE: PLACEBO","domain":"EX","category":"exposure"},{"dtc":"2024-03-21","dy":"1","event":"VISIT: BASELINE","domain":"SV","category":"visit"},{"dtc":"2024-03-23","dy":"3","event":"AE: Back pain (MILD)","domain":"AE","category":"adverse_event"},{"dtc":"2024-04-01","dy":"12","event":"DEVIATION: MISSED ASSESSMENT","domain":"DV","category":"deviation"},{"dtc":"2024-04-01","dy":"12","event":"VISIT: WEEK 2","domain":"SV","category":"visit"},{"dtc":"2024-04-07","dy":"18","event":"DEVIATION: MISSED DOSE","domain":"DV","category":"deviation"},{"dtc":"2024-04-08","dy":"19","event":"DEVIATION: MISSED DOSE","domain":"DV","category":"deviation"},{"dtc":"2024-04-14","dy":"25","event":"DEVIATION: MISSED DOSE","domain":"DV","category":"deviation"},{"dtc":"2024-04-16","dy":"27","event":"VISIT: WEEK 4","domain":"SV","category":"visit"},{"dtc":"2024-04-21","dy":"32","event":"DEVIATION: MISSED DOSE","domain":"DV","category":"deviation"},{"dtc":"2024-05-04","dy":"45","event":"AE: Cytokine release syndrome (MODERATE)","domain":"AE","category":"adverse_event"},{"dtc":"2024-05-10","dy":"51","event":"DEVIATION: MISSED DOSE","domain":"DV","category":"deviation"},{"dtc":"2024-05-16","dy":"57","event":"AE: Sinusitis (MODERATE)","domain":"AE","category":"adverse_event"},{"dtc":"2024-05-16","dy":"57","event":"CM START: IBUPROFEN","domain":"CM","category":"concomitant_med"},{"dtc":"2024-05-17","dy":"58","event":"VISIT: WEEK 8","domain":"SV","category":"visit"},{"dtc":"2024-06-06","dy":"78","event":"AE: Nasopharyngitis (MODERATE)","domain":"AE","category":"adverse_event"},{"dtc":"2024-06-06","dy":"78","event":"CM START: PARACETAMOL","domain":"CM","category":"concomitant_med"},{"dtc":"2024-06-15","dy":"87","event":"DEVIATION: VISIT OCCURRED OUTSIDE VISIT WINDOW","domain":"DV","category":"deviation"},{"dtc":"2024-06-15","dy":"87","event":"VISIT: WEEK 12","domain":"SV","category":"visit"},{"dtc":"2024-07-10","dy":"112","event":"VISIT: FOLLOW-UP","domain":"SV","category":"visit"},{"dtc":"2024-08-07","dy":"140","event":"COMPLETED","domain":"DS","category":"milestone"}],"section_1_demographics":{"usubjid":"GB001-ASTHMA-201-SITE003-0369","subjid":"0369","siteid":"SITE003","age":"24","ageu":"YEARS","sex":"F","race":"BLACK OR AFRICAN AMERICAN","ethnicity":"NOT HISPANIC OR LATINO","country":"USA","arm":"Placebo","armcd":"PBO","actarm":"Placebo","actarmcd":"PBO","randomization_date":null,"informed_consent_date":"2024-02-20","reference_start_date":"2024-03-21","reference_end_date":"2024-08-07","screen_failure":false,"death_flag":null,"death_date":null,"subject_characteristics":[{"testcd":"ALCUSE","test":"Alcohol Use","orres":"CURRENT DRINKER","stresc":"CURRENT DRINKER","visit":null,"dtc":"2024-02-20"},{"testcd":"BMI","test":"Body Mass Index","orres":"30.9","stresc":"30.9","visit":null,"dtc":"2024-02-20"},{"testcd":"DURDIS","test":"Duration of Disease","orres":"85 months","stresc":"85","visit":null,"dtc":"2024-02-20"},{"testcd":"TOBUSE","test":"Tobacco Use","orres":"NEVER SMOKED","stresc":"NEVER SMOKED","visit":null,"dtc":"2024-02-20"}]},"section_2_medical_history":{"items":[{"seq":"1","term":"GASTROESOPHAGEAL REFLUX DISEASE","decod":"GASTROESOPHAGEAL REFLUX DISEASE","cat":"GASTROINTESTINAL","scat":null,"presp":null,"occur":null,"status":null,"onset_dtc":"2019-02-21","end_dtc":"2020-07-27","visit":null},{"seq":"2","term":"HYPERTENSION","decod":"HYPERTENSION","cat":"CARDIOVASCULAR","scat":null,"presp":null,"occur":null,"status":null,"onset_dtc":"2017-02","end_dtc":null,"visit":null}]},"section_3_inclusion_exclusion":{"criteria":[]},"section_4_trial_participation":{"visits":[{"visitnum":"1.0","visit":"SCREENING","start_dtc":"2024-03-09","end_dtc":"2024-03-09","updes":null},{"visitnum":"2.0","visit":"BASELINE","start_dtc":"2024-03-21","end_dtc":"2024-03-21","updes":null},{"visitnum":"3.0","visit":"WEEK 2","start_dtc":"2024-04-01","end_dtc":"2024-04-01","updes":null},{"visitnum":"4.0","visit":"WEEK 4","start_dtc":"2024-04-16","end_dtc":"2024-04-16","updes":null},{"visitnum":"5.0","visit":"WEEK 8","start_dtc":"2024-05-17","end_dtc":"2024-05-17","updes":null},{"visitnum":"6.0","visit":"WEEK 12","start_dtc":"2024-06-15","end_dtc":"2024-06-15","updes":null},{"visitnum":"7.0","visit":"FOLLOW-UP","start_dtc":"2024-07-10","end_dtc":"2024-07-10","updes":null}],"epochs":[{"seq":"1","etcd":"SCRN","element":"Screening","start_dtc":"2024-02-22","end_dtc":"2024-03-21","updes":null},{"seq":"2","etcd":"TRT","element":"Treatment","start_dtc":"2024-03-21","end_dtc":"2024-06-13","updes":null},{"seq":"3","etcd":"FU","element":"Follow-up","start_dtc":"2024-06-13","end_dtc":"2024-07-10","updes":null}],"visit_count":7},"section_5_concomitant_medications":{"medications":[{"seq":"1","trt":"HYDROCHLOROTHIAZIDE","decod":"HYDROCHLOROTHIAZIDE","cat":"PRIOR","dose":"25","doseu":null,"dosef":"QD","route":"ORAL","indication":"HYPERTENSION","start_dtc":"2017-02-21","end_dtc":"2024-08-07","ongoing":null,"visit":null},{"seq":"2","trt":"IBUPROFEN","decod":"IBUPROFEN","cat":"CONCOMITANT","dose":"400","doseu":null,"dosef":"PRN","route":"ORAL","indication":"SINUSITIS","start_dtc":"2024-05-16","end_dtc":"2024-06-04","ongoing":null,"visit":null},{"seq":"3","trt":"PARACETAMOL","decod":"PARACETAMOL","cat":"CONCOMITANT","dose":"500","doseu":null,"dosef":"PRN","route":"ORAL","indication":"NASOPHARYNGITIS","start_dtc":"2024-06-06","end_dtc":"2024-06-22","ongoing":null,"visit":null}]},"section_6_exposure":{"exposure_as_administered":[{"seq":"1","trt":"PLACEBO","dose":"0.0","doseu":null,"dosef":"QD","route":"ORAL","lot":null,"start_dtc":"2024-03-21","end_dtc":"2024-05-17","start_dy":"1","end_dy":"58","epoch":"TREATMENT","visit":null}],"exposure_as_collected":[{"seq":"1","trt":"PLACEBO","dose":null,"doseu":null,"dosef":"QD","route":"ORAL","start_dtc":"2024-03-21","end_dtc":"2024-03-21","visit":"BASELINE"},{"seq":"2","trt":"PLACEBO","dose":null,"doseu":null,"dosef":"QD","route":"ORAL","start_dtc":"2024-03-22","end_dtc":"2024-03-22","visit":"BASELINE"},{"seq":"3","trt":"PLACEBO","dose":null,"doseu":null,"dosef":"QD","route":"ORAL","start_dtc":"2024-03-23","end_dtc":"2024-03-23","visit":"BASELINE"},{"seq":"4","trt":"PLACEBO","dose":null,"doseu":null,"dosef":"QD","route":"ORAL","start_dtc":"2024-03-24","end_dtc":"2024-03-24","visit":"BASELINE"},{"seq":"5","trt":"PLACEBO","dose":null,"doseu":null,"dosef":"QD","route":"ORAL","start_dtc":"2024-03-25","end_dtc":"2024-03-25","visit":null},{"seq":"6","trt":"PLACEBO","dose":null,"doseu":null,"dosef":"QD","route":"ORAL","start_dtc":"2024-03-26","end_dtc":"2024-03-26","visit":null},{"seq":"7","trt":"PLACEBO","dose":null,"doseu":null,"dosef":"QD","route":"ORAL","start_dtc":"2024-03-27","end_dtc":"2024-03-27","visit":null},{"seq":"8","trt":"PLACEBO","dose":null,"doseu":null,"dosef":"QD","route":"ORAL","start_dtc":"2024-03-28","end_dtc":"2024-03-28","visit":null},{"seq":"9","trt":"PLACEBO","dose":null,"doseu":null,"dosef":"QD","route":"ORAL","start_dtc":"2024-03-29","end_dtc":"2024-03-29","visit":null},{"seq":"10","trt":"PLACEBO","dose":null,"doseu":null,"dosef":"QD","route":"ORAL","start_dtc":"2024-03-30","end_dtc":"2024-03-30","visit":null},{"seq":"11","trt":"PLACEBO","dose":null,"doseu":null,"dosef":"QD","route":"ORAL","start_dtc":"2024-03-31","end_dtc":"2024-03-31","visit":null},{"seq":"12","trt":"PLACEBO","dose":null,"doseu":null,"dosef":"QD","route":"ORAL","start_dtc":"2024-04-01","end_dtc":"2024-04-01","visit":"WEEK 2"},{"seq":"13","trt":"PLACEBO","dose":null,"doseu":null,"dosef":"QD","route":"ORAL","start_dtc":"2024-04-02","end_dtc":"2024-04-02","visit":"WEEK 2"},{"seq":"14","trt":"PLACEBO","dose":null,"doseu":null,"dosef":"QD","route":"ORAL","start_dtc":"2024-04-03","end_dtc":"2024-04-03","visit":"WEEK 2"},{"seq":"15","trt":"PLACEBO","dose":null,"doseu":null,"dosef":"QD","route":"ORAL","start_dtc":"2024-04-04","end_dtc":"2024-04-04","visit":"WEEK 2"},{"seq":"16","trt":"PLACEBO","dose":null,"doseu":null,"dosef":"QD","route":"ORAL","start_dtc":"2024-04-05","end_dtc":"2024-04-05","visit":"WEEK 2"},{"seq":"17","trt":"PLACEBO","dose":null,"doseu":null,"dosef":"QD","route":"ORAL","start_dtc":"2024-04-06","end_dtc":"2024-04-06","visit":"WEEK 2"},{"seq":"18","trt":"PLACEBO","dose":null,"doseu":null,"dosef":"QD","route":"ORAL","start_dtc":"2024-04-07","end_dtc":"2024-04-07","visit":"WEEK 2"},{"seq":"19","trt":"PLACEBO","dose":null,"doseu":null,"dosef":"QD","route":"ORAL","start_dtc":"2024-04-08","end_dtc":"2024-04-08","visit":null},{"seq":"20","trt":"PLACEBO","dose":null,"doseu":null,"dosef":"QD","route":"ORAL","start_dtc":"2024-04-09","end_dtc":"2024-04-09","visit":null},{"seq":"21","trt":"PLACEBO","dose":null,"doseu":null,"dosef":"QD","route":"ORAL","start_dtc":"2024-04-10","end_dtc":"2024-04-10","visit":null},{"seq":"22","trt":"PLACEBO","dose":null,"doseu":null,"dosef":"QD","route":"ORAL","start_dtc":"2024-04-11","end_dtc":"2024-04-11","visit":null},{"seq":"23","trt":"PLACEBO","dose":null,"doseu":null,"dosef":"QD","route":"ORAL","start_dtc":"2024-04-12","end_dtc":"2024-04-12","visit":null},{"seq":"24","trt":"PLACEBO","dose":null,"doseu":null,"dosef":"QD","route":"ORAL","start_dtc":"2024-04-13","end_dtc":"2024-04-13","visit":null},{"seq":"25","trt":"PLACEBO","dose":null,"doseu":null,"dosef":"QD","route":"ORAL","start_dtc":"2024-04-14","end_dtc":"2024-04-14","visit":null},{"seq":"26","trt":"PLACEBO","dose":null,"doseu":null,"dosef":"QD","route":"ORAL","start_dtc":"2024-04-15","end_dtc":"2024-04-15","visit":"WEEK 4"},{"seq":"27","trt":"PLACEBO","dose":null,"doseu":null,"dosef":"QD","route":"ORAL","start_dtc":"2024-04-16","end_dtc":"2024-04-16","visit":"WEEK 4"},{"seq":"28","trt":"PLACEBO","dose":null,"doseu":null,"dosef":"QD","route":"ORAL","start_dtc":"2024-04-17","end_dtc":"2024-04-17","visit":"WEEK 4"},{"seq":"29","trt":"PLACEBO","dose":null,"doseu":null,"dosef":"QD","route":"ORAL","start_dtc":"2024-04-18","end_dtc":"2024-04-18","visit":"WEEK 4"},{"seq":"30","trt":"PLACEBO","dose":null,"doseu":null,"dosef":"QD","route":"ORAL","start_dtc":"2024-04-19","end_dtc":"2024-04-19","visit":"WEEK 4"},{"seq":"31","trt":"PLACEBO","dose":null,"doseu":null,"dosef":"QD","route":"ORAL","start_dtc":"2024-04-20","end_dtc":"2024-04-20","visit":"WEEK 4"},{"seq":"32","trt":"PLACEBO","dose":null,"doseu":null,"dosef":"QD","route":"ORAL","start_dtc":"2024-04-21","end_dtc":"2024-04-21","visit":"WEEK 4"},{"seq":"33","trt":"PLACEBO","dose":null,"doseu":null,"dosef":"QD","route":"ORAL","start_dtc":"2024-04-22","end_dtc":"2024-04-22","visit":null},{"seq":"34","trt":"PLACEBO","dose":null,"doseu":null,"dosef":"QD","route":"ORAL","start_dtc":"2024-04-23","end_dtc":"2024-04-23","visit":null},{"seq":"35","trt":"PLACEBO","dose":null,"doseu":null,"dosef":"QD","route":"ORAL","start_dtc":"2024-04-24","end_dtc":"2024-04-24","visit":null},{"seq":"36","trt":"PLACEBO","dose":null,"doseu":null,"dosef":"QD","route":"ORAL","start_dtc":"2024-04-25","end_dtc":"2024-04-25","visit":null},{"seq":"37","trt":"PLACEBO","dose":null,"doseu":null,"dosef":"QD","route":"ORAL","start_dtc":"2024-04-26","end_dtc":"2024-04-26","visit":null},{"seq":"38","trt":"PLACEBO","dose":null,"doseu":null,"dosef":"QD","route":"ORAL","start_dtc":"2024-04-27","end_dtc":"2024-04-27","visit":null},{"seq":"39","trt":"PLACEBO","dose":null,"doseu":null,"dosef":"QD","route":"ORAL","start_dtc":"2024-04-28","end_dtc":"2024-04-28","visit":null},{"seq":"40","trt":"PLACEBO","dose":null,"doseu":null,"dosef":"QD","route":"ORAL","start_dtc":"2024-04-29","end_dtc":"2024-04-29","visit":null},{"seq":"41","trt":"PLACEBO","dose":null,"doseu":null,"dosef":"QD","route":"ORAL","start_dtc":"2024-04-30","end_dtc":"2024-04-30","visit":null},{"seq":"42","trt":"PLACEBO","dose":null,"doseu":null,"dosef":"QD","route":"ORAL","start_dtc":"2024-05-01","end_dtc":"2024-05-01","visit":null},{"seq":"43","trt":"PLACEBO","dose":null,"doseu":null,"dosef":"QD","route":"ORAL","start_dtc":"2024-05-02","end_dtc":"2024-05-02","visit":null},{"seq":"44","trt":"PLACEBO","dose":null,"doseu":null,"dosef":"QD","route":"ORAL","start_dtc":"2024-05-03","end_dtc":"2024-05-03","visit":null},{"seq":"45","trt":"PLACEBO","dose":null,"doseu":null,"dosef":"QD","route":"ORAL","start_dtc":"2024-05-04","end_dtc":"2024-05-04","visit":null},{"seq":"46","trt":"PLACEBO","dose":null,"doseu":null,"dosef":"QD","route":"ORAL","start_dtc":"2024-05-05","end_dtc":"2024-05-05","visit":null},{"seq":"47","trt":"PLACEBO","dose":null,"doseu":null,"dosef":"QD","route":"ORAL","start_dtc":"2024-05-06","end_dtc":"2024-05-06","visit":null},{"seq":"48","trt":"PLACEBO","dose":null,"doseu":null,"dosef":"QD","route":"ORAL","start_dtc":"2024-05-07","end_dtc":"2024-05-07","visit":null},{"seq":"49","trt":"PLACEBO","dose":null,"doseu":null,"dosef":"QD","route":"ORAL","start_dtc":"2024-05-08","end_dtc":"2024-05-08","visit":null},{"seq":"50","trt":"PLACEBO","dose":null,"doseu":null,"dosef":"QD","route":"ORAL","start_dtc":"2024-05-09","end_dtc":"2024-05-09","visit":null},{"seq":"51","trt":"PLACEBO","dose":null,"doseu":null,"dosef":"QD","route":"ORAL","start_dtc":"2024-05-10","end_dtc":"2024-05-10","visit":null},{"seq":"52","trt":"PLACEBO","dose":null,"doseu":null,"dosef":"QD","route":"ORAL","start_dtc":"2024-05-11","end_dtc":"2024-05-11","visit":null},{"seq":"53","trt":"PLACEBO","dose":null,"doseu":null,"dosef":"QD","route":"ORAL","start_dtc":"2024-05-12","end_dtc":"2024-05-12","visit":null},{"seq":"54","trt":"PLACEBO","dose":null,"doseu":null,"dosef":"QD","route":"ORAL","start_dtc":"2024-05-13","end_dtc":"2024-05-13","visit":"WEEK 8"},{"seq":"55","trt":"PLACEBO","dose":null,"doseu":null,"dosef":"QD","route":"ORAL","start_dtc":"2024-05-14","end_dtc":"2024-05-14","visit":"WEEK 8"},{"seq":"56","trt":"PLACEBO","dose":null,"doseu":null,"dosef":"QD","route":"ORAL","start_dtc":"2024-05-15","end_dtc":"2024-05-15","visit":"WEEK 8"},{"seq":"57","trt":"PLACEBO","dose":null,"doseu":null,"dosef":"QD","route":"ORAL","start_dtc":"2024-05-16","end_dtc":"2024-05-16","visit":"WEEK 8"},{"seq":"58","trt":"PLACEBO","dose":null,"doseu":null,"dosef":"QD","route":"ORAL","start_dtc":"2024-05-17","end_dtc":"2024-05-17","visit":"WEEK 8"}]},"section_7_adverse_events":{"summary":{"total_aes":4,"serious_aes":0,"fatal_aes":0,"by_severity":{"MILD":1,"MODERATE":3},"by_soc":{"Musculoskeletal and connective tissue disorders":1,"Immune system disorders":1,"Infections and infestations":2}},"events":[{"seq":"1","term":"BACK PAIN","decod":"Back pain","llt":"Back pain","hlt":"Spinal column and cord signs and symptoms","hlgt":"Musculoskeletal and connective tissue signs and symptoms NEC","soc":"Musculoskeletal and connective tissue disorders","bodsys":"Musculoskeletal and connective tissue disorders","severity":"MILD","serious":"N","causality":"UNLIKELY RELATED","action_taken":"DOSE NOT CHANGED","outcome":"RECOVERED/RESOLVED","fatal":"N","hospitalization":"N","life_threatening":"N","onset_dtc":"2024-03-23","end_dtc":"2024-03-26","onset_dy":"3","end_dy":"6","duration":null,"epoch":"TREATMENT","visit":null,"supplemental":{"AETRTEM":"Y"}},{"seq":"2","term":"CYTOKINE RELEASE SYNDROME","decod":"Cytokine release syndrome","llt":"Cytokine release syndrome","hlt":"Immune and associated conditions NEC","hlgt":"Autoimmune disorders","soc":"Immune system disorders","bodsys":"Immune system disorders","severity":"MODERATE","serious":"N","causality":"NOT RELATED","action_taken":"DOSE NOT CHANGED","outcome":"RECOVERED/RESOLVED","fatal":"N","hospitalization":"N","life_threatening":"N","onset_dtc":"2024-05-04","end_dtc":"2024-05-13","onset_dy":"45","end_dy":"54","duration":null,"epoch":"TREATMENT","visit":null,"supplemental":{"AETRTEM":"Y"}},{"seq":"3","term":"SINUSITIS","decod":"Sinusitis","llt":"Sinusitis","hlt":"Upper respiratory tract infections","hlgt":"Upper respiratory tract infections","soc":"Infections and infestations","bodsys":"Infections and infestations","severity":"MODERATE","serious":"N","causality":"NOT RELATED","action_taken":"DOSE NOT CHANGED","outcome":"RECOVERED/RESOLVED","fatal":"N","hospitalization":"N","life_threatening":"N","onset_dtc":"2024-05-16","end_dtc":"2024-05-31","onset_dy":"57","end_dy":"72","duration":null,"epoch":"TREATMENT","visit":null,"supplemental":{"AETRTEM":"Y"}},{"seq":"4","term":"NASOPHARYNGITIS","decod":"Nasopharyngitis","llt":"Nasopharyngitis","hlt":"Upper respiratory tract infections","hlgt":"Upper respiratory tract infections","soc":"Infections and infestations","bodsys":"Infections and infestations","severity":"MODERATE","serious":"N","causality":"NOT RELATED","action_taken":"DOSE NOT CHANGED","outcome":"RECOVERED/RESOLVED","fatal":"N","hospitalization":"N","life_threatening":"N","onset_dtc":"2024-06-06","end_dtc":"2024-06-23","onset_dy":"78","end_dy":"95","duration":null,"epoch":"TREATMENT","visit":null,"supplemental":{"AETRTEM":"Y"}}]},"section_8_laboratory_results":{"summary":{"total_records":49,"abnormal_count":7,"abnormal_pct":14.3},"shift_summary":[{"testcd":"ALT","baseline_value":16.23,"baseline_nrind":"NORMAL","worst_post_baseline_value":17.34,"worst_post_baseline_nrind":"NORMAL","worst_visit":"WEEK 12"},{"testcd":"AST","baseline_value":20.06,"baseline_nrind":"NORMAL","worst_post_baseline_value":21.23,"worst_post_baseline_nrind":"NORMAL","worst_visit":"WEEK 4"},{"testcd":"CREAT","baseline_value":50.81,"baseline_nrind":"NORMAL","worst_post_baseline_value":54.26,"worst_post_baseline_nrind":"NORMAL","worst_visit":"BASELINE"},{"testcd":"GLUC","baseline_value":5.03,"baseline_nrind":"NORMAL","worst_post_baseline_value":5.11,"worst_post_baseline_nrind":"NORMAL","worst_visit":"WEEK 2"},{"testcd":"HGB","baseline_value":107.89,"baseline_nrind":"LOW","worst_post_baseline_value":104.76,"worst_post_baseline_nrind":"LOW","worst_visit":"WEEK 4"},{"testcd":"PLAT","baseline_value":307.3,"baseline_nrind":"NORMAL","worst_post_baseline_value":310.69,"worst_post_baseline_nrind":"NORMAL","worst_visit":"FOLLOW-UP"},{"testcd":"WBC","baseline_value":5.18,"baseline_nrind":"NORMAL","worst_post_baseline_value":5.58,"worst_post_baseline_nrind":"NORMAL","worst_visit":"FOLLOW-UP"}],"results":[{"seq":"1","testcd":"ALT","test":"Alanine Aminotransferase","cat":"CHEMISTRY","orres":"16.23","orresu":"U/L","stresc":"16.23","stresn":"16.23","stresu":"U/L","stnrlo":"7","stnrhi":"56","nrind":"NORMAL","fast":null,"dtc":"2024-03-09","dy":"-12","visit":"SCREENING","visitnum":"1.0","epoch":"SCREENING","spec":null,"method":null},{"seq":"2","testcd":"AST","test":"Aspartate Aminotransferase","cat":"CHEMISTRY","orres":"20.06","orresu":"U/L","stresc":"20.06","stresn":"20.06","stresu":"U/L","stnrlo":"10","stnrhi":"40","nrind":"NORMAL","fast":null,"dtc":"2024-03-09","dy":"-12","visit":"SCREENING","visitnum":"1.0","epoch":"SCREENING","spec":null,"method":null},{"seq":"3","testcd":"CREAT","test":"Creatinine","cat":"CHEMISTRY","orres":"50.81","orresu":"umol/L","stresc":"50.81","stresn":"50.81","stresu":"umol/L","stnrlo":"44","stnrhi":"80","nrind":"NORMAL","fast":null,"dtc":"2024-03-09","dy":"-12","visit":"SCREENING","visitnum":"1.0","epoch":"SCREENING","spec":null,"method":null},{"seq":"4","testcd":"GLUC","test":"Glucose","cat":"CHEMISTRY","orres":"5.03","orresu":"mmol/L","stresc":"5.03","stresn":"5.03","stresu":"mmol/L","stnrlo":"3.9","stnrhi":"5.6","nrind":"NORMAL","fast":null,"dtc":"2024-03-09","dy":"-12","visit":"SCREENING","visitnum":"1.0","epoch":"SCREENING","spec":null,"method":null},{"seq":"5","testcd":"HGB","test":"Hemoglobin","cat":"HEMATOLOGY","orres":"107.89","orresu":"g/L","stresc":"107.89","stresn":"107.89","stresu":"g/L","stnrlo":"120","stnrhi":"155","nrind":"LOW","fast":null,"dtc":"2024-03-09","dy":"-12","visit":"SCREENING","visitnum":"1.0","epoch":"SCREENING","spec":null,"method":null},{"seq":"6","testcd":"PLAT","test":"Platelets","cat":"HEMATOLOGY","orres":"307.3","orresu":"10^9/L","stresc":"307.3","stresn":"307.3","stresu":"10^9/L","stnrlo":"150","stnrhi":"400","nrind":"NORMAL","fast":null,"dtc":"2024-03-09","dy":"-12","visit":"SCREENING","visitnum":"1.0","epoch":"SCREENING","spec":null,"method":null},{"seq":"7","testcd":"WBC","test":"Leukocytes","cat":"HEMATOLOGY","orres":"5.18","orresu":"10^9/L","stresc":"5.18","stresn":"5.18","stresu":"10^9/L","stnrlo":"4.0","stnrhi":"11.0","nrind":"NORMAL","fast":null,"dtc":"2024-03-09","dy":"-12","visit":"SCREENING","visitnum":"1.0","epoch":"SCREENING","spec":null,"method":null},{"seq":"8","testcd":"ALT","test":"Alanine Aminotransferase","cat":"CHEMISTRY","orres":"17.29","orresu":"U/L","stresc":"17.29","stresn":"17.29","stresu":"U/L","stnrlo":"7","stnrhi":"56","nrind":"NORMAL","fast":null,"dtc":"2024-03-21","dy":"1","visit":"BASELINE","visitnum":"2.0","epoch":"TREATMENT","spec":null,"method":null},{"seq":"9","testcd":"AST","test":"Aspartate Aminotransferase","cat":"CHEMISTRY","orres":"21.16","orresu":"U/L","stresc":"21.16","stresn":"21.16","stresu":"U/L","stnrlo":"10","stnrhi":"40","nrind":"NORMAL","fast":null,"dtc":"2024-03-21","dy":"1","visit":"BASELINE","visitnum":"2.0","epoch":"TREATMENT","spec":null,"method":null},{"seq":"10","testcd":"CREAT","test":"Creatinine","cat":"CHEMISTRY","orres":"54.26","orresu":"umol/L","stresc":"54.26","stresn":"54.26","stresu":"umol/L","stnrlo":"44","stnrhi":"80","nrind":"NORMAL","fast":null,"dtc":"2024-03-21","dy":"1","visit":"BASELINE","visitnum":"2.0","epoch":"TREATMENT","spec":null,"method":null},{"seq":"11","testcd":"GLUC","test":"Glucose","cat":"CHEMISTRY","orres":"5.07","orresu":"mmol/L","stresc":"5.07","stresn":"5.07","stresu":"mmol/L","stnrlo":"3.9","stnrhi":"5.6","nrind":"NORMAL","fast":null,"dtc":"2024-03-21","dy":"1","visit":"BASELINE","visitnum":"2.0","epoch":"TREATMENT","spec":null,"method":null},{"seq":"12","testcd":"HGB","test":"Hemoglobin","cat":"HEMATOLOGY","orres":"106.32","orresu":"g/L","stresc":"106.32","stresn":"106.32","stresu":"g/L","stnrlo":"120","stnrhi":"155","nrind":"LOW","fast":null,"dtc":"2024-03-21","dy":"1","visit":"BASELINE","visitnum":"2.0","epoch":"TREATMENT","spec":null,"method":null},{"seq":"13","testcd":"PLAT","test":"Platelets","cat":"HEMATOLOGY","orres":"289.92","orresu":"10^9/L","stresc":"289.92","stresn":"289.92","stresu":"10^9/L","stnrlo":"150","stnrhi":"400","nrind":"NORMAL","fast":null,"dtc":"2024-03-21","dy":"1","visit":"BASELINE","visitnum":"2.0","epoch":"TREATMENT","spec":null,"method":null},{"seq":"14","testcd":"WBC","test":"Leukocytes","cat":"HEMATOLOGY","orres":"4.52","orresu":"10^9/L","stresc":"4.52","stresn":"4.52","stresu":"10^9/L","stnrlo":"4.0","stnrhi":"11.0","nrind":"NORMAL","fast":null,"dtc":"2024-03-21","dy":"1","visit":"BASELINE","visitnum":"2.0","epoch":"TREATMENT","spec":null,"method":null},{"seq":"15","testcd":"ALT","test":"Alanine Aminotransferase","cat":"CHEMISTRY","orres":"17.03","orresu":"U/L","stresc":"17.03","stresn":"17.03","stresu":"U/L","stnrlo":"7","stnrhi":"56","nrind":"NORMAL","fast":null,"dtc":"2024-04-01","dy":"12","visit":"WEEK 2","visitnum":"3.0","epoch":"TREATMENT","spec":null,"method":null},{"seq":"16","testcd":"AST","test":"Aspartate Aminotransferase","cat":"CHEMISTRY","orres":"19.82","orresu":"U/L","stresc":"19.82","stresn":"19.82","stresu":"U/L","stnrlo":"10","stnrhi":"40","nrind":"NORMAL","fast":null,"dtc":"2024-04-01","dy":"12","visit":"WEEK 2","visitnum":"3.0","epoch":"TREATMENT","spec":null,"method":null},{"seq":"17","testcd":"CREAT","test":"Creatinine","cat":"CHEMISTRY","orres":"52.74","orresu":"umol/L","stresc":"52.74","stresn":"52.74","stresu":"umol/L","stnrlo":"44","stnrhi":"80","nrind":"NORMAL","fast":null,"dtc":"2024-04-01","dy":"12","visit":"WEEK 2","visitnum":"3.0","epoch":"TREATMENT","spec":null,"method":null},{"seq":"18","testcd":"GLUC","test":"Glucose","cat":"CHEMISTRY","orres":"5.11","orresu":"mmol/L","stresc":"5.11","stresn":"5.11","stresu":"mmol/L","stnrlo":"3.9","stnrhi":"5.6","nrind":"NORMAL","fast":null,"dtc":"2024-04-01","dy":"12","visit":"WEEK 2","visitnum":"3.0","epoch":"TREATMENT","spec":null,"method":null},{"seq":"19","testcd":"HGB","test":"Hemoglobin","cat":"HEMATOLOGY","orres":"105.21","orresu":"g/L","stresc":"105.21","stresn":"105.21","stresu":"g/L","stnrlo":"120","stnrhi":"155","nrind":"LOW","fast":null,"dtc":"2024-04-01","dy":"12","visit":"WEEK 2","visitnum":"3.0","epoch":"TREATMENT","spec":null,"method":null},{"seq":"20","testcd":"PLAT","test":"Platelets","cat":"HEMATOLOGY","orres":"268.95","orresu":"10^9/L","stresc":"268.95","stresn":"268.95","stresu":"10^9/L","stnrlo":"150","stnrhi":"400","nrind":"NORMAL","fast":null,"dtc":"2024-04-01","dy":"12","visit":"WEEK 2","visitnum":"3.0","epoch":"TREATMENT","spec":null,"method":null},{"seq":"21","testcd":"WBC","test":"Leukocytes","cat":"HEMATOLOGY","orres":"4.59","orresu":"10^9/L","stresc":"4.59","stresn":"4.59","stresu":"10^9/L","stnrlo":"4.0","stnrhi":"11.0","nrind":"NORMAL","fast":null,"dtc":"2024-04-01","dy":"12","visit":"WEEK 2","visitnum":"3.0","epoch":"TREATMENT","spec":null,"method":null},{"seq":"22","testcd":"ALT","test":"Alanine Aminotransferase","cat":"CHEMISTRY","orres":"17.29","orresu":"U/L","stresc":"17.29","stresn":"17.29","stresu":"U/L","stnrlo":"7","stnrhi":"56","nrind":"NORMAL","fast":null,"dtc":"2024-04-16","dy":"27","visit":"WEEK 4","visitnum":"4.0","epoch":"TREATMENT","spec":null,"method":null},{"seq":"23","testcd":"AST","test":"Aspartate Aminotransferase","cat":"CHEMISTRY","orres":"21.23","orresu":"U/L","stresc":"21.23","stresn":"21.23","stresu":"U/L","stnrlo":"10","stnrhi":"40","nrind":"NORMAL","fast":null,"dtc":"2024-04-16","dy":"27","visit":"WEEK 4","visitnum":"4.0","epoch":"TREATMENT","spec":null,"method":null},{"seq":"24","testcd":"CREAT","test":"Creatinine","cat":"CHEMISTRY","orres":"51.61","orresu":"umol/L","stresc":"51.61","stresn":"51.61","stresu":"umol/L","stnrlo":"44","stnrhi":"80","nrind":"NORMAL","fast":null,"dtc":"2024-04-16","dy":"27","visit":"WEEK 4","visitnum":"4.0","epoch":"TREATMENT","spec":null,"method":null},{"seq":"25","testcd":"GLUC","test":"Glucose","cat":"CHEMISTRY","orres":"4.98","orresu":"mmol/L","stresc":"4.98","stresn":"4.98","stresu":"mmol/L","stnrlo":"3.9","stnrhi":"5.6","nrind":"NORMAL","fast":null,"dtc":"2024-04-16","dy":"27","visit":"WEEK 4","visitnum":"4.0","epoch":"TREATMENT","spec":null,"method":null},{"seq":"26","testcd":"HGB","test":"Hemoglobin","cat":"HEMATOLOGY","orres":"104.76","orresu":"g/L","stresc":"104.76","stresn":"104.76","stresu":"g/L","stnrlo":"120","stnrhi":"155","nrind":"LOW","fast":null,"dtc":"2024-04-16","dy":"27","visit":"WEEK 4","visitnum":"4.0","epoch":"TREATMENT","spec":null,"method":null},{"seq":"27","testcd":"PLAT","test":"Platelets","cat":"HEMATOLOGY","orres":"257.15","orresu":"10^9/L","stresc":"257.15","stresn":"257.15","stresu":"10^9/L","stnrlo":"150","stnrhi":"400","nrind":"NORMAL","fast":null,"dtc":"2024-04-16","dy":"27","visit":"WEEK 4","visitnum":"4.0","epoch":"TREATMENT","spec":null,"method":null},{"seq":"28","testcd":"WBC","test":"Leukocytes","cat":"HEMATOLOGY","orres":"4.45","orresu":"10^9/L","stresc":"4.45","stresn":"4.45","stresu":"10^9/L","stnrlo":"4.0","stnrhi":"11.0","nrind":"NORMAL","fast":null,"dtc":"2024-04-16","dy":"27","visit":"WEEK 4","visitnum":"4.0","epoch":"TREATMENT","spec":null,"method":null},{"seq":"29","testcd":"ALT","test":"Alanine Aminotransferase","cat":"CHEMISTRY","orres":"16.33","orresu":"U/L","stresc":"16.33","stresn":"16.33","stresu":"U/L","stnrlo":"7","stnrhi":"56","nrind":"NORMAL","fast":null,"dtc":"2024-05-17","dy":"58","visit":"WEEK 8","visitnum":"5.0","epoch":"TREATMENT","spec":null,"method":null},{"seq":"30","testcd":"AST","test":"Aspartate Aminotransferase","cat":"CHEMISTRY","orres":"20.21","orresu":"U/L","stresc":"20.21","stresn":"20.21","stresu":"U/L","stnrlo":"10","stnrhi":"40","nrind":"NORMAL","fast":null,"dtc":"2024-05-17","dy":"58","visit":"WEEK 8","visitnum":"5.0","epoch":"TREATMENT","spec":null,"method":null},{"seq":"31","testcd":"CREAT","test":"Creatinine","cat":"CHEMISTRY","orres":"49.22","orresu":"umol/L","stresc":"49.22","stresn":"49.22","stresu":"umol/L","stnrlo":"44","stnrhi":"80","nrind":"NORMAL","fast":null,"dtc":"2024-05-17","dy":"58","visit":"WEEK 8","visitnum":"5.0","epoch":"TREATMENT","spec":null,"method":null},{"seq":"32","testcd":"GLUC","test":"Glucose","cat":"CHEMISTRY","orres":"5.07","orresu":"mmol/L","stresc":"5.07","stresn":"5.07","stresu":"mmol/L","stnrlo":"3.9","stnrhi":"5.6","nrind":"NORMAL","fast":null,"dtc":"2024-05-17","dy":"58","visit":"WEEK 8","visitnum":"5.0","epoch":"TREATMENT","spec":null,"method":null},{"seq":"33","testcd":"HGB","test":"Hemoglobin","cat":"HEMATOLOGY","orres":"106.55","orresu":"g/L","stresc":"106.55","stresn":"106.55","stresu":"g/L","stnrlo":"120","stnrhi":"155","nrind":"LOW","fast":null,"dtc":"2024-05-17","dy":"58","visit":"WEEK 8","visitnum":"5.0","epoch":"TREATMENT","spec":null,"method":null},{"seq":"34","testcd":"PLAT","test":"Platelets","cat":"HEMATOLOGY","orres":null,"orresu":null,"stresc":null,"stresn":null,"stresu":null,"stnrlo":null,"stnrhi":null,"nrind":null,"fast":null,"dtc":"2024-05-17","dy":"58","visit":"WEEK 8","visitnum":"5.0","epoch":"TREATMENT","spec":null,"method":null},{"seq":"35","testcd":"WBC","test":"Leukocytes","cat":"HEMATOLOGY","orres":"4.84","orresu":"10^9/L","stresc":"4.84","stresn":"4.84","stresu":"10^9/L","stnrlo":"4.0","stnrhi":"11.0","nrind":"NORMAL","fast":null,"dtc":"2024-05-17","dy":"58","visit":"WEEK 8","visitnum":"5.0","epoch":"TREATMENT","spec":null,"method":null},{"seq":"36","testcd":"ALT","test":"Alanine Aminotransferase","cat":"CHEMISTRY","orres":"17.34","orresu":"U/L","stresc":"17.34","stresn":"17.34","stresu":"U/L","stnrlo":"7","stnrhi":"56","nrind":"NORMAL","fast":null,"dtc":"2024-06-15","dy":"87","visit":"WEEK 12","visitnum":"6.0","epoch":"TREATMENT","spec":null,"method":null},{"seq":"37","testcd":"AST","test":"Aspartate Aminotransferase","cat":"CHEMISTRY","orres":"19.09","orresu":"U/L","stresc":"19.09","stresn":"19.09","stresu":"U/L","stnrlo":"10","stnrhi":"40","nrind":"NORMAL","fast":null,"dtc":"2024-06-15","dy":"87","visit":"WEEK 12","visitnum":"6.0","epoch":"TREATMENT","spec":null,"method":null},{"seq":"38","testcd":"CREAT","test":"Creatinine","cat":"CHEMISTRY","orres":"49.79","orresu":"umol/L","stresc":"49.79","stresn":"49.79","stresu":"umol/L","stnrlo":"44","stnrhi":"80","nrind":"NORMAL","fast":null,"dtc":"2024-06-15","dy":"87","visit":"WEEK 12","visitnum":"6.0","epoch":"TREATMENT","spec":null,"method":null},{"seq":"39","testcd":"GLUC","test":"Glucose","cat":"CHEMISTRY","orres":"4.97","orresu":"mmol/L","stresc":"4.97","stresn":"4.97","stresu":"mmol/L","stnrlo":"3.9","stnrhi":"5.6","nrind":"NORMAL","fast":null,"dtc":"2024-06-15","dy":"87","visit":"WEEK 12","visitnum":"6.0","epoch":"TREATMENT","spec":null,"method":null},{"seq":"40","testcd":"HGB","test":"Hemoglobin","cat":"HEMATOLOGY","orres":"106.83","orresu":"g/L","stresc":"106.83","stresn":"106.83","stresu":"g/L","stnrlo":"120","stnrhi":"155","nrind":"LOW","fast":null,"dtc":"2024-06-15","dy":"87","visit":"WEEK 12","visitnum":"6.0","epoch":"TREATMENT","spec":null,"method":null},{"seq":"41","testcd":"PLAT","test":"Platelets","cat":"HEMATOLOGY","orres":"277.35","orresu":"10^9/L","stresc":"277.35","stresn":"277.35","stresu":"10^9/L","stnrlo":"150","stnrhi":"400","nrind":"NORMAL","fast":null,"dtc":"2024-06-15","dy":"87","visit":"WEEK 12","visitnum":"6.0","epoch":"TREATMENT","spec":null,"method":null},{"seq":"42","testcd":"WBC","test":"Leukocytes","cat":"HEMATOLOGY","orres":null,"orresu":null,"stresc":null,"stresn":null,"stresu":null,"stnrlo":null,"stnrhi":null,"nrind":null,"fast":null,"dtc":"2024-06-15","dy":"87","visit":"WEEK 12","visitnum":"6.0","epoch":"TREATMENT","spec":null,"method":null},{"seq":"43","testcd":"ALT","test":"Alanine Aminotransferase","cat":"CHEMISTRY","orres":"16.85","orresu":"U/L","stresc":"16.85","stresn":"16.85","stresu":"U/L","stnrlo":"7","stnrhi":"56","nrind":"NORMAL","fast":null,"dtc":"2024-07-10","dy":"112","visit":"FOLLOW-UP","visitnum":"7.0","epoch":"FOLLOW-UP","spec":null,"method":null},{"seq":"44","testcd":"AST","test":"Aspartate Aminotransferase","cat":"CHEMISTRY","orres":"19.95","orresu":"U/L","stresc":"19.95","stresn":"19.95","stresu":"U/L","stnrlo":"10","stnrhi":"40","nrind":"NORMAL","fast":null,"dtc":"2024-07-10","dy":"112","visit":"FOLLOW-UP","visitnum":"7.0","epoch":"FOLLOW-UP","spec":null,"method":null},{"seq":"45","testcd":"CREAT","test":"Creatinine","cat":"CHEMISTRY","orres":"49.5","orresu":"umol/L","stresc":"49.5","stresn":"49.5","stresu":"umol/L","stnrlo":"44","stnrhi":"80","nrind":"NORMAL","fast":null,"dtc":"2024-07-10","dy":"112","visit":"FOLLOW-UP","visitnum":"7.0","epoch":"FOLLOW-UP","spec":null,"method":null},{"seq":"46","testcd":"GLUC","test":"Glucose","cat":"CHEMISTRY","orres":null,"orresu":null,"stresc":null,"stresn":null,"stresu":null,"stnrlo":null,"stnrhi":null,"nrind":null,"fast":null,"dtc":"2024-07-10","dy":"112","visit":"FOLLOW-UP","visitnum":"7.0","epoch":"FOLLOW-UP","spec":null,"method":null},{"seq":"47","testcd":"HGB","test":"Hemoglobin","cat":"HEMATOLOGY","orres":"107.51","orresu":"g/L","stresc":"107.51","stresn":"107.51","stresu":"g/L","stnrlo":"120","stnrhi":"155","nrind":"LOW","fast":null,"dtc":"2024-07-10","dy":"112","visit":"FOLLOW-UP","visitnum":"7.0","epoch":"FOLLOW-UP","spec":null,"method":null},{"seq":"48","testcd":"PLAT","test":"Platelets","cat":"HEMATOLOGY","orres":"310.69","orresu":"10^9/L","stresc":"310.69","stresn":"310.69","stresu":"10^9/L","stnrlo":"150","stnrhi":"400","nrind":"NORMAL","fast":null,"dtc":"2024-07-10","dy":"112","visit":"FOLLOW-UP","visitnum":"7.0","epoch":"FOLLOW-UP","spec":null,"method":null},{"seq":"49","testcd":"WBC","test":"Leukocytes","cat":"HEMATOLOGY","orres":"5.58","orresu":"10^9/L","stresc":"5.58","stresn":"5.58","stresu":"10^9/L","stnrlo":"4.0","stnrhi":"11.0","nrind":"NORMAL","fast":null,"dtc":"2024-07-10","dy":"112","visit":"FOLLOW-UP","visitnum":"7.0","epoch":"FOLLOW-UP","spec":null,"method":null}]},"section_9_vital_signs":{"summary":{"total_records":48},"trends":{"BMI":[{"visit":"SCREENING","visitnum":"1.0","dtc":"2024-03-09","value":"30.9","unit":"kg/m2"},{"visit":"BASELINE","visitnum":"2.0","dtc":"2024-03-21","value":"30.6","unit":"kg/m2"},{"visit":"WEEK 2","visitnum":"3.0","dtc":"2024-04-01","value":"30.0","unit":"kg/m2"},{"visit":"WEEK 4","visitnum":"4.0","dtc":"2024-04-16","value":"29.0","unit":"kg/m2"},{"visit":"WEEK 12","visitnum":"6.0","dtc":"2024-06-15","value":"29.1","unit":"kg/m2"},{"visit":"FOLLOW-UP","visitnum":"7.0","dtc":"2024-07-10","value":"29.3","unit":"kg/m2"}],"DIABP":[{"visit":"SCREENING","visitnum":"1.0","dtc":"2024-03-09","value":"88.6","unit":"mmHg"},{"visit":"BASELINE","visitnum":"2.0","dtc":"2024-03-21","value":"90.5","unit":"mmHg"},{"visit":"WEEK 2","visitnum":"3.0","dtc":"2024-04-01","value":"90.5","unit":"mmHg"},{"visit":"WEEK 4","visitnum":"4.0","dtc":"2024-04-16","value":"89.6","unit":"mmHg"},{"visit":"WEEK 12","visitnum":"6.0","dtc":"2024-06-15","value":"91.0","unit":"mmHg"},{"visit":"FOLLOW-UP","visitnum":"7.0","dtc":"2024-07-10","value":"88.8","unit":"mmHg"}],"HEIGHT":[{"visit":"SCREENING","visitnum":"1.0","dtc":"2024-03-09","value":"163.8","unit":"cm"},{"visit":"BASELINE","visitnum":"2.0","dtc":"2024-03-21","value":"164.4","unit":"cm"},{"visit":"WEEK 2","visitnum":"3.0","dtc":"2024-04-01","value":"165.0","unit":"cm"},{"visit":"WEEK 4","visitnum":"4.0","dtc":"2024-04-16","value":"165.9","unit":"cm"},{"visit":"WEEK 12","visitnum":"6.0","dtc":"2024-06-15","value":"165.9","unit":"cm"},{"visit":"FOLLOW-UP","visitnum":"7.0","dtc":"2024-07-10","value":"165.4","unit":"cm"}],"PULSE":[{"visit":"SCREENING","visitnum":"1.0","dtc":"2024-03-09","value":"79.9","unit":"beats/min"},{"visit":"BASELINE","visitnum":"2.0","dtc":"2024-03-21","value":"76.2","unit":"beats/min"},{"visit":"WEEK 2","visitnum":"3.0","dtc":"2024-04-01","value":"79.8","unit":"beats/min"},{"visit":"WEEK 4","visitnum":"4.0","dtc":"2024-04-16","value":"75.4","unit":"beats/min"},{"visit":"WEEK 12","visitnum":"6.0","dtc":"2024-06-15","value":"78.3","unit":"beats/min"},{"visit":"FOLLOW-UP","visitnum":"7.0","dtc":"2024-07-10","value":"72.6","unit":"beats/min"}],"RESP":[{"visit":"SCREENING","visitnum":"1.0","dtc":"2024-03-09","value":"15.0","unit":"breaths/min"},{"visit":"BASELINE","visitnum":"2.0","dtc":"2024-03-21","value":"13.9","unit":"breaths/min"},{"visit":"WEEK 2","visitnum":"3.0","dtc":"2024-04-01","value":"16.1","unit":"breaths/min"},{"visit":"WEEK 4","visitnum":"4.0","dtc":"2024-04-16","value":"17.9","unit":"breaths/min"},{"visit":"WEEK 12","visitnum":"6.0","dtc":"2024-06-15","value":"16.5","unit":"breaths/min"},{"visit":"FOLLOW-UP","visitnum":"7.0","dtc":"2024-07-10","value":"17.0","unit":"breaths/min"}],"SYSBP":[{"visit":"SCREENING","visitnum":"1.0","dtc":"2024-03-09","value":"121.1","unit":"mmHg"},{"visit":"BASELINE","visitnum":"2.0","dtc":"2024-03-21","value":"124.8","unit":"mmHg"},{"visit":"WEEK 2","visitnum":"3.0","dtc":"2024-04-01","value":"125.3","unit":"mmHg"},{"visit":"WEEK 4","visitnum":"4.0","dtc":"2024-04-16","value":"121.9","unit":"mmHg"},{"visit":"WEEK 12","visitnum":"6.0","dtc":"2024-06-15","value":"122.7","unit":"mmHg"},{"visit":"FOLLOW-UP","visitnum":"7.0","dtc":"2024-07-10","value":"116.2","unit":"mmHg"}],"TEMP":[{"visit":"SCREENING","visitnum":"1.0","dtc":"2024-03-09","value":"37.0","unit":"C"},{"visit":"BASELINE","visitnum":"2.0","dtc":"2024-03-21","value":"36.8","unit":"C"},{"visit":"WEEK 4","visitnum":"4.0","dtc":"2024-04-16","value":"37.0","unit":"C"},{"visit":"WEEK 12","visitnum":"6.0","dtc":"2024-06-15","value":"36.9","unit":"C"},{"visit":"FOLLOW-UP","visitnum":"7.0","dtc":"2024-07-10","value":"36.7","unit":"C"}],"WEIGHT":[{"visit":"SCREENING","visitnum":"1.0","dtc":"2024-03-09","value":"82.9","unit":"kg"},{"visit":"BASELINE","visitnum":"2.0","dtc":"2024-03-21","value":"82.7","unit":"kg"},{"visit":"WEEK 2","visitnum":"3.0","dtc":"2024-04-01","value":"81.8","unit":"kg"},{"visit":"WEEK 4","visitnum":"4.0","dtc":"2024-04-16","value":"79.7","unit":"kg"},{"visit":"WEEK 12","visitnum":"6.0","dtc":"2024-06-15","value":"80.1","unit":"kg"},{"visit":"FOLLOW-UP","visitnum":"7.0","dtc":"2024-07-10","value":"80.1","unit":"kg"}]},"results":[{"seq":"1","testcd":"BMI","test":"BMI","cat":null,"orres":"30.9","orresu":"kg/m2","stresc":"30.9","stresn":"30.9","stresu":"kg/m2","stnrlo":null,"stnrhi":null,"nrind":null,"pos":null,"loc":null,"dtc":"2024-03-09","dy":"-12","visit":"SCREENING","visitnum":"1.0","epoch":"SCREENING"},{"seq":"2","testcd":"DIABP","test":"Diastolic Blood Pressure","cat":null,"orres":"88.6","orresu":"mmHg","stresc":"88.6","stresn":"88.6","stresu":"mmHg","stnrlo":null,"stnrhi":null,"nrind":null,"pos":null,"loc":null,"dtc":"2024-03-09","dy":"-12","visit":"SCREENING","visitnum":"1.0","epoch":"SCREENING"},{"seq":"3","testcd":"HEIGHT","test":"Height","cat":null,"orres":"163.8","orresu":"cm","stresc":"163.8","stresn":"163.8","stresu":"cm","stnrlo":null,"stnrhi":null,"nrind":null,"pos":null,"loc":null,"dtc":"2024-03-09","dy":"-12","visit":"SCREENING","visitnum":"1.0","epoch":"SCREENING"},{"seq":"4","testcd":"PULSE","test":"Pulse Rate","cat":null,"orres":"79.9","orresu":"beats/min","stresc":"79.9","stresn":"79.9","stresu":"beats/min","stnrlo":null,"stnrhi":null,"nrind":null,"pos":null,"loc":null,"dtc":"2024-03-09","dy":"-12","visit":"SCREENING","visitnum":"1.0","epoch":"SCREENING"},{"seq":"5","testcd":"RESP","test":"Respiratory Rate","cat":null,"orres":"15.0","orresu":"breaths/min","stresc":"15.0","stresn":"15.0","stresu":"breaths/min","stnrlo":null,"stnrhi":null,"nrind":null,"pos":null,"loc":null,"dtc":"2024-03-09","dy":"-12","visit":"SCREENING","visitnum":"1.0","epoch":"SCREENING"},{"seq":"6","testcd":"SYSBP","test":"Systolic Blood Pressure","cat":null,"orres":"121.1","orresu":"mmHg","stresc":"121.1","stresn":"121.1","stresu":"mmHg","stnrlo":null,"stnrhi":null,"nrind":null,"pos":null,"loc":null,"dtc":"2024-03-09","dy":"-12","visit":"SCREENING","visitnum":"1.0","epoch":"SCREENING"},{"seq":"7","testcd":"TEMP","test":"Temperature","cat":null,"orres":"37.0","orresu":"C","stresc":"37.0","stresn":"37.0","stresu":"C","stnrlo":null,"stnrhi":null,"nrind":null,"pos":null,"loc":null,"dtc":"2024-03-09","dy":"-12","visit":"SCREENING","visitnum":"1.0","epoch":"SCREENING"},{"seq":"8","testcd":"WEIGHT","test":"Weight","cat":null,"orres":"82.9","orresu":"kg","stresc":"82.9","stresn":"82.9","stresu":"kg","stnrlo":null,"stnrhi":null,"nrind":null,"pos":null,"loc":null,"dtc":"2024-03-09","dy":"-12","visit":"SCREENING","visitnum":"1.0","epoch":"SCREENING"},{"seq":"9","testcd":"BMI","test":"BMI","cat":null,"orres":"30.6","orresu":"kg/m2","stresc":"30.6","stresn":"30.6","stresu":"kg/m2","stnrlo":null,"stnrhi":null,"nrind":null,"pos":null,"loc":null,"dtc":"2024-03-21","dy":"1","visit":"BASELINE","visitnum":"2.0","epoch":"TREATMENT"},{"seq":"10","testcd":"DIABP","test":"Diastolic Blood Pressure","cat":null,"orres":"90.5","orresu":"mmHg","stresc":"90.5","stresn":"90.5","stresu":"mmHg","stnrlo":null,"stnrhi":null,"nrind":null,"pos":null,"loc":null,"dtc":"2024-03-21","dy":"1","visit":"BASELINE","visitnum":"2.0","epoch":"TREATMENT"},{"seq":"11","testcd":"HEIGHT","test":"Height","cat":null,"orres":"164.4","orresu":"cm","stresc":"164.4","stresn":"164.4","stresu":"cm","stnrlo":null,"stnrhi":null,"nrind":null,"pos":null,"loc":null,"dtc":"2024-03-21","dy":"1","visit":"BASELINE","visitnum":"2.0","epoch":"TREATMENT"},{"seq":"12","testcd":"PULSE","test":"Pulse Rate","cat":null,"orres":"76.2","orresu":"beats/min","stresc":"76.2","stresn":"76.2","stresu":"beats/min","stnrlo":null,"stnrhi":null,"nrind":null,"pos":null,"loc":null,"dtc":"2024-03-21","dy":"1","visit":"BASELINE","visitnum":"2.0","epoch":"TREATMENT"},{"seq":"13","testcd":"RESP","test":"Respiratory Rate","cat":null,"orres":"13.9","orresu":"breaths/min","stresc":"13.9","stresn":"13.9","stresu":"breaths/min","stnrlo":null,"stnrhi":null,"nrind":null,"pos":null,"loc":null,"dtc":"2024-03-21","dy":"1","visit":"BASELINE","visitnum":"2.0","epoch":"TREATMENT"},{"seq":"14","testcd":"SYSBP","test":"Systolic Blood Pressure","cat":null,"orres":"124.8","orresu":"mmHg","stresc":"124.8","stresn":"124.8","stresu":"mmHg","stnrlo":null,"stnrhi":null,"nrind":null,"pos":null,"loc":null,"dtc":"2024-03-21","dy":"1","visit":"BASELINE","visitnum":"2.0","epoch":"TREATMENT"},{"seq":"15","testcd":"TEMP","test":"Temperature","cat":null,"orres":"36.8","orresu":"C","stresc":"36.8","stresn":"36.8","stresu":"C","stnrlo":null,"stnrhi":null,"nrind":null,"pos":null,"loc":null,"dtc":"2024-03-21","dy":"1","visit":"BASELINE","visitnum":"2.0","epoch":"TREATMENT"},{"seq":"16","testcd":"WEIGHT","test":"Weight","cat":null,"orres":"82.7","orresu":"kg","stresc":"82.7","stresn":"82.7","stresu":"kg","stnrlo":null,"stnrhi":null,"nrind":null,"pos":null,"loc":null,"dtc":"2024-03-21","dy":"1","visit":"BASELINE","visitnum":"2.0","epoch":"TREATMENT"},{"seq":"17","testcd":"BMI","test":"BMI","cat":null,"orres":"30.0","orresu":"kg/m2","stresc":"30.0","stresn":"30.0","stresu":"kg/m2","stnrlo":null,"stnrhi":null,"nrind":null,"pos":null,"loc":null,"dtc":"2024-04-01","dy":"12","visit":"WEEK 2","visitnum":"3.0","epoch":"TREATMENT"},{"seq":"18","testcd":"DIABP","test":"Diastolic Blood Pressure","cat":null,"orres":"90.5","orresu":"mmHg","stresc":"90.5","stresn":"90.5","stresu":"mmHg","stnrlo":null,"stnrhi":null,"nrind":null,"pos":null,"loc":null,"dtc":"2024-04-01","dy":"12","visit":"WEEK 2","visitnum":"3.0","epoch":"TREATMENT"},{"seq":"19","testcd":"HEIGHT","test":"Height","cat":null,"orres":"165.0","orresu":"cm","stresc":"165.0","stresn":"165.0","stresu":"cm","stnrlo":null,"stnrhi":null,"nrind":null,"pos":null,"loc":null,"dtc":"2024-04-01","dy":"12","visit":"WEEK 2","visitnum":"3.0","epoch":"TREATMENT"},{"seq":"20","testcd":"PULSE","test":"Pulse Rate","cat":null,"orres":"79.8","orresu":"beats/min","stresc":"79.8","stresn":"79.8","stresu":"beats/min","stnrlo":null,"stnrhi":null,"nrind":null,"pos":null,"loc":null,"dtc":"2024-04-01","dy":"12","visit":"WEEK 2","visitnum":"3.0","epoch":"TREATMENT"},{"seq":"21","testcd":"RESP","test":"Respiratory Rate","cat":null,"orres":"16.1","orresu":"breaths/min","stresc":"16.1","stresn":"16.1","stresu":"breaths/min","stnrlo":null,"stnrhi":null,"nrind":null,"pos":null,"loc":null,"dtc":"2024-04-01","dy":"12","visit":"WEEK 2","visitnum":"3.0","epoch":"TREATMENT"},{"seq":"22","testcd":"SYSBP","test":"Systolic Blood Pressure","cat":null,"orres":"125.3","orresu":"mmHg","stresc":"125.3","stresn":"125.3","stresu":"mmHg","stnrlo":null,"stnrhi":null,"nrind":null,"pos":null,"loc":null,"dtc":"2024-04-01","dy":"12","visit":"WEEK 2","visitnum":"3.0","epoch":"TREATMENT"},{"seq":"23","testcd":"TEMP","test":"Temperature","cat":null,"orres":null,"orresu":null,"stresc":null,"stresn":null,"stresu":null,"stnrlo":null,"stnrhi":null,"nrind":null,"pos":null,"loc":null,"dtc":"2024-04-01","dy":"12","visit":"WEEK 2","visitnum":"3.0","epoch":"TREATMENT"},{"seq":"24","testcd":"WEIGHT","test":"Weight","cat":null,"orres":"81.8","orresu":"kg","stresc":"81.8","stresn":"81.8","stresu":"kg","stnrlo":null,"stnrhi":null,"nrind":null,"pos":null,"loc":null,"dtc":"2024-04-01","dy":"12","visit":"WEEK 2","visitnum":"3.0","epoch":"TREATMENT"},{"seq":"25","testcd":"BMI","test":"BMI","cat":null,"orres":"29.0","orresu":"kg/m2","stresc":"29.0","stresn":"29.0","stresu":"kg/m2","stnrlo":null,"stnrhi":null,"nrind":null,"pos":null,"loc":null,"dtc":"2024-04-16","dy":"27","visit":"WEEK 4","visitnum":"4.0","epoch":"TREATMENT"},{"seq":"26","testcd":"DIABP","test":"Diastolic Blood Pressure","cat":null,"orres":"89.6","orresu":"mmHg","stresc":"89.6","stresn":"89.6","stresu":"mmHg","stnrlo":null,"stnrhi":null,"nrind":null,"pos":null,"loc":null,"dtc":"2024-04-16","dy":"27","visit":"WEEK 4","visitnum":"4.0","epoch":"TREATMENT"},{"seq":"27","testcd":"HEIGHT","test":"Height","cat":null,"orres":"165.9","orresu":"cm","stresc":"165.9","stresn":"165.9","stresu":"cm","stnrlo":null,"stnrhi":null,"nrind":null,"pos":null,"loc":null,"dtc":"2024-04-16","dy":"27","visit":"WEEK 4","visitnum":"4.0","epoch":"TREATMENT"},{"seq":"28","testcd":"PULSE","test":"Pulse Rate","cat":null,"orres":"75.4","orresu":"beats/min","stresc":"75.4","stresn":"75.4","stresu":"beats/min","stnrlo":null,"stnrhi":null,"nrind":null,"pos":null,"loc":null,"dtc":"2024-04-16","dy":"27","visit":"WEEK 4","visitnum":"4.0","epoch":"TREATMENT"},{"seq":"29","testcd":"RESP","test":"Respiratory Rate","cat":null,"orres":"17.9","orresu":"breaths/min","stresc":"17.9","stresn":"17.9","stresu":"breaths/min","stnrlo":null,"stnrhi":null,"nrind":null,"pos":null,"loc":null,"dtc":"2024-04-16","dy":"27","visit":"WEEK 4","visitnum":"4.0","epoch":"TREATMENT"},{"seq":"30","testcd":"SYSBP","test":"Systolic Blood Pressure","cat":null,"orres":"121.9","orresu":"mmHg","stresc":"121.9","stresn":"121.9","stresu":"mmHg","stnrlo":null,"stnrhi":null,"nrind":null,"pos":null,"loc":null,"dtc":"2024-04-16","dy":"27","visit":"WEEK 4","visitnum":"4.0","epoch":"TREATMENT"},{"seq":"31","testcd":"TEMP","test":"Temperature","cat":null,"orres":"37.0","orresu":"C","stresc":"37.0","stresn":"37.0","stresu":"C","stnrlo":null,"stnrhi":null,"nrind":null,"pos":null,"loc":null,"dtc":"2024-04-16","dy":"27","visit":"WEEK 4","visitnum":"4.0","epoch":"TREATMENT"},{"seq":"32","testcd":"WEIGHT","test":"Weight","cat":null,"orres":"79.7","orresu":"kg","stresc":"79.7","stresn":"79.7","stresu":"kg","stnrlo":null,"stnrhi":null,"nrind":null,"pos":null,"loc":null,"dtc":"2024-04-16","dy":"27","visit":"WEEK 4","visitnum":"4.0","epoch":"TREATMENT"},{"seq":"33","testcd":"BMI","test":"BMI","cat":null,"orres":"29.1","orresu":"kg/m2","stresc":"29.1","stresn":"29.1","stresu":"kg/m2","stnrlo":null,"stnrhi":null,"nrind":null,"pos":null,"loc":null,"dtc":"2024-06-15","dy":"87","visit":"WEEK 12","visitnum":"6.0","epoch":"TREATMENT"},{"seq":"34","testcd":"DIABP","test":"Diastolic Blood Pressure","cat":null,"orres":"91.0","orresu":"mmHg","stresc":"91.0","stresn":"91.0","stresu":"mmHg","stnrlo":null,"stnrhi":null,"nrind":null,"pos":null,"loc":null,"dtc":"2024-06-15","dy":"87","visit":"WEEK 12","visitnum":"6.0","epoch":"TREATMENT"},{"seq":"35","testcd":"HEIGHT","test":"Height","cat":null,"orres":"165.9","orresu":"cm","stresc":"165.9","stresn":"165.9","stresu":"cm","stnrlo":null,"stnrhi":null,"nrind":null,"pos":null,"loc":null,"dtc":"2024-06-15","dy":"87","visit":"WEEK 12","visitnum":"6.0","epoch":"TREATMENT"},{"seq":"36","testcd":"PULSE","test":"Pulse Rate","cat":null,"orres":"78.3","orresu":"beats/min","stresc":"78.3","stresn":"78.3","stresu":"beats/min","stnrlo":null,"stnrhi":null,"nrind":null,"pos":null,"loc":null,"dtc":"2024-06-15","dy":"87","visit":"WEEK 12","visitnum":"6.0","epoch":"TREATMENT"},{"seq":"37","testcd":"RESP","test":"Respiratory Rate","cat":null,"orres":"16.5","orresu":"breaths/min","stresc":"16.5","stresn":"16.5","stresu":"breaths/min","stnrlo":null,"stnrhi":null,"nrind":null,"pos":null,"loc":null,"dtc":"2024-06-15","dy":"87","visit":"WEEK 12","visitnum":"6.0","epoch":"TREATMENT"},{"seq":"38","testcd":"SYSBP","test":"Systolic Blood Pressure","cat":null,"orres":"122.7","orresu":"mmHg","stresc":"122.7","stresn":"122.7","stresu":"mmHg","stnrlo":null,"stnrhi":null,"nrind":null,"pos":null,"loc":null,"dtc":"2024-06-15","dy":"87","visit":"WEEK 12","visitnum":"6.0","epoch":"TREATMENT"},{"seq":"39","testcd":"TEMP","test":"Temperature","cat":null,"orres":"36.9","orresu":"C","stresc":"36.9","stresn":"36.9","stresu":"C","stnrlo":null,"stnrhi":null,"nrind":null,"pos":null,"loc":null,"dtc":"2024-06-15","dy":"87","visit":"WEEK 12","visitnum":"6.0","epoch":"TREATMENT"},{"seq":"40","testcd":"WEIGHT","test":"Weight","cat":null,"orres":"80.1","orresu":"kg","stresc":"80.1","stresn":"80.1","stresu":"kg","stnrlo":null,"stnrhi":null,"nrind":null,"pos":null,"loc":null,"dtc":"2024-06-15","dy":"87","visit":"WEEK 12","visitnum":"6.0","epoch":"TREATMENT"},{"seq":"41","testcd":"BMI","test":"BMI","cat":null,"orres":"29.3","orresu":"kg/m2","stresc":"29.3","stresn":"29.3","stresu":"kg/m2","stnrlo":null,"stnrhi":null,"nrind":null,"pos":null,"loc":null,"dtc":"2024-07-10","dy":"112","visit":"FOLLOW-UP","visitnum":"7.0","epoch":"FOLLOW-UP"},{"seq":"42","testcd":"DIABP","test":"Diastolic Blood Pressure","cat":null,"orres":"88.8","orresu":"mmHg","stresc":"88.8","stresn":"88.8","stresu":"mmHg","stnrlo":null,"stnrhi":null,"nrind":null,"pos":null,"loc":null,"dtc":"2024-07-10","dy":"112","visit":"FOLLOW-UP","visitnum":"7.0","epoch":"FOLLOW-UP"},{"seq":"43","testcd":"HEIGHT","test":"Height","cat":null,"orres":"165.4","orresu":"cm","stresc":"165.4","stresn":"165.4","stresu":"cm","stnrlo":null,"stnrhi":null,"nrind":null,"pos":null,"loc":null,"dtc":"2024-07-10","dy":"112","visit":"FOLLOW-UP","visitnum":"7.0","epoch":"FOLLOW-UP"},{"seq":"44","testcd":"PULSE","test":"Pulse Rate","cat":null,"orres":"72.6","orresu":"beats/min","stresc":"72.6","stresn":"72.6","stresu":"beats/min","stnrlo":null,"stnrhi":null,"nrind":null,"pos":null,"loc":null,"dtc":"2024-07-10","dy":"112","visit":"FOLLOW-UP","visitnum":"7.0","epoch":"FOLLOW-UP"},{"seq":"45","testcd":"RESP","test":"Respiratory Rate","cat":null,"orres":"17.0","orresu":"breaths/min","stresc":"17.0","stresn":"17.0","stresu":"breaths/min","stnrlo":null,"stnrhi":null,"nrind":null,"pos":null,"loc":null,"dtc":"2024-07-10","dy":"112","visit":"FOLLOW-UP","visitnum":"7.0","epoch":"FOLLOW-UP"},{"seq":"46","testcd":"SYSBP","test":"Systolic Blood Pressure","cat":null,"orres":"116.2","orresu":"mmHg","stresc":"116.2","stresn":"116.2","stresu":"mmHg","stnrlo":null,"stnrhi":null,"nrind":null,"pos":null,"loc":null,"dtc":"2024-07-10","dy":"112","visit":"FOLLOW-UP","visitnum":"7.0","epoch":"FOLLOW-UP"},{"seq":"47","testcd":"TEMP","test":"Temperature","cat":null,"orres":"36.7","orresu":"C","stresc":"36.7","stresn":"36.7","stresu":"C","stnrlo":null,"stnrhi":null,"nrind":null,"pos":null,"loc":null,"dtc":"2024-07-10","dy":"112","visit":"FOLLOW-UP","visitnum":"7.0","epoch":"FOLLOW-UP"},{"seq":"48","testcd":"WEIGHT","test":"Weight","cat":null,"orres":"80.1","orresu":"kg","stresc":"80.1","stresn":"80.1","stresu":"kg","stnrlo":null,"stnrhi":null,"nrind":null,"pos":null,"loc":null,"dtc":"2024-07-10","dy":"112","visit":"FOLLOW-UP","visitnum":"7.0","epoch":"FOLLOW-UP"}]},"section_10_questionnaires_and_scores":{"questionnaires":[],"findings_about":[]},"section_11_protocol_deviations":{"deviations":[{"seq":"1","term":"Vital signs assessment not performed at WEEK 2","decod":"MISSED ASSESSMENT","cat":"MINOR","scat":"ASSESSMENT","start_dtc":"2024-04-01","end_dtc":null,"visit":null},{"seq":"2","term":"Missed PLACEBO dose on 2024-04-07","decod":"MISSED DOSE","cat":"MINOR","scat":"DOSING","start_dtc":"2024-04-07","end_dtc":null,"visit":null},{"seq":"3","term":"Missed PLACEBO dose on 2024-04-08","decod":"MISSED DOSE","cat":"MINOR","scat":"DOSING","start_dtc":"2024-04-08","end_dtc":null,"visit":null},{"seq":"4","term":"Missed PLACEBO dose on 2024-04-14","decod":"MISSED DOSE","cat":"MINOR","scat":"DOSING","start_dtc":"2024-04-14","end_dtc":null,"visit":null},{"seq":"5","term":"Missed PLACEBO dose on 2024-04-21","decod":"MISSED DOSE","cat":"MINOR","scat":"DOSING","start_dtc":"2024-04-21","end_dtc":null,"visit":null},{"seq":"6","term":"Missed PLACEBO dose on 2024-05-10","decod":"MISSED DOSE","cat":"MINOR","scat":"DOSING","start_dtc":"2024-05-10","end_dtc":null,"visit":null},{"seq":"7","term":"Visit WEEK 12 occurred 2 days late (Day 87 vs planned Day 85)","decod":"VISIT OCCURRED OUTSIDE VISIT WINDOW","cat":"MINOR","scat":"VISIT WINDOW","start_dtc":"2024-06-15","end_dtc":null,"visit":null}],"total":7},"section_12_disposition":{"completion_status":"COMPLETED","disposition_records":[{"seq":"1","term":"INFORMED CONSENT OBTAINED","decod":"INFORMED CONSENT OBTAINED","cat":"PROTOCOL MILESTONE","scat":null,"dtc":"2024-02-20","dy":null,"visit":null,"epoch":"SCREENING"},{"seq":"2","term":"RANDOMIZED","decod":"RANDOMIZED","cat":"PROTOCOL MILESTONE","scat":null,"dtc":"2024-03-21","dy":null,"visit":null,"epoch":"TREATMENT"},{"seq":"3","term":"COMPLETED","decod":"COMPLETED","cat":"DISPOSITION EVENT","scat":null,"dtc":"2024-08-07","dy":null,"visit":null,"epoch":"FOLLOW-UP"}],"death":null},"section_13_hospitalizations":{"items":[],"total":0},"section_14_substance_use":{"items":[{"seq":"1","substance":"ALCOHOL","decod":"ALCOHOL","cat":"ALCOHOL","scat":null,"usage":"N","dose":null,"dosu":null,"freq":null,"start_dtc":null,"end_dtc":null},{"seq":"2","substance":"COFFEE","decod":"COFFEE","cat":"CAFFEINE","scat":null,"usage":"N","dose":null,"dosu":null,"freq":null,"start_dtc":null,"end_dtc":null},{"seq":"3","substance":"CIGARETTES","decod":"CIGARETTES","cat":"TOBACCO","scat":"CIGARETTES","usage":"N","dose":null,"dosu":null,"freq":null,"start_dtc":null,"end_dtc":null}],"total":3},"section_15_subject_status":{"items":[{"seq":"1","testcd":"SURVSTAT","test":"Survival Status","orres":"ALIVE","stresc":"ALIVE","dtc":"2024-08-07","visit":"END OF STUDY","epoch":"FOLLOW-UP"}],"total":1}}