{"subject_id":"GB001-ASTHMA-201-SITE003-0294","study_id":"GB001-ASTHMA-201","generated_at":"2026-06-16T07:22:57.100439+00:00","sdtmig_version":"3.4","flags":{"has_serious_ae":true,"has_fatal_ae":false,"has_protocol_deviation":true,"n_protocol_deviations":4,"n_adverse_events":4,"n_concomitant_meds":4,"max_ae_severity":"SEVERE","screen_failure":false,"discontinued_early":false,"discontinuation_reason":null,"death":false,"exposure_days":56},"timeline":[{"dtc":"2024-01-16","dy":"-33","event":"VISIT: SCREENING","domain":"SV","category":"visit"},{"dtc":"2024-01-19","dy":"-30","event":"INFORMED CONSENT OBTAINED","domain":"DS","category":"milestone"},{"dtc":"2024-02-18","dy":"1","event":"RANDOMIZED","domain":"DS","category":"milestone"},{"dtc":"2024-02-18","dy":"1","event":"FIRST DOSE: GB001","domain":"EX","category":"exposure"},{"dtc":"2024-02-18","dy":"1","event":"VISIT: BASELINE","domain":"SV","category":"visit"},{"dtc":"2024-03-02","dy":"14","event":"VISIT: WEEK 2","domain":"SV","category":"visit"},{"dtc":"2024-03-10","dy":"22","event":"AE: Cough (SEVERE) [SERIOUS]","domain":"AE","category":"adverse_event"},{"dtc":"2024-03-10","dy":"22","event":"CM START: DEXTROMETHORPHAN","domain":"CM","category":"concomitant_med"},{"dtc":"2024-03-12","dy":"24","event":"DEVIATION: MISSED DOSE","domain":"DV","category":"deviation"},{"dtc":"2024-03-18","dy":"30","event":"VISIT: WEEK 4","domain":"SV","category":"visit"},{"dtc":"2024-03-20","dy":"32","event":"AE: Headache (MODERATE)","domain":"AE","category":"adverse_event"},{"dtc":"2024-03-29","dy":"41","event":"DEVIATION: MISSED DOSE","domain":"DV","category":"deviation"},{"dtc":"2024-04-01","dy":"44","event":"DEVIATION: MISSED DOSE","domain":"DV","category":"deviation"},{"dtc":"2024-04-04","dy":"47","event":"AE: Upper respiratory tract infection (MODERATE)","domain":"AE","category":"adverse_event"},{"dtc":"2024-04-04","dy":"47","event":"CM START: AMOXICILLIN","domain":"CM","category":"concomitant_med"},{"dtc":"2024-04-11","dy":"54","event":"DEVIATION: VISIT OCCURRED OUTSIDE VISIT WINDOW","domain":"DV","category":"deviation"},{"dtc":"2024-04-11","dy":"54","event":"VISIT: WEEK 8","domain":"SV","category":"visit"},{"dtc":"2024-05-01","dy":"74","event":"AE: Nasopharyngitis (MODERATE)","domain":"AE","category":"adverse_event"},{"dtc":"2024-05-01","dy":"74","event":"CM START: PARACETAMOL","domain":"CM","category":"concomitant_med"},{"dtc":"2024-05-12","dy":"85","event":"VISIT: WEEK 12","domain":"SV","category":"visit"},{"dtc":"2024-06-13","dy":"117","event":"VISIT: FOLLOW-UP","domain":"SV","category":"visit"},{"dtc":"2024-06-24","dy":"128","event":"CM START: OMEPRAZOLE","domain":"CM","category":"concomitant_med"},{"dtc":"2024-07-06","dy":"140","event":"COMPLETED","domain":"DS","category":"milestone"}],"section_1_demographics":{"usubjid":"GB001-ASTHMA-201-SITE003-0294","subjid":"0294","siteid":"SITE003","age":"37","ageu":"YEARS","sex":"F","race":"BLACK OR AFRICAN AMERICAN","ethnicity":"NOT HISPANIC OR LATINO","country":"USA","arm":"GB001 40mg QD","armcd":"GB40","actarm":"GB001 40mg QD","actarmcd":"GB40","randomization_date":null,"informed_consent_date":"2024-01-19","reference_start_date":"2024-02-18","reference_end_date":"2024-07-06","screen_failure":false,"death_flag":null,"death_date":null,"subject_characteristics":[{"testcd":"ALCUSE","test":"Alcohol Use","orres":"NON-DRINKER","stresc":"NON-DRINKER","visit":null,"dtc":"2024-01-19"},{"testcd":"BMI","test":"Body Mass Index","orres":"21.3","stresc":"21.3","visit":null,"dtc":"2024-01-19"},{"testcd":"DURDIS","test":"Duration of Disease","orres":"121 months","stresc":"121","visit":null,"dtc":"2024-01-19"},{"testcd":"TOBPKYR","test":"Tobacco Pack-Years","orres":"10","stresc":"10","visit":null,"dtc":"2024-01-19"},{"testcd":"TOBUSE","test":"Tobacco Use","orres":"CURRENT SMOKER","stresc":"CURRENT SMOKER","visit":null,"dtc":"2024-01-19"}]},"section_2_medical_history":{"items":[{"seq":"1","term":"ASTHMA","decod":"ASTHMA","cat":"RESPIRATORY","scat":null,"presp":null,"occur":null,"status":null,"onset_dtc":"2014-01-21","end_dtc":null,"visit":null},{"seq":"2","term":"DEPRESSION","decod":"DEPRESSION","cat":"PSYCHIATRIC","scat":null,"presp":null,"occur":null,"status":null,"onset_dtc":"2020-01-20","end_dtc":"2022-02-11","visit":null},{"seq":"3","term":"GASTROESOPHAGEAL REFLUX DISEASE","decod":"GASTROESOPHAGEAL REFLUX DISEASE","cat":"GASTROINTESTINAL","scat":null,"presp":null,"occur":null,"status":null,"onset_dtc":"2021-01-19","end_dtc":"2022-12-02","visit":null},{"seq":"4","term":"HYPERLIPIDEMIA","decod":"HYPERLIPIDEMIA","cat":"METABOLIC","scat":null,"presp":null,"occur":null,"status":null,"onset_dtc":"2017-01-20","end_dtc":"2020-03-01","visit":null},{"seq":"5","term":"HYPERTENSION","decod":"HYPERTENSION","cat":"CARDIOVASCULAR","scat":null,"presp":null,"occur":null,"status":null,"onset_dtc":"2020-01-20","end_dtc":null,"visit":null}]},"section_3_inclusion_exclusion":{"criteria":[]},"section_4_trial_participation":{"visits":[{"visitnum":"1.0","visit":"SCREENING","start_dtc":"2024-01-16","end_dtc":"2024-01-16","updes":null},{"visitnum":"2.0","visit":"BASELINE","start_dtc":"2024-02-18","end_dtc":"2024-02-18","updes":null},{"visitnum":"3.0","visit":"WEEK 2","start_dtc":"2024-03-02","end_dtc":"2024-03-02","updes":null},{"visitnum":"4.0","visit":"WEEK 4","start_dtc":"2024-03-18","end_dtc":"2024-03-18","updes":null},{"visitnum":"5.0","visit":"WEEK 8","start_dtc":"2024-04-11","end_dtc":"2024-04-11","updes":null},{"visitnum":"6.0","visit":"WEEK 12","start_dtc":"2024-05-12","end_dtc":"2024-05-12","updes":null},{"visitnum":"7.0","visit":"FOLLOW-UP","start_dtc":"2024-06-13","end_dtc":"2024-06-13","updes":null}],"epochs":[{"seq":"1","etcd":"SCRN","element":"Screening","start_dtc":"2024-01-21","end_dtc":"2024-02-18","updes":null},{"seq":"2","etcd":"TRT","element":"Treatment","start_dtc":"2024-02-18","end_dtc":"2024-05-12","updes":null},{"seq":"3","etcd":"FU","element":"Follow-up","start_dtc":"2024-05-12","end_dtc":"2024-06-08","updes":null}],"visit_count":7},"section_5_concomitant_medications":{"medications":[{"seq":"1","trt":"DEXTROMETHORPHAN","decod":"DEXTROMETHORPHAN","cat":"CONCOMITANT","dose":"30.0","doseu":null,"dosef":"QID","route":"ORAL","indication":"COUGH","start_dtc":"2024-03-10","end_dtc":"2024-03-23","ongoing":null,"visit":null},{"seq":"2","trt":"AMOXICILLIN","decod":"AMOXICILLIN","cat":"CONCOMITANT","dose":"500","doseu":null,"dosef":"TID","route":"ORAL","indication":"UPPER RESPIRATORY TRACT INFECTION","start_dtc":"2024-04-04","end_dtc":"2024-04-15","ongoing":null,"visit":null},{"seq":"3","trt":"PARACETAMOL","decod":"PARACETAMOL","cat":"CONCOMITANT","dose":"500","doseu":null,"dosef":"PRN","route":"ORAL","indication":"NASOPHARYNGITIS","start_dtc":"2024-05-01","end_dtc":"2024-05-10","ongoing":null,"visit":null},{"seq":"4","trt":"OMEPRAZOLE","decod":"OMEPRAZOLE","cat":"CONCOMITANT","dose":null,"doseu":null,"dosef":"QD","route":"ORAL","indication":null,"start_dtc":"2024-06-24","end_dtc":"2024-07-06","ongoing":null,"visit":null}]},"section_6_exposure":{"exposure_as_administered":[{"seq":"1","trt":"GB001","dose":"40.0","doseu":null,"dosef":"QD","route":"ORAL","lot":null,"start_dtc":"2024-02-18","end_dtc":"2024-04-14","start_dy":"1","end_dy":"57","epoch":"TREATMENT","visit":null}],"exposure_as_collected":[{"seq":"1","trt":"GB001","dose":"40.0","doseu":null,"dosef":"QD","route":"ORAL","start_dtc":"2024-02-18","end_dtc":"2024-02-18","visit":"BASELINE"},{"seq":"2","trt":"GB001","dose":"40.0","doseu":null,"dosef":"QD","route":"ORAL","start_dtc":"2024-02-19","end_dtc":"2024-02-19","visit":"BASELINE"},{"seq":"3","trt":"GB001","dose":"40.0","doseu":null,"dosef":"QD","route":"ORAL","start_dtc":"2024-02-20","end_dtc":"2024-02-20","visit":"BASELINE"},{"seq":"4","trt":"GB001","dose":"40.0","doseu":null,"dosef":"QD","route":"ORAL","start_dtc":"2024-02-21","end_dtc":"2024-02-21","visit":"BASELINE"},{"seq":"5","trt":"GB001","dose":"40.0","doseu":null,"dosef":"QD","route":"ORAL","start_dtc":"2024-02-22","end_dtc":"2024-02-22","visit":null},{"seq":"6","trt":"GB001","dose":"40.0","doseu":null,"dosef":"QD","route":"ORAL","start_dtc":"2024-02-23","end_dtc":"2024-02-23","visit":null},{"seq":"7","trt":"GB001","dose":"40.0","doseu":null,"dosef":"QD","route":"ORAL","start_dtc":"2024-02-24","end_dtc":"2024-02-24","visit":null},{"seq":"8","trt":"GB001","dose":"40.0","doseu":null,"dosef":"QD","route":"ORAL","start_dtc":"2024-02-25","end_dtc":"2024-02-25","visit":null},{"seq":"9","trt":"GB001","dose":"40.0","doseu":null,"dosef":"QD","route":"ORAL","start_dtc":"2024-02-26","end_dtc":"2024-02-26","visit":null},{"seq":"10","trt":"GB001","dose":"40.0","doseu":null,"dosef":"QD","route":"ORAL","start_dtc":"2024-02-27","end_dtc":"2024-02-27","visit":null},{"seq":"11","trt":"GB001","dose":"40.0","doseu":null,"dosef":"QD","route":"ORAL","start_dtc":"2024-02-28","end_dtc":"2024-02-28","visit":null},{"seq":"12","trt":"GB001","dose":"40.0","doseu":null,"dosef":"QD","route":"ORAL","start_dtc":"2024-02-29","end_dtc":"2024-02-29","visit":"WEEK 2"},{"seq":"13","trt":"GB001","dose":"40.0","doseu":null,"dosef":"QD","route":"ORAL","start_dtc":"2024-03-01","end_dtc":"2024-03-01","visit":"WEEK 2"},{"seq":"14","trt":"GB001","dose":"40.0","doseu":null,"dosef":"QD","route":"ORAL","start_dtc":"2024-03-02","end_dtc":"2024-03-02","visit":"WEEK 2"},{"seq":"15","trt":"GB001","dose":"40.0","doseu":null,"dosef":"QD","route":"ORAL","start_dtc":"2024-03-03","end_dtc":"2024-03-03","visit":"WEEK 2"},{"seq":"16","trt":"GB001","dose":"40.0","doseu":null,"dosef":"QD","route":"ORAL","start_dtc":"2024-03-04","end_dtc":"2024-03-04","visit":"WEEK 2"},{"seq":"17","trt":"GB001","dose":"40.0","doseu":null,"dosef":"QD","route":"ORAL","start_dtc":"2024-03-05","end_dtc":"2024-03-05","visit":"WEEK 2"},{"seq":"18","trt":"GB001","dose":"40.0","doseu":null,"dosef":"QD","route":"ORAL","start_dtc":"2024-03-06","end_dtc":"2024-03-06","visit":"WEEK 2"},{"seq":"19","trt":"GB001","dose":"40.0","doseu":null,"dosef":"QD","route":"ORAL","start_dtc":"2024-03-07","end_dtc":"2024-03-07","visit":null},{"seq":"20","trt":"GB001","dose":"40.0","doseu":null,"dosef":"QD","route":"ORAL","start_dtc":"2024-03-08","end_dtc":"2024-03-08","visit":null},{"seq":"21","trt":"GB001","dose":"40.0","doseu":null,"dosef":"QD","route":"ORAL","start_dtc":"2024-03-09","end_dtc":"2024-03-09","visit":null},{"seq":"22","trt":"GB001","dose":"40.0","doseu":null,"dosef":"QD","route":"ORAL","start_dtc":"2024-03-10","end_dtc":"2024-03-10","visit":null},{"seq":"23","trt":"GB001","dose":"40.0","doseu":null,"dosef":"QD","route":"ORAL","start_dtc":"2024-03-11","end_dtc":"2024-03-11","visit":null},{"seq":"24","trt":"GB001","dose":null,"doseu":null,"dosef":"QD","route":"ORAL","start_dtc":"2024-03-12","end_dtc":"2024-03-12","visit":null},{"seq":"25","trt":"GB001","dose":"40.0","doseu":null,"dosef":"QD","route":"ORAL","start_dtc":"2024-03-13","end_dtc":"2024-03-13","visit":null},{"seq":"26","trt":"GB001","dose":"40.0","doseu":null,"dosef":"QD","route":"ORAL","start_dtc":"2024-03-14","end_dtc":"2024-03-14","visit":"WEEK 4"},{"seq":"27","trt":"GB001","dose":"40.0","doseu":null,"dosef":"QD","route":"ORAL","start_dtc":"2024-03-15","end_dtc":"2024-03-15","visit":"WEEK 4"},{"seq":"28","trt":"GB001","dose":"40.0","doseu":null,"dosef":"QD","route":"ORAL","start_dtc":"2024-03-16","end_dtc":"2024-03-16","visit":"WEEK 4"},{"seq":"29","trt":"GB001","dose":"40.0","doseu":null,"dosef":"QD","route":"ORAL","start_dtc":"2024-03-17","end_dtc":"2024-03-17","visit":"WEEK 4"},{"seq":"30","trt":"GB001","dose":"40.0","doseu":null,"dosef":"QD","route":"ORAL","start_dtc":"2024-03-18","end_dtc":"2024-03-18","visit":"WEEK 4"},{"seq":"31","trt":"GB001","dose":"40.0","doseu":null,"dosef":"QD","route":"ORAL","start_dtc":"2024-03-19","end_dtc":"2024-03-19","visit":"WEEK 4"},{"seq":"32","trt":"GB001","dose":"40.0","doseu":null,"dosef":"QD","route":"ORAL","start_dtc":"2024-03-20","end_dtc":"2024-03-20","visit":"WEEK 4"},{"seq":"33","trt":"GB001","dose":"40.0","doseu":null,"dosef":"QD","route":"ORAL","start_dtc":"2024-03-21","end_dtc":"2024-03-21","visit":null},{"seq":"34","trt":"GB001","dose":"40.0","doseu":null,"dosef":"QD","route":"ORAL","start_dtc":"2024-03-22","end_dtc":"2024-03-22","visit":null},{"seq":"35","trt":"GB001","dose":"40.0","doseu":null,"dosef":"QD","route":"ORAL","start_dtc":"2024-03-23","end_dtc":"2024-03-23","visit":null},{"seq":"36","trt":"GB001","dose":"40.0","doseu":null,"dosef":"QD","route":"ORAL","start_dtc":"2024-03-24","end_dtc":"2024-03-24","visit":null},{"seq":"37","trt":"GB001","dose":"40.0","doseu":null,"dosef":"QD","route":"ORAL","start_dtc":"2024-03-25","end_dtc":"2024-03-25","visit":null},{"seq":"38","trt":"GB001","dose":"40.0","doseu":null,"dosef":"QD","route":"ORAL","start_dtc":"2024-03-26","end_dtc":"2024-03-26","visit":null},{"seq":"39","trt":"GB001","dose":"40.0","doseu":null,"dosef":"QD","route":"ORAL","start_dtc":"2024-03-27","end_dtc":"2024-03-27","visit":null},{"seq":"40","trt":"GB001","dose":"40.0","doseu":null,"dosef":"QD","route":"ORAL","start_dtc":"2024-03-28","end_dtc":"2024-03-28","visit":null},{"seq":"41","trt":"GB001","dose":null,"doseu":null,"dosef":"QD","route":"ORAL","start_dtc":"2024-03-29","end_dtc":"2024-03-29","visit":null},{"seq":"42","trt":"GB001","dose":"40.0","doseu":null,"dosef":"QD","route":"ORAL","start_dtc":"2024-03-30","end_dtc":"2024-03-30","visit":null},{"seq":"43","trt":"GB001","dose":"40.0","doseu":null,"dosef":"QD","route":"ORAL","start_dtc":"2024-03-31","end_dtc":"2024-03-31","visit":null},{"seq":"44","trt":"GB001","dose":null,"doseu":null,"dosef":"QD","route":"ORAL","start_dtc":"2024-04-01","end_dtc":"2024-04-01","visit":null},{"seq":"45","trt":"GB001","dose":"40.0","doseu":null,"dosef":"QD","route":"ORAL","start_dtc":"2024-04-02","end_dtc":"2024-04-02","visit":null},{"seq":"46","trt":"GB001","dose":"40.0","doseu":null,"dosef":"QD","route":"ORAL","start_dtc":"2024-04-03","end_dtc":"2024-04-03","visit":null},{"seq":"47","trt":"GB001","dose":"40.0","doseu":null,"dosef":"QD","route":"ORAL","start_dtc":"2024-04-04","end_dtc":"2024-04-04","visit":null},{"seq":"48","trt":"GB001","dose":"40.0","doseu":null,"dosef":"QD","route":"ORAL","start_dtc":"2024-04-05","end_dtc":"2024-04-05","visit":null},{"seq":"49","trt":"GB001","dose":"40.0","doseu":null,"dosef":"QD","route":"ORAL","start_dtc":"2024-04-06","end_dtc":"2024-04-06","visit":null},{"seq":"50","trt":"GB001","dose":"40.0","doseu":null,"dosef":"QD","route":"ORAL","start_dtc":"2024-04-07","end_dtc":"2024-04-07","visit":null},{"seq":"51","trt":"GB001","dose":"40.0","doseu":null,"dosef":"QD","route":"ORAL","start_dtc":"2024-04-08","end_dtc":"2024-04-08","visit":null},{"seq":"52","trt":"GB001","dose":"40.0","doseu":null,"dosef":"QD","route":"ORAL","start_dtc":"2024-04-09","end_dtc":"2024-04-09","visit":null},{"seq":"53","trt":"GB001","dose":"40.0","doseu":null,"dosef":"QD","route":"ORAL","start_dtc":"2024-04-10","end_dtc":"2024-04-10","visit":null},{"seq":"54","trt":"GB001","dose":"40.0","doseu":null,"dosef":"QD","route":"ORAL","start_dtc":"2024-04-11","end_dtc":"2024-04-11","visit":"WEEK 8"},{"seq":"55","trt":"GB001","dose":"40.0","doseu":null,"dosef":"QD","route":"ORAL","start_dtc":"2024-04-12","end_dtc":"2024-04-12","visit":"WEEK 8"},{"seq":"56","trt":"GB001","dose":"40.0","doseu":null,"dosef":"QD","route":"ORAL","start_dtc":"2024-04-13","end_dtc":"2024-04-13","visit":"WEEK 8"},{"seq":"57","trt":"GB001","dose":"40.0","doseu":null,"dosef":"QD","route":"ORAL","start_dtc":"2024-04-14","end_dtc":"2024-04-14","visit":"WEEK 8"}]},"section_7_adverse_events":{"summary":{"total_aes":4,"serious_aes":1,"fatal_aes":0,"by_severity":{"SEVERE":1,"MODERATE":3},"by_soc":{"Respiratory, thoracic and mediastinal disorders":1,"Nervous system disorders":1,"Infections and infestations":2}},"events":[{"seq":"1","term":"COUGH","decod":"Cough","llt":"Cough","hlt":"Coughing and associated symptoms","hlgt":"Respiratory tract signs and symptoms","soc":"Respiratory, thoracic and mediastinal disorders","bodsys":"Respiratory, thoracic and mediastinal disorders","severity":"SEVERE","serious":"Y","causality":"NOT RELATED","action_taken":"DOSE NOT CHANGED","outcome":"RECOVERED/RESOLVED","fatal":"N","hospitalization":"Y","life_threatening":"N","onset_dtc":"2024-03-10","end_dtc":"2024-03-16","onset_dy":"22","end_dy":"28","duration":null,"epoch":"TREATMENT","visit":null,"supplemental":{"AETRTEM":"Y"}},{"seq":"2","term":"HEADACHE","decod":"Headache","llt":"Headache","hlt":"Headaches NEC","hlgt":"Headaches","soc":"Nervous system disorders","bodsys":"Nervous system disorders","severity":"MODERATE","serious":"N","causality":"NOT RELATED","action_taken":"DOSE NOT CHANGED","outcome":"RECOVERING/RESOLVING","fatal":"N","hospitalization":"N","life_threatening":"N","onset_dtc":"2024-03-20","end_dtc":"2024-03-24","onset_dy":"32","end_dy":"36","duration":null,"epoch":"TREATMENT","visit":null,"supplemental":{"AETRTEM":"Y"}},{"seq":"3","term":"UPPER RESPIRATORY TRACT INFECTION","decod":"Upper respiratory tract infection","llt":"Upper respiratory tract infection","hlt":"Upper respiratory tract infections","hlgt":"Upper respiratory tract infections","soc":"Infections and infestations","bodsys":"Infections and infestations","severity":"MODERATE","serious":"N","causality":"UNLIKELY RELATED","action_taken":"DOSE NOT CHANGED","outcome":"RECOVERED/RESOLVED","fatal":"N","hospitalization":"N","life_threatening":"N","onset_dtc":"2024-04-04","end_dtc":"2024-04-11","onset_dy":"47","end_dy":"54","duration":null,"epoch":"TREATMENT","visit":null,"supplemental":{"AETRTEM":"Y"}},{"seq":"4","term":"NASOPHARYNGITIS","decod":"Nasopharyngitis","llt":"Nasopharyngitis","hlt":"Upper respiratory tract infections","hlgt":"Upper respiratory tract infections","soc":"Infections and infestations","bodsys":"Infections and infestations","severity":"MODERATE","serious":"N","causality":"NOT RELATED","action_taken":"DOSE NOT CHANGED","outcome":"RECOVERED/RESOLVED","fatal":"N","hospitalization":"N","life_threatening":"N","onset_dtc":"2024-05-01","end_dtc":"2024-05-28","onset_dy":"74","end_dy":"101","duration":null,"epoch":"TREATMENT","visit":null,"supplemental":{"AETRTEM":"Y"}}]},"section_8_laboratory_results":{"summary":{"total_records":42,"abnormal_count":5,"abnormal_pct":11.9},"shift_summary":[{"testcd":"ALT","baseline_value":21.97,"baseline_nrind":"NORMAL","worst_post_baseline_value":24.5,"worst_post_baseline_nrind":"NORMAL","worst_visit":"WEEK 4"},{"testcd":"AST","baseline_value":24.5,"baseline_nrind":"NORMAL","worst_post_baseline_value":27.42,"worst_post_baseline_nrind":"NORMAL","worst_visit":"WEEK 12"},{"testcd":"CREAT","baseline_value":78.05,"baseline_nrind":"NORMAL","worst_post_baseline_value":76.43,"worst_post_baseline_nrind":"NORMAL","worst_visit":"WEEK 12"},{"testcd":"GLUC","baseline_value":5.61,"baseline_nrind":"HIGH","worst_post_baseline_value":5.69,"worst_post_baseline_nrind":"HIGH","worst_visit":"WEEK 8"},{"testcd":"HGB","baseline_value":122.45,"baseline_nrind":"NORMAL","worst_post_baseline_value":120.13,"worst_post_baseline_nrind":"NORMAL","worst_visit":"WEEK 8"},{"testcd":"PLAT","baseline_value":287.02,"baseline_nrind":"NORMAL","worst_post_baseline_value":314.85,"worst_post_baseline_nrind":"NORMAL","worst_visit":"WEEK 8"},{"testcd":"WBC","baseline_value":5.04,"baseline_nrind":"NORMAL","worst_post_baseline_value":6.33,"worst_post_baseline_nrind":"NORMAL","worst_visit":"WEEK 8"}],"results":[{"seq":"1","testcd":"ALT","test":"Alanine Aminotransferase","cat":"CHEMISTRY","orres":"21.97","orresu":"U/L","stresc":"21.97","stresn":"21.97","stresu":"U/L","stnrlo":"7","stnrhi":"56","nrind":"NORMAL","fast":null,"dtc":"2024-01-16","dy":"-33","visit":"SCREENING","visitnum":"1.0","epoch":"SCREENING","spec":null,"method":null},{"seq":"2","testcd":"AST","test":"Aspartate Aminotransferase","cat":"CHEMISTRY","orres":"24.5","orresu":"U/L","stresc":"24.5","stresn":"24.5","stresu":"U/L","stnrlo":"10","stnrhi":"40","nrind":"NORMAL","fast":null,"dtc":"2024-01-16","dy":"-33","visit":"SCREENING","visitnum":"1.0","epoch":"SCREENING","spec":null,"method":null},{"seq":"3","testcd":"CREAT","test":"Creatinine","cat":"CHEMISTRY","orres":"78.05","orresu":"umol/L","stresc":"78.05","stresn":"78.05","stresu":"umol/L","stnrlo":"44","stnrhi":"80","nrind":"NORMAL","fast":null,"dtc":"2024-01-16","dy":"-33","visit":"SCREENING","visitnum":"1.0","epoch":"SCREENING","spec":null,"method":null},{"seq":"4","testcd":"GLUC","test":"Glucose","cat":"CHEMISTRY","orres":"5.61","orresu":"mmol/L","stresc":"5.61","stresn":"5.61","stresu":"mmol/L","stnrlo":"3.9","stnrhi":"5.6","nrind":"HIGH","fast":null,"dtc":"2024-01-16","dy":"-33","visit":"SCREENING","visitnum":"1.0","epoch":"SCREENING","spec":null,"method":null},{"seq":"5","testcd":"HGB","test":"Hemoglobin","cat":"HEMATOLOGY","orres":"122.45","orresu":"g/L","stresc":"122.45","stresn":"122.45","stresu":"g/L","stnrlo":"120","stnrhi":"155","nrind":"NORMAL","fast":null,"dtc":"2024-01-16","dy":"-33","visit":"SCREENING","visitnum":"1.0","epoch":"SCREENING","spec":null,"method":null},{"seq":"6","testcd":"PLAT","test":"Platelets","cat":"HEMATOLOGY","orres":"287.02","orresu":"10^9/L","stresc":"287.02","stresn":"287.02","stresu":"10^9/L","stnrlo":"150","stnrhi":"400","nrind":"NORMAL","fast":null,"dtc":"2024-01-16","dy":"-33","visit":"SCREENING","visitnum":"1.0","epoch":"SCREENING","spec":null,"method":null},{"seq":"7","testcd":"WBC","test":"Leukocytes","cat":"HEMATOLOGY","orres":"5.04","orresu":"10^9/L","stresc":"5.04","stresn":"5.04","stresu":"10^9/L","stnrlo":"4.0","stnrhi":"11.0","nrind":"NORMAL","fast":null,"dtc":"2024-01-16","dy":"-33","visit":"SCREENING","visitnum":"1.0","epoch":"SCREENING","spec":null,"method":null},{"seq":"8","testcd":"ALT","test":"Alanine Aminotransferase","cat":"CHEMISTRY","orres":"20.37","orresu":"U/L","stresc":"20.37","stresn":"20.37","stresu":"U/L","stnrlo":"7","stnrhi":"56","nrind":"NORMAL","fast":null,"dtc":"2024-02-18","dy":"1","visit":"BASELINE","visitnum":"2.0","epoch":"TREATMENT","spec":null,"method":null},{"seq":"9","testcd":"AST","test":"Aspartate Aminotransferase","cat":"CHEMISTRY","orres":"25.78","orresu":"U/L","stresc":"25.78","stresn":"25.78","stresu":"U/L","stnrlo":"10","stnrhi":"40","nrind":"NORMAL","fast":null,"dtc":"2024-02-18","dy":"1","visit":"BASELINE","visitnum":"2.0","epoch":"TREATMENT","spec":null,"method":null},{"seq":"10","testcd":"CREAT","test":"Creatinine","cat":"CHEMISTRY","orres":"76.35","orresu":"umol/L","stresc":"76.35","stresn":"76.35","stresu":"umol/L","stnrlo":"44","stnrhi":"80","nrind":"NORMAL","fast":null,"dtc":"2024-02-18","dy":"1","visit":"BASELINE","visitnum":"2.0","epoch":"TREATMENT","spec":null,"method":null},{"seq":"11","testcd":"GLUC","test":"Glucose","cat":"CHEMISTRY","orres":"5.58","orresu":"mmol/L","stresc":"5.58","stresn":"5.58","stresu":"mmol/L","stnrlo":"3.9","stnrhi":"5.6","nrind":"NORMAL","fast":null,"dtc":"2024-02-18","dy":"1","visit":"BASELINE","visitnum":"2.0","epoch":"TREATMENT","spec":null,"method":null},{"seq":"12","testcd":"HGB","test":"Hemoglobin","cat":"HEMATOLOGY","orres":"121.61","orresu":"g/L","stresc":"121.61","stresn":"121.61","stresu":"g/L","stnrlo":"120","stnrhi":"155","nrind":"NORMAL","fast":null,"dtc":"2024-02-18","dy":"1","visit":"BASELINE","visitnum":"2.0","epoch":"TREATMENT","spec":null,"method":null},{"seq":"13","testcd":"PLAT","test":"Platelets","cat":"HEMATOLOGY","orres":"299.92","orresu":"10^9/L","stresc":"299.92","stresn":"299.92","stresu":"10^9/L","stnrlo":"150","stnrhi":"400","nrind":"NORMAL","fast":null,"dtc":"2024-02-18","dy":"1","visit":"BASELINE","visitnum":"2.0","epoch":"TREATMENT","spec":null,"method":null},{"seq":"14","testcd":"WBC","test":"Leukocytes","cat":"HEMATOLOGY","orres":"5.47","orresu":"10^9/L","stresc":"5.47","stresn":"5.47","stresu":"10^9/L","stnrlo":"4.0","stnrhi":"11.0","nrind":"NORMAL","fast":null,"dtc":"2024-02-18","dy":"1","visit":"BASELINE","visitnum":"2.0","epoch":"TREATMENT","spec":null,"method":null},{"seq":"15","testcd":"ALT","test":"Alanine Aminotransferase","cat":"CHEMISTRY","orres":"22.84","orresu":"U/L","stresc":"22.84","stresn":"22.84","stresu":"U/L","stnrlo":"7","stnrhi":"56","nrind":"NORMAL","fast":null,"dtc":"2024-03-02","dy":"14","visit":"WEEK 2","visitnum":"3.0","epoch":"TREATMENT","spec":null,"method":null},{"seq":"16","testcd":"AST","test":"Aspartate Aminotransferase","cat":"CHEMISTRY","orres":"25.73","orresu":"U/L","stresc":"25.73","stresn":"25.73","stresu":"U/L","stnrlo":"10","stnrhi":"40","nrind":"NORMAL","fast":null,"dtc":"2024-03-02","dy":"14","visit":"WEEK 2","visitnum":"3.0","epoch":"TREATMENT","spec":null,"method":null},{"seq":"17","testcd":"CREAT","test":"Creatinine","cat":"CHEMISTRY","orres":"72.54","orresu":"umol/L","stresc":"72.54","stresn":"72.54","stresu":"umol/L","stnrlo":"44","stnrhi":"80","nrind":"NORMAL","fast":null,"dtc":"2024-03-02","dy":"14","visit":"WEEK 2","visitnum":"3.0","epoch":"TREATMENT","spec":null,"method":null},{"seq":"18","testcd":"GLUC","test":"Glucose","cat":"CHEMISTRY","orres":"5.66","orresu":"mmol/L","stresc":"5.66","stresn":"5.66","stresu":"mmol/L","stnrlo":"3.9","stnrhi":"5.6","nrind":"HIGH","fast":null,"dtc":"2024-03-02","dy":"14","visit":"WEEK 2","visitnum":"3.0","epoch":"TREATMENT","spec":null,"method":null},{"seq":"19","testcd":"HGB","test":"Hemoglobin","cat":"HEMATOLOGY","orres":"120.55","orresu":"g/L","stresc":"120.55","stresn":"120.55","stresu":"g/L","stnrlo":"120","stnrhi":"155","nrind":"NORMAL","fast":null,"dtc":"2024-03-02","dy":"14","visit":"WEEK 2","visitnum":"3.0","epoch":"TREATMENT","spec":null,"method":null},{"seq":"20","testcd":"PLAT","test":"Platelets","cat":"HEMATOLOGY","orres":"308.55","orresu":"10^9/L","stresc":"308.55","stresn":"308.55","stresu":"10^9/L","stnrlo":"150","stnrhi":"400","nrind":"NORMAL","fast":null,"dtc":"2024-03-02","dy":"14","visit":"WEEK 2","visitnum":"3.0","epoch":"TREATMENT","spec":null,"method":null},{"seq":"21","testcd":"WBC","test":"Leukocytes","cat":"HEMATOLOGY","orres":"5.4","orresu":"10^9/L","stresc":"5.4","stresn":"5.4","stresu":"10^9/L","stnrlo":"4.0","stnrhi":"11.0","nrind":"NORMAL","fast":null,"dtc":"2024-03-02","dy":"14","visit":"WEEK 2","visitnum":"3.0","epoch":"TREATMENT","spec":null,"method":null},{"seq":"22","testcd":"ALT","test":"Alanine Aminotransferase","cat":"CHEMISTRY","orres":"24.5","orresu":"U/L","stresc":"24.5","stresn":"24.5","stresu":"U/L","stnrlo":"7","stnrhi":"56","nrind":"NORMAL","fast":null,"dtc":"2024-03-18","dy":"30","visit":"WEEK 4","visitnum":"4.0","epoch":"TREATMENT","spec":null,"method":null},{"seq":"23","testcd":"AST","test":"Aspartate Aminotransferase","cat":"CHEMISTRY","orres":"24.63","orresu":"U/L","stresc":"24.63","stresn":"24.63","stresu":"U/L","stnrlo":"10","stnrhi":"40","nrind":"NORMAL","fast":null,"dtc":"2024-03-18","dy":"30","visit":"WEEK 4","visitnum":"4.0","epoch":"TREATMENT","spec":null,"method":null},{"seq":"24","testcd":"CREAT","test":"Creatinine","cat":"CHEMISTRY","orres":null,"orresu":null,"stresc":null,"stresn":null,"stresu":null,"stnrlo":null,"stnrhi":null,"nrind":null,"fast":null,"dtc":"2024-03-18","dy":"30","visit":"WEEK 4","visitnum":"4.0","epoch":"TREATMENT","spec":null,"method":null},{"seq":"25","testcd":"GLUC","test":"Glucose","cat":"CHEMISTRY","orres":"5.64","orresu":"mmol/L","stresc":"5.64","stresn":"5.64","stresu":"mmol/L","stnrlo":"3.9","stnrhi":"5.6","nrind":"HIGH","fast":null,"dtc":"2024-03-18","dy":"30","visit":"WEEK 4","visitnum":"4.0","epoch":"TREATMENT","spec":null,"method":null},{"seq":"26","testcd":"HGB","test":"Hemoglobin","cat":"HEMATOLOGY","orres":"120.7","orresu":"g/L","stresc":"120.7","stresn":"120.7","stresu":"g/L","stnrlo":"120","stnrhi":"155","nrind":"NORMAL","fast":null,"dtc":"2024-03-18","dy":"30","visit":"WEEK 4","visitnum":"4.0","epoch":"TREATMENT","spec":null,"method":null},{"seq":"27","testcd":"PLAT","test":"Platelets","cat":"HEMATOLOGY","orres":"306.56","orresu":"10^9/L","stresc":"306.56","stresn":"306.56","stresu":"10^9/L","stnrlo":"150","stnrhi":"400","nrind":"NORMAL","fast":null,"dtc":"2024-03-18","dy":"30","visit":"WEEK 4","visitnum":"4.0","epoch":"TREATMENT","spec":null,"method":null},{"seq":"28","testcd":"WBC","test":"Leukocytes","cat":"HEMATOLOGY","orres":"5.86","orresu":"10^9/L","stresc":"5.86","stresn":"5.86","stresu":"10^9/L","stnrlo":"4.0","stnrhi":"11.0","nrind":"NORMAL","fast":null,"dtc":"2024-03-18","dy":"30","visit":"WEEK 4","visitnum":"4.0","epoch":"TREATMENT","spec":null,"method":null},{"seq":"29","testcd":"ALT","test":"Alanine Aminotransferase","cat":"CHEMISTRY","orres":"23.71","orresu":"U/L","stresc":"23.71","stresn":"23.71","stresu":"U/L","stnrlo":"7","stnrhi":"56","nrind":"NORMAL","fast":null,"dtc":"2024-04-11","dy":"54","visit":"WEEK 8","visitnum":"5.0","epoch":"TREATMENT","spec":null,"method":null},{"seq":"30","testcd":"AST","test":"Aspartate Aminotransferase","cat":"CHEMISTRY","orres":"26.48","orresu":"U/L","stresc":"26.48","stresn":"26.48","stresu":"U/L","stnrlo":"10","stnrhi":"40","nrind":"NORMAL","fast":null,"dtc":"2024-04-11","dy":"54","visit":"WEEK 8","visitnum":"5.0","epoch":"TREATMENT","spec":null,"method":null},{"seq":"31","testcd":"CREAT","test":"Creatinine","cat":"CHEMISTRY","orres":"72.95","orresu":"umol/L","stresc":"72.95","stresn":"72.95","stresu":"umol/L","stnrlo":"44","stnrhi":"80","nrind":"NORMAL","fast":null,"dtc":"2024-04-11","dy":"54","visit":"WEEK 8","visitnum":"5.0","epoch":"TREATMENT","spec":null,"method":null},{"seq":"32","testcd":"GLUC","test":"Glucose","cat":"CHEMISTRY","orres":"5.69","orresu":"mmol/L","stresc":"5.69","stresn":"5.69","stresu":"mmol/L","stnrlo":"3.9","stnrhi":"5.6","nrind":"HIGH","fast":null,"dtc":"2024-04-11","dy":"54","visit":"WEEK 8","visitnum":"5.0","epoch":"TREATMENT","spec":null,"method":null},{"seq":"33","testcd":"HGB","test":"Hemoglobin","cat":"HEMATOLOGY","orres":"120.13","orresu":"g/L","stresc":"120.13","stresn":"120.13","stresu":"g/L","stnrlo":"120","stnrhi":"155","nrind":"NORMAL","fast":null,"dtc":"2024-04-11","dy":"54","visit":"WEEK 8","visitnum":"5.0","epoch":"TREATMENT","spec":null,"method":null},{"seq":"34","testcd":"PLAT","test":"Platelets","cat":"HEMATOLOGY","orres":"314.85","orresu":"10^9/L","stresc":"314.85","stresn":"314.85","stresu":"10^9/L","stnrlo":"150","stnrhi":"400","nrind":"NORMAL","fast":null,"dtc":"2024-04-11","dy":"54","visit":"WEEK 8","visitnum":"5.0","epoch":"TREATMENT","spec":null,"method":null},{"seq":"35","testcd":"WBC","test":"Leukocytes","cat":"HEMATOLOGY","orres":"6.33","orresu":"10^9/L","stresc":"6.33","stresn":"6.33","stresu":"10^9/L","stnrlo":"4.0","stnrhi":"11.0","nrind":"NORMAL","fast":null,"dtc":"2024-04-11","dy":"54","visit":"WEEK 8","visitnum":"5.0","epoch":"TREATMENT","spec":null,"method":null},{"seq":"36","testcd":"ALT","test":"Alanine Aminotransferase","cat":"CHEMISTRY","orres":"24.18","orresu":"U/L","stresc":"24.18","stresn":"24.18","stresu":"U/L","stnrlo":"7","stnrhi":"56","nrind":"NORMAL","fast":null,"dtc":"2024-05-12","dy":"85","visit":"WEEK 12","visitnum":"6.0","epoch":"TREATMENT","spec":null,"method":null},{"seq":"37","testcd":"AST","test":"Aspartate Aminotransferase","cat":"CHEMISTRY","orres":"27.42","orresu":"U/L","stresc":"27.42","stresn":"27.42","stresu":"U/L","stnrlo":"10","stnrhi":"40","nrind":"NORMAL","fast":null,"dtc":"2024-05-12","dy":"85","visit":"WEEK 12","visitnum":"6.0","epoch":"TREATMENT","spec":null,"method":null},{"seq":"38","testcd":"CREAT","test":"Creatinine","cat":"CHEMISTRY","orres":"76.43","orresu":"umol/L","stresc":"76.43","stresn":"76.43","stresu":"umol/L","stnrlo":"44","stnrhi":"80","nrind":"NORMAL","fast":null,"dtc":"2024-05-12","dy":"85","visit":"WEEK 12","visitnum":"6.0","epoch":"TREATMENT","spec":null,"method":null},{"seq":"39","testcd":"GLUC","test":"Glucose","cat":"CHEMISTRY","orres":"5.67","orresu":"mmol/L","stresc":"5.67","stresn":"5.67","stresu":"mmol/L","stnrlo":"3.9","stnrhi":"5.6","nrind":"HIGH","fast":null,"dtc":"2024-05-12","dy":"85","visit":"WEEK 12","visitnum":"6.0","epoch":"TREATMENT","spec":null,"method":null},{"seq":"40","testcd":"HGB","test":"Hemoglobin","cat":"HEMATOLOGY","orres":"121.85","orresu":"g/L","stresc":"121.85","stresn":"121.85","stresu":"g/L","stnrlo":"120","stnrhi":"155","nrind":"NORMAL","fast":null,"dtc":"2024-05-12","dy":"85","visit":"WEEK 12","visitnum":"6.0","epoch":"TREATMENT","spec":null,"method":null},{"seq":"41","testcd":"PLAT","test":"Platelets","cat":"HEMATOLOGY","orres":"312.7","orresu":"10^9/L","stresc":"312.7","stresn":"312.7","stresu":"10^9/L","stnrlo":"150","stnrhi":"400","nrind":"NORMAL","fast":null,"dtc":"2024-05-12","dy":"85","visit":"WEEK 12","visitnum":"6.0","epoch":"TREATMENT","spec":null,"method":null},{"seq":"42","testcd":"WBC","test":"Leukocytes","cat":"HEMATOLOGY","orres":"5.57","orresu":"10^9/L","stresc":"5.57","stresn":"5.57","stresu":"10^9/L","stnrlo":"4.0","stnrhi":"11.0","nrind":"NORMAL","fast":null,"dtc":"2024-05-12","dy":"85","visit":"WEEK 12","visitnum":"6.0","epoch":"TREATMENT","spec":null,"method":null}]},"section_9_vital_signs":{"summary":{"total_records":56},"trends":{"BMI":[{"visit":"SCREENING","visitnum":"1.0","dtc":"2024-01-16","value":"21.3","unit":"kg/m2"},{"visit":"BASELINE","visitnum":"2.0","dtc":"2024-02-18","value":"21.2","unit":"kg/m2"},{"visit":"WEEK 2","visitnum":"3.0","dtc":"2024-03-02","value":"21.9","unit":"kg/m2"},{"visit":"WEEK 4","visitnum":"4.0","dtc":"2024-03-18","value":"21.4","unit":"kg/m2"},{"visit":"WEEK 8","visitnum":"5.0","dtc":"2024-04-11","value":"21.0","unit":"kg/m2"},{"visit":"WEEK 12","visitnum":"6.0","dtc":"2024-05-12","value":"22.1","unit":"kg/m2"},{"visit":"FOLLOW-UP","visitnum":"7.0","dtc":"2024-06-13","value":"21.0","unit":"kg/m2"}],"DIABP":[{"visit":"SCREENING","visitnum":"1.0","dtc":"2024-01-16","value":"90.2","unit":"mmHg"},{"visit":"BASELINE","visitnum":"2.0","dtc":"2024-02-18","value":"90.5","unit":"mmHg"},{"visit":"WEEK 2","visitnum":"3.0","dtc":"2024-03-02","value":"90.3","unit":"mmHg"},{"visit":"WEEK 4","visitnum":"4.0","dtc":"2024-03-18","value":"91.3","unit":"mmHg"},{"visit":"WEEK 8","visitnum":"5.0","dtc":"2024-04-11","value":"90.6","unit":"mmHg"},{"visit":"WEEK 12","visitnum":"6.0","dtc":"2024-05-12","value":"88.3","unit":"mmHg"},{"visit":"FOLLOW-UP","visitnum":"7.0","dtc":"2024-06-13","value":"86.9","unit":"mmHg"}],"HEIGHT":[{"visit":"SCREENING","visitnum":"1.0","dtc":"2024-01-16","value":"161.1","unit":"cm"},{"visit":"BASELINE","visitnum":"2.0","dtc":"2024-02-18","value":"160.8","unit":"cm"},{"visit":"WEEK 2","visitnum":"3.0","dtc":"2024-03-02","value":"160.6","unit":"cm"},{"visit":"WEEK 4","visitnum":"4.0","dtc":"2024-03-18","value":"161.0","unit":"cm"},{"visit":"WEEK 8","visitnum":"5.0","dtc":"2024-04-11","value":"161.4","unit":"cm"},{"visit":"WEEK 12","visitnum":"6.0","dtc":"2024-05-12","value":"161.4","unit":"cm"},{"visit":"FOLLOW-UP","visitnum":"7.0","dtc":"2024-06-13","value":"161.8","unit":"cm"}],"PULSE":[{"visit":"SCREENING","visitnum":"1.0","dtc":"2024-01-16","value":"88.0","unit":"beats/min"},{"visit":"BASELINE","visitnum":"2.0","dtc":"2024-02-18","value":"86.1","unit":"beats/min"},{"visit":"WEEK 2","visitnum":"3.0","dtc":"2024-03-02","value":"88.8","unit":"beats/min"},{"visit":"WEEK 4","visitnum":"4.0","dtc":"2024-03-18","value":"90.2","unit":"beats/min"},{"visit":"WEEK 8","visitnum":"5.0","dtc":"2024-04-11","value":"87.4","unit":"beats/min"},{"visit":"WEEK 12","visitnum":"6.0","dtc":"2024-05-12","value":"88.1","unit":"beats/min"},{"visit":"FOLLOW-UP","visitnum":"7.0","dtc":"2024-06-13","value":"86.1","unit":"beats/min"}],"RESP":[{"visit":"SCREENING","visitnum":"1.0","dtc":"2024-01-16","value":"13.3","unit":"breaths/min"},{"visit":"BASELINE","visitnum":"2.0","dtc":"2024-02-18","value":"12.7","unit":"breaths/min"},{"visit":"WEEK 2","visitnum":"3.0","dtc":"2024-03-02","value":"14.1","unit":"breaths/min"},{"visit":"WEEK 4","visitnum":"4.0","dtc":"2024-03-18","value":"15.1","unit":"breaths/min"},{"visit":"WEEK 8","visitnum":"5.0","dtc":"2024-04-11","value":"16.2","unit":"breaths/min"},{"visit":"WEEK 12","visitnum":"6.0","dtc":"2024-05-12","value":"14.9","unit":"breaths/min"},{"visit":"FOLLOW-UP","visitnum":"7.0","dtc":"2024-06-13","value":"14.6","unit":"breaths/min"}],"SYSBP":[{"visit":"SCREENING","visitnum":"1.0","dtc":"2024-01-16","value":"129.9","unit":"mmHg"},{"visit":"BASELINE","visitnum":"2.0","dtc":"2024-02-18","value":"130.6","unit":"mmHg"},{"visit":"WEEK 2","visitnum":"3.0","dtc":"2024-03-02","value":"133.5","unit":"mmHg"},{"visit":"WEEK 4","visitnum":"4.0","dtc":"2024-03-18","value":"134.9","unit":"mmHg"},{"visit":"WEEK 8","visitnum":"5.0","dtc":"2024-04-11","value":"135.2","unit":"mmHg"},{"visit":"WEEK 12","visitnum":"6.0","dtc":"2024-05-12","value":"132.5","unit":"mmHg"},{"visit":"FOLLOW-UP","visitnum":"7.0","dtc":"2024-06-13","value":"128.1","unit":"mmHg"}],"TEMP":[{"visit":"SCREENING","visitnum":"1.0","dtc":"2024-01-16","value":"36.6","unit":"C"},{"visit":"BASELINE","visitnum":"2.0","dtc":"2024-02-18","value":"36.5","unit":"C"},{"visit":"WEEK 2","visitnum":"3.0","dtc":"2024-03-02","value":"36.4","unit":"C"},{"visit":"WEEK 4","visitnum":"4.0","dtc":"2024-03-18","value":"36.5","unit":"C"},{"visit":"WEEK 8","visitnum":"5.0","dtc":"2024-04-11","value":"36.3","unit":"C"},{"visit":"WEEK 12","visitnum":"6.0","dtc":"2024-05-12","value":"36.3","unit":"C"},{"visit":"FOLLOW-UP","visitnum":"7.0","dtc":"2024-06-13","value":"36.4","unit":"C"}],"WEIGHT":[{"visit":"SCREENING","visitnum":"1.0","dtc":"2024-01-16","value":"55.2","unit":"kg"},{"visit":"BASELINE","visitnum":"2.0","dtc":"2024-02-18","value":"54.7","unit":"kg"},{"visit":"WEEK 2","visitnum":"3.0","dtc":"2024-03-02","value":"56.6","unit":"kg"},{"visit":"WEEK 4","visitnum":"4.0","dtc":"2024-03-18","value":"55.5","unit":"kg"},{"visit":"WEEK 8","visitnum":"5.0","dtc":"2024-04-11","value":"54.8","unit":"kg"},{"visit":"WEEK 12","visitnum":"6.0","dtc":"2024-05-12","value":"57.6","unit":"kg"},{"visit":"FOLLOW-UP","visitnum":"7.0","dtc":"2024-06-13","value":"55.0","unit":"kg"}]},"results":[{"seq":"1","testcd":"BMI","test":"BMI","cat":null,"orres":"21.3","orresu":"kg/m2","stresc":"21.3","stresn":"21.3","stresu":"kg/m2","stnrlo":null,"stnrhi":null,"nrind":null,"pos":null,"loc":null,"dtc":"2024-01-16","dy":"-33","visit":"SCREENING","visitnum":"1.0","epoch":"SCREENING"},{"seq":"2","testcd":"DIABP","test":"Diastolic Blood Pressure","cat":null,"orres":"90.2","orresu":"mmHg","stresc":"90.2","stresn":"90.2","stresu":"mmHg","stnrlo":null,"stnrhi":null,"nrind":null,"pos":null,"loc":null,"dtc":"2024-01-16","dy":"-33","visit":"SCREENING","visitnum":"1.0","epoch":"SCREENING"},{"seq":"3","testcd":"HEIGHT","test":"Height","cat":null,"orres":"161.1","orresu":"cm","stresc":"161.1","stresn":"161.1","stresu":"cm","stnrlo":null,"stnrhi":null,"nrind":null,"pos":null,"loc":null,"dtc":"2024-01-16","dy":"-33","visit":"SCREENING","visitnum":"1.0","epoch":"SCREENING"},{"seq":"4","testcd":"PULSE","test":"Pulse Rate","cat":null,"orres":"88.0","orresu":"beats/min","stresc":"88.0","stresn":"88.0","stresu":"beats/min","stnrlo":null,"stnrhi":null,"nrind":null,"pos":null,"loc":null,"dtc":"2024-01-16","dy":"-33","visit":"SCREENING","visitnum":"1.0","epoch":"SCREENING"},{"seq":"5","testcd":"RESP","test":"Respiratory Rate","cat":null,"orres":"13.3","orresu":"breaths/min","stresc":"13.3","stresn":"13.3","stresu":"breaths/min","stnrlo":null,"stnrhi":null,"nrind":null,"pos":null,"loc":null,"dtc":"2024-01-16","dy":"-33","visit":"SCREENING","visitnum":"1.0","epoch":"SCREENING"},{"seq":"6","testcd":"SYSBP","test":"Systolic Blood Pressure","cat":null,"orres":"129.9","orresu":"mmHg","stresc":"129.9","stresn":"129.9","stresu":"mmHg","stnrlo":null,"stnrhi":null,"nrind":null,"pos":null,"loc":null,"dtc":"2024-01-16","dy":"-33","visit":"SCREENING","visitnum":"1.0","epoch":"SCREENING"},{"seq":"7","testcd":"TEMP","test":"Temperature","cat":null,"orres":"36.6","orresu":"C","stresc":"36.6","stresn":"36.6","stresu":"C","stnrlo":null,"stnrhi":null,"nrind":null,"pos":null,"loc":null,"dtc":"2024-01-16","dy":"-33","visit":"SCREENING","visitnum":"1.0","epoch":"SCREENING"},{"seq":"8","testcd":"WEIGHT","test":"Weight","cat":null,"orres":"55.2","orresu":"kg","stresc":"55.2","stresn":"55.2","stresu":"kg","stnrlo":null,"stnrhi":null,"nrind":null,"pos":null,"loc":null,"dtc":"2024-01-16","dy":"-33","visit":"SCREENING","visitnum":"1.0","epoch":"SCREENING"},{"seq":"9","testcd":"BMI","test":"BMI","cat":null,"orres":"21.2","orresu":"kg/m2","stresc":"21.2","stresn":"21.2","stresu":"kg/m2","stnrlo":null,"stnrhi":null,"nrind":null,"pos":null,"loc":null,"dtc":"2024-02-18","dy":"1","visit":"BASELINE","visitnum":"2.0","epoch":"TREATMENT"},{"seq":"10","testcd":"DIABP","test":"Diastolic Blood Pressure","cat":null,"orres":"90.5","orresu":"mmHg","stresc":"90.5","stresn":"90.5","stresu":"mmHg","stnrlo":null,"stnrhi":null,"nrind":null,"pos":null,"loc":null,"dtc":"2024-02-18","dy":"1","visit":"BASELINE","visitnum":"2.0","epoch":"TREATMENT"},{"seq":"11","testcd":"HEIGHT","test":"Height","cat":null,"orres":"160.8","orresu":"cm","stresc":"160.8","stresn":"160.8","stresu":"cm","stnrlo":null,"stnrhi":null,"nrind":null,"pos":null,"loc":null,"dtc":"2024-02-18","dy":"1","visit":"BASELINE","visitnum":"2.0","epoch":"TREATMENT"},{"seq":"12","testcd":"PULSE","test":"Pulse Rate","cat":null,"orres":"86.1","orresu":"beats/min","stresc":"86.1","stresn":"86.1","stresu":"beats/min","stnrlo":null,"stnrhi":null,"nrind":null,"pos":null,"loc":null,"dtc":"2024-02-18","dy":"1","visit":"BASELINE","visitnum":"2.0","epoch":"TREATMENT"},{"seq":"13","testcd":"RESP","test":"Respiratory Rate","cat":null,"orres":"12.7","orresu":"breaths/min","stresc":"12.7","stresn":"12.7","stresu":"breaths/min","stnrlo":null,"stnrhi":null,"nrind":null,"pos":null,"loc":null,"dtc":"2024-02-18","dy":"1","visit":"BASELINE","visitnum":"2.0","epoch":"TREATMENT"},{"seq":"14","testcd":"SYSBP","test":"Systolic Blood Pressure","cat":null,"orres":"130.6","orresu":"mmHg","stresc":"130.6","stresn":"130.6","stresu":"mmHg","stnrlo":null,"stnrhi":null,"nrind":null,"pos":null,"loc":null,"dtc":"2024-02-18","dy":"1","visit":"BASELINE","visitnum":"2.0","epoch":"TREATMENT"},{"seq":"15","testcd":"TEMP","test":"Temperature","cat":null,"orres":"36.5","orresu":"C","stresc":"36.5","stresn":"36.5","stresu":"C","stnrlo":null,"stnrhi":null,"nrind":null,"pos":null,"loc":null,"dtc":"2024-02-18","dy":"1","visit":"BASELINE","visitnum":"2.0","epoch":"TREATMENT"},{"seq":"16","testcd":"WEIGHT","test":"Weight","cat":null,"orres":"54.7","orresu":"kg","stresc":"54.7","stresn":"54.7","stresu":"kg","stnrlo":null,"stnrhi":null,"nrind":null,"pos":null,"loc":null,"dtc":"2024-02-18","dy":"1","visit":"BASELINE","visitnum":"2.0","epoch":"TREATMENT"},{"seq":"17","testcd":"BMI","test":"BMI","cat":null,"orres":"21.9","orresu":"kg/m2","stresc":"21.9","stresn":"21.9","stresu":"kg/m2","stnrlo":null,"stnrhi":null,"nrind":null,"pos":null,"loc":null,"dtc":"2024-03-02","dy":"14","visit":"WEEK 2","visitnum":"3.0","epoch":"TREATMENT"},{"seq":"18","testcd":"DIABP","test":"Diastolic Blood Pressure","cat":null,"orres":"90.3","orresu":"mmHg","stresc":"90.3","stresn":"90.3","stresu":"mmHg","stnrlo":null,"stnrhi":null,"nrind":null,"pos":null,"loc":null,"dtc":"2024-03-02","dy":"14","visit":"WEEK 2","visitnum":"3.0","epoch":"TREATMENT"},{"seq":"19","testcd":"HEIGHT","test":"Height","cat":null,"orres":"160.6","orresu":"cm","stresc":"160.6","stresn":"160.6","stresu":"cm","stnrlo":null,"stnrhi":null,"nrind":null,"pos":null,"loc":null,"dtc":"2024-03-02","dy":"14","visit":"WEEK 2","visitnum":"3.0","epoch":"TREATMENT"},{"seq":"20","testcd":"PULSE","test":"Pulse Rate","cat":null,"orres":"88.8","orresu":"beats/min","stresc":"88.8","stresn":"88.8","stresu":"beats/min","stnrlo":null,"stnrhi":null,"nrind":null,"pos":null,"loc":null,"dtc":"2024-03-02","dy":"14","visit":"WEEK 2","visitnum":"3.0","epoch":"TREATMENT"},{"seq":"21","testcd":"RESP","test":"Respiratory Rate","cat":null,"orres":"14.1","orresu":"breaths/min","stresc":"14.1","stresn":"14.1","stresu":"breaths/min","stnrlo":null,"stnrhi":null,"nrind":null,"pos":null,"loc":null,"dtc":"2024-03-02","dy":"14","visit":"WEEK 2","visitnum":"3.0","epoch":"TREATMENT"},{"seq":"22","testcd":"SYSBP","test":"Systolic Blood Pressure","cat":null,"orres":"133.5","orresu":"mmHg","stresc":"133.5","stresn":"133.5","stresu":"mmHg","stnrlo":null,"stnrhi":null,"nrind":null,"pos":null,"loc":null,"dtc":"2024-03-02","dy":"14","visit":"WEEK 2","visitnum":"3.0","epoch":"TREATMENT"},{"seq":"23","testcd":"TEMP","test":"Temperature","cat":null,"orres":"36.4","orresu":"C","stresc":"36.4","stresn":"36.4","stresu":"C","stnrlo":null,"stnrhi":null,"nrind":null,"pos":null,"loc":null,"dtc":"2024-03-02","dy":"14","visit":"WEEK 2","visitnum":"3.0","epoch":"TREATMENT"},{"seq":"24","testcd":"WEIGHT","test":"Weight","cat":null,"orres":"56.6","orresu":"kg","stresc":"56.6","stresn":"56.6","stresu":"kg","stnrlo":null,"stnrhi":null,"nrind":null,"pos":null,"loc":null,"dtc":"2024-03-02","dy":"14","visit":"WEEK 2","visitnum":"3.0","epoch":"TREATMENT"},{"seq":"25","testcd":"BMI","test":"BMI","cat":null,"orres":"21.4","orresu":"kg/m2","stresc":"21.4","stresn":"21.4","stresu":"kg/m2","stnrlo":null,"stnrhi":null,"nrind":null,"pos":null,"loc":null,"dtc":"2024-03-18","dy":"30","visit":"WEEK 4","visitnum":"4.0","epoch":"TREATMENT"},{"seq":"26","testcd":"DIABP","test":"Diastolic Blood Pressure","cat":null,"orres":"91.3","orresu":"mmHg","stresc":"91.3","stresn":"91.3","stresu":"mmHg","stnrlo":null,"stnrhi":null,"nrind":null,"pos":null,"loc":null,"dtc":"2024-03-18","dy":"30","visit":"WEEK 4","visitnum":"4.0","epoch":"TREATMENT"},{"seq":"27","testcd":"HEIGHT","test":"Height","cat":null,"orres":"161.0","orresu":"cm","stresc":"161.0","stresn":"161.0","stresu":"cm","stnrlo":null,"stnrhi":null,"nrind":null,"pos":null,"loc":null,"dtc":"2024-03-18","dy":"30","visit":"WEEK 4","visitnum":"4.0","epoch":"TREATMENT"},{"seq":"28","testcd":"PULSE","test":"Pulse Rate","cat":null,"orres":"90.2","orresu":"beats/min","stresc":"90.2","stresn":"90.2","stresu":"beats/min","stnrlo":null,"stnrhi":null,"nrind":null,"pos":null,"loc":null,"dtc":"2024-03-18","dy":"30","visit":"WEEK 4","visitnum":"4.0","epoch":"TREATMENT"},{"seq":"29","testcd":"RESP","test":"Respiratory Rate","cat":null,"orres":"15.1","orresu":"breaths/min","stresc":"15.1","stresn":"15.1","stresu":"breaths/min","stnrlo":null,"stnrhi":null,"nrind":null,"pos":null,"loc":null,"dtc":"2024-03-18","dy":"30","visit":"WEEK 4","visitnum":"4.0","epoch":"TREATMENT"},{"seq":"30","testcd":"SYSBP","test":"Systolic Blood Pressure","cat":null,"orres":"134.9","orresu":"mmHg","stresc":"134.9","stresn":"134.9","stresu":"mmHg","stnrlo":null,"stnrhi":null,"nrind":null,"pos":null,"loc":null,"dtc":"2024-03-18","dy":"30","visit":"WEEK 4","visitnum":"4.0","epoch":"TREATMENT"},{"seq":"31","testcd":"TEMP","test":"Temperature","cat":null,"orres":"36.5","orresu":"C","stresc":"36.5","stresn":"36.5","stresu":"C","stnrlo":null,"stnrhi":null,"nrind":null,"pos":null,"loc":null,"dtc":"2024-03-18","dy":"30","visit":"WEEK 4","visitnum":"4.0","epoch":"TREATMENT"},{"seq":"32","testcd":"WEIGHT","test":"Weight","cat":null,"orres":"55.5","orresu":"kg","stresc":"55.5","stresn":"55.5","stresu":"kg","stnrlo":null,"stnrhi":null,"nrind":null,"pos":null,"loc":null,"dtc":"2024-03-18","dy":"30","visit":"WEEK 4","visitnum":"4.0","epoch":"TREATMENT"},{"seq":"33","testcd":"BMI","test":"BMI","cat":null,"orres":"21.0","orresu":"kg/m2","stresc":"21.0","stresn":"21.0","stresu":"kg/m2","stnrlo":null,"stnrhi":null,"nrind":null,"pos":null,"loc":null,"dtc":"2024-04-11","dy":"54","visit":"WEEK 8","visitnum":"5.0","epoch":"TREATMENT"},{"seq":"34","testcd":"DIABP","test":"Diastolic Blood Pressure","cat":null,"orres":"90.6","orresu":"mmHg","stresc":"90.6","stresn":"90.6","stresu":"mmHg","stnrlo":null,"stnrhi":null,"nrind":null,"pos":null,"loc":null,"dtc":"2024-04-11","dy":"54","visit":"WEEK 8","visitnum":"5.0","epoch":"TREATMENT"},{"seq":"35","testcd":"HEIGHT","test":"Height","cat":null,"orres":"161.4","orresu":"cm","stresc":"161.4","stresn":"161.4","stresu":"cm","stnrlo":null,"stnrhi":null,"nrind":null,"pos":null,"loc":null,"dtc":"2024-04-11","dy":"54","visit":"WEEK 8","visitnum":"5.0","epoch":"TREATMENT"},{"seq":"36","testcd":"PULSE","test":"Pulse Rate","cat":null,"orres":"87.4","orresu":"beats/min","stresc":"87.4","stresn":"87.4","stresu":"beats/min","stnrlo":null,"stnrhi":null,"nrind":null,"pos":null,"loc":null,"dtc":"2024-04-11","dy":"54","visit":"WEEK 8","visitnum":"5.0","epoch":"TREATMENT"},{"seq":"37","testcd":"RESP","test":"Respiratory Rate","cat":null,"orres":"16.2","orresu":"breaths/min","stresc":"16.2","stresn":"16.2","stresu":"breaths/min","stnrlo":null,"stnrhi":null,"nrind":null,"pos":null,"loc":null,"dtc":"2024-04-11","dy":"54","visit":"WEEK 8","visitnum":"5.0","epoch":"TREATMENT"},{"seq":"38","testcd":"SYSBP","test":"Systolic Blood Pressure","cat":null,"orres":"135.2","orresu":"mmHg","stresc":"135.2","stresn":"135.2","stresu":"mmHg","stnrlo":null,"stnrhi":null,"nrind":null,"pos":null,"loc":null,"dtc":"2024-04-11","dy":"54","visit":"WEEK 8","visitnum":"5.0","epoch":"TREATMENT"},{"seq":"39","testcd":"TEMP","test":"Temperature","cat":null,"orres":"36.3","orresu":"C","stresc":"36.3","stresn":"36.3","stresu":"C","stnrlo":null,"stnrhi":null,"nrind":null,"pos":null,"loc":null,"dtc":"2024-04-11","dy":"54","visit":"WEEK 8","visitnum":"5.0","epoch":"TREATMENT"},{"seq":"40","testcd":"WEIGHT","test":"Weight","cat":null,"orres":"54.8","orresu":"kg","stresc":"54.8","stresn":"54.8","stresu":"kg","stnrlo":null,"stnrhi":null,"nrind":null,"pos":null,"loc":null,"dtc":"2024-04-11","dy":"54","visit":"WEEK 8","visitnum":"5.0","epoch":"TREATMENT"},{"seq":"41","testcd":"BMI","test":"BMI","cat":null,"orres":"22.1","orresu":"kg/m2","stresc":"22.1","stresn":"22.1","stresu":"kg/m2","stnrlo":null,"stnrhi":null,"nrind":null,"pos":null,"loc":null,"dtc":"2024-05-12","dy":"85","visit":"WEEK 12","visitnum":"6.0","epoch":"TREATMENT"},{"seq":"42","testcd":"DIABP","test":"Diastolic Blood Pressure","cat":null,"orres":"88.3","orresu":"mmHg","stresc":"88.3","stresn":"88.3","stresu":"mmHg","stnrlo":null,"stnrhi":null,"nrind":null,"pos":null,"loc":null,"dtc":"2024-05-12","dy":"85","visit":"WEEK 12","visitnum":"6.0","epoch":"TREATMENT"},{"seq":"43","testcd":"HEIGHT","test":"Height","cat":null,"orres":"161.4","orresu":"cm","stresc":"161.4","stresn":"161.4","stresu":"cm","stnrlo":null,"stnrhi":null,"nrind":null,"pos":null,"loc":null,"dtc":"2024-05-12","dy":"85","visit":"WEEK 12","visitnum":"6.0","epoch":"TREATMENT"},{"seq":"44","testcd":"PULSE","test":"Pulse Rate","cat":null,"orres":"88.1","orresu":"beats/min","stresc":"88.1","stresn":"88.1","stresu":"beats/min","stnrlo":null,"stnrhi":null,"nrind":null,"pos":null,"loc":null,"dtc":"2024-05-12","dy":"85","visit":"WEEK 12","visitnum":"6.0","epoch":"TREATMENT"},{"seq":"45","testcd":"RESP","test":"Respiratory Rate","cat":null,"orres":"14.9","orresu":"breaths/min","stresc":"14.9","stresn":"14.9","stresu":"breaths/min","stnrlo":null,"stnrhi":null,"nrind":null,"pos":null,"loc":null,"dtc":"2024-05-12","dy":"85","visit":"WEEK 12","visitnum":"6.0","epoch":"TREATMENT"},{"seq":"46","testcd":"SYSBP","test":"Systolic Blood Pressure","cat":null,"orres":"132.5","orresu":"mmHg","stresc":"132.5","stresn":"132.5","stresu":"mmHg","stnrlo":null,"stnrhi":null,"nrind":null,"pos":null,"loc":null,"dtc":"2024-05-12","dy":"85","visit":"WEEK 12","visitnum":"6.0","epoch":"TREATMENT"},{"seq":"47","testcd":"TEMP","test":"Temperature","cat":null,"orres":"36.3","orresu":"C","stresc":"36.3","stresn":"36.3","stresu":"C","stnrlo":null,"stnrhi":null,"nrind":null,"pos":null,"loc":null,"dtc":"2024-05-12","dy":"85","visit":"WEEK 12","visitnum":"6.0","epoch":"TREATMENT"},{"seq":"48","testcd":"WEIGHT","test":"Weight","cat":null,"orres":"57.6","orresu":"kg","stresc":"57.6","stresn":"57.6","stresu":"kg","stnrlo":null,"stnrhi":null,"nrind":null,"pos":null,"loc":null,"dtc":"2024-05-12","dy":"85","visit":"WEEK 12","visitnum":"6.0","epoch":"TREATMENT"},{"seq":"49","testcd":"BMI","test":"BMI","cat":null,"orres":"21.0","orresu":"kg/m2","stresc":"21.0","stresn":"21.0","stresu":"kg/m2","stnrlo":null,"stnrhi":null,"nrind":null,"pos":null,"loc":null,"dtc":"2024-06-13","dy":"117","visit":"FOLLOW-UP","visitnum":"7.0","epoch":"FOLLOW-UP"},{"seq":"50","testcd":"DIABP","test":"Diastolic Blood Pressure","cat":null,"orres":"86.9","orresu":"mmHg","stresc":"86.9","stresn":"86.9","stresu":"mmHg","stnrlo":null,"stnrhi":null,"nrind":null,"pos":null,"loc":null,"dtc":"2024-06-13","dy":"117","visit":"FOLLOW-UP","visitnum":"7.0","epoch":"FOLLOW-UP"},{"seq":"51","testcd":"HEIGHT","test":"Height","cat":null,"orres":"161.8","orresu":"cm","stresc":"161.8","stresn":"161.8","stresu":"cm","stnrlo":null,"stnrhi":null,"nrind":null,"pos":null,"loc":null,"dtc":"2024-06-13","dy":"117","visit":"FOLLOW-UP","visitnum":"7.0","epoch":"FOLLOW-UP"},{"seq":"52","testcd":"PULSE","test":"Pulse Rate","cat":null,"orres":"86.1","orresu":"beats/min","stresc":"86.1","stresn":"86.1","stresu":"beats/min","stnrlo":null,"stnrhi":null,"nrind":null,"pos":null,"loc":null,"dtc":"2024-06-13","dy":"117","visit":"FOLLOW-UP","visitnum":"7.0","epoch":"FOLLOW-UP"},{"seq":"53","testcd":"RESP","test":"Respiratory Rate","cat":null,"orres":"14.6","orresu":"breaths/min","stresc":"14.6","stresn":"14.6","stresu":"breaths/min","stnrlo":null,"stnrhi":null,"nrind":null,"pos":null,"loc":null,"dtc":"2024-06-13","dy":"117","visit":"FOLLOW-UP","visitnum":"7.0","epoch":"FOLLOW-UP"},{"seq":"54","testcd":"SYSBP","test":"Systolic Blood Pressure","cat":null,"orres":"128.1","orresu":"mmHg","stresc":"128.1","stresn":"128.1","stresu":"mmHg","stnrlo":null,"stnrhi":null,"nrind":null,"pos":null,"loc":null,"dtc":"2024-06-13","dy":"117","visit":"FOLLOW-UP","visitnum":"7.0","epoch":"FOLLOW-UP"},{"seq":"55","testcd":"TEMP","test":"Temperature","cat":null,"orres":"36.4","orresu":"C","stresc":"36.4","stresn":"36.4","stresu":"C","stnrlo":null,"stnrhi":null,"nrind":null,"pos":null,"loc":null,"dtc":"2024-06-13","dy":"117","visit":"FOLLOW-UP","visitnum":"7.0","epoch":"FOLLOW-UP"},{"seq":"56","testcd":"WEIGHT","test":"Weight","cat":null,"orres":"55.0","orresu":"kg","stresc":"55.0","stresn":"55.0","stresu":"kg","stnrlo":null,"stnrhi":null,"nrind":null,"pos":null,"loc":null,"dtc":"2024-06-13","dy":"117","visit":"FOLLOW-UP","visitnum":"7.0","epoch":"FOLLOW-UP"}]},"section_10_questionnaires_and_scores":{"questionnaires":[],"findings_about":[]},"section_11_protocol_deviations":{"deviations":[{"seq":"1","term":"Missed GB001 dose on 2024-03-12","decod":"MISSED DOSE","cat":"MINOR","scat":"DOSING","start_dtc":"2024-03-12","end_dtc":null,"visit":null},{"seq":"2","term":"Missed GB001 dose on 2024-03-29","decod":"MISSED DOSE","cat":"MINOR","scat":"DOSING","start_dtc":"2024-03-29","end_dtc":null,"visit":null},{"seq":"3","term":"Missed GB001 dose on 2024-04-01","decod":"MISSED DOSE","cat":"MINOR","scat":"DOSING","start_dtc":"2024-04-01","end_dtc":null,"visit":null},{"seq":"4","term":"Visit WEEK 8 occurred 3 days early (Day 54 vs planned Day 57)","decod":"VISIT OCCURRED OUTSIDE VISIT WINDOW","cat":"MINOR","scat":"VISIT WINDOW","start_dtc":"2024-04-11","end_dtc":null,"visit":null}],"total":4},"section_12_disposition":{"completion_status":"COMPLETED","disposition_records":[{"seq":"1","term":"INFORMED CONSENT OBTAINED","decod":"INFORMED CONSENT OBTAINED","cat":"PROTOCOL MILESTONE","scat":null,"dtc":"2024-01-19","dy":null,"visit":null,"epoch":"SCREENING"},{"seq":"2","term":"RANDOMIZED","decod":"RANDOMIZED","cat":"PROTOCOL MILESTONE","scat":null,"dtc":"2024-02-18","dy":null,"visit":null,"epoch":"TREATMENT"},{"seq":"3","term":"COMPLETED","decod":"COMPLETED","cat":"DISPOSITION EVENT","scat":null,"dtc":"2024-07-06","dy":null,"visit":null,"epoch":"FOLLOW-UP"}],"death":null},"section_13_hospitalizations":{"items":[{"seq":"1","term":"Cough","decod":"Cough","cat":"EMERGENCY ROOM VISIT","start_dtc":"2024-03-10","end_dtc":"2024-03-19","epoch":"TREATMENT"}],"total":1},"section_14_substance_use":{"items":[{"seq":"1","substance":"ALCOHOL","decod":"ALCOHOL","cat":"ALCOHOL","scat":null,"usage":"Y","dose":"12.0","dosu":"DRINKS/WEEK","freq":"QW","start_dtc":"2004-01-24","end_dtc":null},{"seq":"2","substance":"COFFEE","decod":"COFFEE","cat":"CAFFEINE","scat":null,"usage":"Y","dose":"1.0","dosu":"CUPS/DAY","freq":"QD","start_dtc":"1996-01-26","end_dtc":null},{"seq":"3","substance":"CIGARETTES","decod":"CIGARETTES","cat":"TOBACCO","scat":"CIGARETTES","usage":"Y","dose":"11.0","dosu":"CIGARETTES/DAY","freq":"QD","start_dtc":"2020-01-20","end_dtc":null}],"total":3},"section_15_subject_status":{"items":[{"seq":"1","testcd":"SURVSTAT","test":"Survival Status","orres":"ALIVE","stresc":"ALIVE","dtc":"2024-07-06","visit":"END OF STUDY","epoch":"FOLLOW-UP"}],"total":1}}