{"subject_id":"GB001-ASTHMA-201-SITE001-0046","study_id":"GB001-ASTHMA-201","generated_at":"2026-06-16T07:22:15.875694+00:00","sdtmig_version":"3.4","flags":{"has_serious_ae":false,"has_fatal_ae":false,"has_protocol_deviation":true,"n_protocol_deviations":8,"n_adverse_events":5,"n_concomitant_meds":4,"max_ae_severity":"MODERATE","screen_failure":false,"discontinued_early":false,"discontinuation_reason":null,"death":false,"exposure_days":72},"timeline":[{"dtc":"2024-01-21","dy":"-48","event":"VISIT: SCREENING","domain":"SV","category":"visit"},{"dtc":"2024-02-27","dy":"-11","event":"INFORMED CONSENT OBTAINED","domain":"DS","category":"milestone"},{"dtc":"2024-03-09","dy":"1","event":"RANDOMIZED","domain":"DS","category":"milestone"},{"dtc":"2024-03-09","dy":"1","event":"FIRST DOSE: GB001","domain":"EX","category":"exposure"},{"dtc":"2024-03-09","dy":"1","event":"VISIT: BASELINE","domain":"SV","category":"visit"},{"dtc":"2024-03-15","dy":"7","event":"AE: Cough (MILD)","domain":"AE","category":"adverse_event"},{"dtc":"2024-03-25","dy":"17","event":"DEVIATION: VISIT OCCURRED OUTSIDE VISIT WINDOW","domain":"DV","category":"deviation"},{"dtc":"2024-03-25","dy":"17","event":"VISIT: WEEK 2","domain":"SV","category":"visit"},{"dtc":"2024-03-28","dy":"20","event":"DEVIATION: MISSED DOSE","domain":"DV","category":"deviation"},{"dtc":"2024-03-31","dy":"23","event":"CM START: OMEPRAZOLE","domain":"CM","category":"concomitant_med"},{"dtc":"2024-04-04","dy":"27","event":"DEVIATION: VISIT OCCURRED OUTSIDE VISIT WINDOW","domain":"DV","category":"deviation"},{"dtc":"2024-04-04","dy":"27","event":"VISIT: WEEK 4","domain":"SV","category":"visit"},{"dtc":"2024-04-08","dy":"31","event":"DEVIATION: MISSED DOSE","domain":"DV","category":"deviation"},{"dtc":"2024-04-12","dy":"35","event":"DEVIATION: MISSED DOSE","domain":"DV","category":"deviation"},{"dtc":"2024-04-16","dy":"39","event":"DEVIATION: MISSED DOSE","domain":"DV","category":"deviation"},{"dtc":"2024-04-22","dy":"45","event":"DEVIATION: MISSED DOSE","domain":"DV","category":"deviation"},{"dtc":"2024-05-03","dy":"56","event":"DEVIATION: MISSED DOSE","domain":"DV","category":"deviation"},{"dtc":"2024-05-07","dy":"60","event":"VISIT: WEEK 8","domain":"SV","category":"visit"},{"dtc":"2024-05-11","dy":"64","event":"AE: Asthma (MODERATE)","domain":"AE","category":"adverse_event"},{"dtc":"2024-05-11","dy":"64","event":"CM START: IBUPROFEN","domain":"CM","category":"concomitant_med"},{"dtc":"2024-05-14","dy":"67","event":"AE: Oropharyngeal pain (MODERATE)","domain":"AE","category":"adverse_event"},{"dtc":"2024-05-14","dy":"67","event":"CM START: IBUPROFEN","domain":"CM","category":"concomitant_med"},{"dtc":"2024-05-17","dy":"70","event":"AE: Bronchitis (MODERATE)","domain":"AE","category":"adverse_event"},{"dtc":"2024-05-17","dy":"70","event":"CM START: AMOXICILLIN","domain":"CM","category":"concomitant_med"},{"dtc":"2024-05-20","dy":"73","event":"LAST DOSE: GB001","domain":"EX","category":"exposure"},{"dtc":"2024-05-24","dy":"77","event":"AE: Nasopharyngitis (MILD)","domain":"AE","category":"adverse_event"},{"dtc":"2024-06-02","dy":"86","event":"VISIT: WEEK 12","domain":"SV","category":"visit"},{"dtc":"2024-07-04","dy":"118","event":"VISIT: FOLLOW-UP","domain":"SV","category":"visit"},{"dtc":"2024-07-26","dy":"140","event":"COMPLETED","domain":"DS","category":"milestone"}],"section_1_demographics":{"usubjid":"GB001-ASTHMA-201-SITE001-0046","subjid":"0046","siteid":"SITE001","age":"60","ageu":"YEARS","sex":"F","race":"OTHER","ethnicity":"HISPANIC OR LATINO","country":"USA","arm":"GB001 40mg QD","armcd":"GB40","actarm":"GB001 40mg QD","actarmcd":"GB40","randomization_date":null,"informed_consent_date":"2024-02-27","reference_start_date":"2024-03-09","reference_end_date":"2024-07-26","screen_failure":false,"death_flag":null,"death_date":null,"subject_characteristics":[{"testcd":"ALCUSE","test":"Alcohol Use","orres":"NON-DRINKER","stresc":"NON-DRINKER","visit":null,"dtc":"2024-02-27"},{"testcd":"BMI","test":"Body Mass Index","orres":"36.1","stresc":"36.1","visit":null,"dtc":"2024-02-27"},{"testcd":"DURDIS","test":"Duration of Disease","orres":"36 months","stresc":"36","visit":null,"dtc":"2024-02-27"},{"testcd":"TOBPKYR","test":"Tobacco Pack-Years","orres":"25","stresc":"25","visit":null,"dtc":"2024-02-27"},{"testcd":"TOBUSE","test":"Tobacco Use","orres":"FORMER SMOKER","stresc":"FORMER SMOKER","visit":null,"dtc":"2024-02-27"}]},"section_2_medical_history":{"items":[{"seq":"1","term":"DIABETES MELLITUS TYPE 2","decod":"DIABETES MELLITUS TYPE 2","cat":"ENDOCRINE","scat":null,"presp":null,"occur":null,"status":null,"onset_dtc":"2021-02","end_dtc":"2023-10-29","visit":null},{"seq":"2","term":"HYPERLIPIDEMIA","decod":"HYPERLIPIDEMIA","cat":"METABOLIC","scat":null,"presp":null,"occur":null,"status":null,"onset_dtc":"2021-02-27","end_dtc":"2023-07-19","visit":null}]},"section_3_inclusion_exclusion":{"criteria":[]},"section_4_trial_participation":{"visits":[{"visitnum":"1.0","visit":"SCREENING","start_dtc":"2024-01-21","end_dtc":"2024-01-21","updes":null},{"visitnum":"2.0","visit":"BASELINE","start_dtc":"2024-03-09","end_dtc":"2024-03-09","updes":null},{"visitnum":"3.0","visit":"WEEK 2","start_dtc":"2024-03-25","end_dtc":"2024-03-25","updes":null},{"visitnum":"4.0","visit":"WEEK 4","start_dtc":"2024-04-04","end_dtc":"2024-04-04","updes":null},{"visitnum":"5.0","visit":"WEEK 8","start_dtc":"2024-05-07","end_dtc":"2024-05-07","updes":null},{"visitnum":"6.0","visit":"WEEK 12","start_dtc":"2024-06-02","end_dtc":"2024-06-02","updes":null},{"visitnum":"7.0","visit":"FOLLOW-UP","start_dtc":"2024-07-04","end_dtc":"2024-07-04","updes":null}],"epochs":[{"seq":"1","etcd":"SCRN","element":"Screening","start_dtc":"2024-02-10","end_dtc":"2024-03-09","updes":null},{"seq":"2","etcd":"TRT","element":"Treatment","start_dtc":"2024-03-09","end_dtc":"2024-06-01","updes":null},{"seq":"3","etcd":"FU","element":"Follow-up","start_dtc":"2024-06-01","end_dtc":"2024-06-28","updes":null}],"visit_count":7},"section_5_concomitant_medications":{"medications":[{"seq":"1","trt":"OMEPRAZOLE","decod":"OMEPRAZOLE","cat":"CONCOMITANT","dose":null,"doseu":null,"dosef":"QD","route":"ORAL","indication":null,"start_dtc":"2024-03-31","end_dtc":"2024-04-07","ongoing":null,"visit":null},{"seq":"2","trt":"IBUPROFEN","decod":"IBUPROFEN","cat":"CONCOMITANT","dose":"400","doseu":null,"dosef":"PRN","route":"ORAL","indication":"ASTHMA","start_dtc":"2024-05-11","end_dtc":"2024-05-19","ongoing":null,"visit":null},{"seq":"3","trt":"IBUPROFEN","decod":"IBUPROFEN","cat":"CONCOMITANT","dose":"400","doseu":null,"dosef":"PRN","route":"ORAL","indication":"OROPHARYNGEAL PAIN","start_dtc":"2024-05-14","end_dtc":"2024-05-21","ongoing":null,"visit":null},{"seq":"4","trt":"AMOXICILLIN","decod":"AMOXICILLIN","cat":"CONCOMITANT","dose":"500.0","doseu":null,"dosef":"TID","route":"ORAL","indication":"BRONCHITIS","start_dtc":"2024-05-17","end_dtc":"2024-05-27","ongoing":null,"visit":null}]},"section_6_exposure":{"exposure_as_administered":[{"seq":"1","trt":"GB001","dose":"40.0","doseu":null,"dosef":"QD","route":"ORAL","lot":null,"start_dtc":"2024-03-09","end_dtc":"2024-05-16","start_dy":"1","end_dy":"69","epoch":"TREATMENT","visit":null},{"seq":"2","trt":"GB001","dose":"20.0","doseu":null,"dosef":"QD","route":"ORAL","lot":null,"start_dtc":"2024-05-17","end_dtc":"2024-05-20","start_dy":"70","end_dy":"73","epoch":"TREATMENT","visit":null}],"exposure_as_collected":[{"seq":"1","trt":"GB001","dose":"40.0","doseu":null,"dosef":"QD","route":"ORAL","start_dtc":"2024-03-09","end_dtc":"2024-03-09","visit":"BASELINE"},{"seq":"2","trt":"GB001","dose":"40.0","doseu":null,"dosef":"QD","route":"ORAL","start_dtc":"2024-03-10","end_dtc":"2024-03-10","visit":"BASELINE"},{"seq":"3","trt":"GB001","dose":"40.0","doseu":null,"dosef":"QD","route":"ORAL","start_dtc":"2024-03-11","end_dtc":"2024-03-11","visit":"BASELINE"},{"seq":"4","trt":"GB001","dose":"40.0","doseu":null,"dosef":"QD","route":"ORAL","start_dtc":"2024-03-12","end_dtc":"2024-03-12","visit":"BASELINE"},{"seq":"5","trt":"GB001","dose":"40.0","doseu":null,"dosef":"QD","route":"ORAL","start_dtc":"2024-03-13","end_dtc":"2024-03-13","visit":null},{"seq":"6","trt":"GB001","dose":"40.0","doseu":null,"dosef":"QD","route":"ORAL","start_dtc":"2024-03-14","end_dtc":"2024-03-14","visit":null},{"seq":"7","trt":"GB001","dose":"40.0","doseu":null,"dosef":"QD","route":"ORAL","start_dtc":"2024-03-15","end_dtc":"2024-03-15","visit":null},{"seq":"8","trt":"GB001","dose":"40.0","doseu":null,"dosef":"QD","route":"ORAL","start_dtc":"2024-03-16","end_dtc":"2024-03-16","visit":null},{"seq":"9","trt":"GB001","dose":"40.0","doseu":null,"dosef":"QD","route":"ORAL","start_dtc":"2024-03-17","end_dtc":"2024-03-17","visit":null},{"seq":"10","trt":"GB001","dose":"40.0","doseu":null,"dosef":"QD","route":"ORAL","start_dtc":"2024-03-18","end_dtc":"2024-03-18","visit":null},{"seq":"11","trt":"GB001","dose":"40.0","doseu":null,"dosef":"QD","route":"ORAL","start_dtc":"2024-03-19","end_dtc":"2024-03-19","visit":null},{"seq":"12","trt":"GB001","dose":"40.0","doseu":null,"dosef":"QD","route":"ORAL","start_dtc":"2024-03-20","end_dtc":"2024-03-20","visit":"WEEK 2"},{"seq":"13","trt":"GB001","dose":"40.0","doseu":null,"dosef":"QD","route":"ORAL","start_dtc":"2024-03-21","end_dtc":"2024-03-21","visit":"WEEK 2"},{"seq":"14","trt":"GB001","dose":"40.0","doseu":null,"dosef":"QD","route":"ORAL","start_dtc":"2024-03-22","end_dtc":"2024-03-22","visit":"WEEK 2"},{"seq":"15","trt":"GB001","dose":"40.0","doseu":null,"dosef":"QD","route":"ORAL","start_dtc":"2024-03-23","end_dtc":"2024-03-23","visit":"WEEK 2"},{"seq":"16","trt":"GB001","dose":"40.0","doseu":null,"dosef":"QD","route":"ORAL","start_dtc":"2024-03-24","end_dtc":"2024-03-24","visit":"WEEK 2"},{"seq":"17","trt":"GB001","dose":"40.0","doseu":null,"dosef":"QD","route":"ORAL","start_dtc":"2024-03-25","end_dtc":"2024-03-25","visit":"WEEK 2"},{"seq":"18","trt":"GB001","dose":"40.0","doseu":null,"dosef":"QD","route":"ORAL","start_dtc":"2024-03-26","end_dtc":"2024-03-26","visit":"WEEK 2"},{"seq":"19","trt":"GB001","dose":"40.0","doseu":null,"dosef":"QD","route":"ORAL","start_dtc":"2024-03-27","end_dtc":"2024-03-27","visit":null},{"seq":"20","trt":"GB001","dose":null,"doseu":null,"dosef":"QD","route":"ORAL","start_dtc":"2024-03-28","end_dtc":"2024-03-28","visit":null},{"seq":"21","trt":"GB001","dose":"40.0","doseu":null,"dosef":"QD","route":"ORAL","start_dtc":"2024-03-29","end_dtc":"2024-03-29","visit":null},{"seq":"22","trt":"GB001","dose":"40.0","doseu":null,"dosef":"QD","route":"ORAL","start_dtc":"2024-03-30","end_dtc":"2024-03-30","visit":null},{"seq":"23","trt":"GB001","dose":"40.0","doseu":null,"dosef":"QD","route":"ORAL","start_dtc":"2024-03-31","end_dtc":"2024-03-31","visit":null},{"seq":"24","trt":"GB001","dose":"40.0","doseu":null,"dosef":"QD","route":"ORAL","start_dtc":"2024-04-01","end_dtc":"2024-04-01","visit":null},{"seq":"25","trt":"GB001","dose":"40.0","doseu":null,"dosef":"QD","route":"ORAL","start_dtc":"2024-04-02","end_dtc":"2024-04-02","visit":null},{"seq":"26","trt":"GB001","dose":"40.0","doseu":null,"dosef":"QD","route":"ORAL","start_dtc":"2024-04-03","end_dtc":"2024-04-03","visit":"WEEK 4"},{"seq":"27","trt":"GB001","dose":"40.0","doseu":null,"dosef":"QD","route":"ORAL","start_dtc":"2024-04-04","end_dtc":"2024-04-04","visit":"WEEK 4"},{"seq":"28","trt":"GB001","dose":"40.0","doseu":null,"dosef":"QD","route":"ORAL","start_dtc":"2024-04-05","end_dtc":"2024-04-05","visit":"WEEK 4"},{"seq":"29","trt":"GB001","dose":"40.0","doseu":null,"dosef":"QD","route":"ORAL","start_dtc":"2024-04-06","end_dtc":"2024-04-06","visit":"WEEK 4"},{"seq":"30","trt":"GB001","dose":"40.0","doseu":null,"dosef":"QD","route":"ORAL","start_dtc":"2024-04-07","end_dtc":"2024-04-07","visit":"WEEK 4"},{"seq":"31","trt":"GB001","dose":null,"doseu":null,"dosef":"QD","route":"ORAL","start_dtc":"2024-04-08","end_dtc":"2024-04-08","visit":"WEEK 4"},{"seq":"32","trt":"GB001","dose":"40.0","doseu":null,"dosef":"QD","route":"ORAL","start_dtc":"2024-04-09","end_dtc":"2024-04-09","visit":"WEEK 4"},{"seq":"33","trt":"GB001","dose":"40.0","doseu":null,"dosef":"QD","route":"ORAL","start_dtc":"2024-04-10","end_dtc":"2024-04-10","visit":null},{"seq":"34","trt":"GB001","dose":"40.0","doseu":null,"dosef":"QD","route":"ORAL","start_dtc":"2024-04-11","end_dtc":"2024-04-11","visit":null},{"seq":"35","trt":"GB001","dose":null,"doseu":null,"dosef":"QD","route":"ORAL","start_dtc":"2024-04-12","end_dtc":"2024-04-12","visit":null},{"seq":"36","trt":"GB001","dose":"40.0","doseu":null,"dosef":"QD","route":"ORAL","start_dtc":"2024-04-13","end_dtc":"2024-04-13","visit":null},{"seq":"37","trt":"GB001","dose":"40.0","doseu":null,"dosef":"QD","route":"ORAL","start_dtc":"2024-04-14","end_dtc":"2024-04-14","visit":null},{"seq":"38","trt":"GB001","dose":"40.0","doseu":null,"dosef":"QD","route":"ORAL","start_dtc":"2024-04-15","end_dtc":"2024-04-15","visit":null},{"seq":"39","trt":"GB001","dose":null,"doseu":null,"dosef":"QD","route":"ORAL","start_dtc":"2024-04-16","end_dtc":"2024-04-16","visit":null},{"seq":"40","trt":"GB001","dose":"40.0","doseu":null,"dosef":"QD","route":"ORAL","start_dtc":"2024-04-17","end_dtc":"2024-04-17","visit":null},{"seq":"41","trt":"GB001","dose":"40.0","doseu":null,"dosef":"QD","route":"ORAL","start_dtc":"2024-04-18","end_dtc":"2024-04-18","visit":null},{"seq":"42","trt":"GB001","dose":null,"doseu":null,"dosef":"QD","route":"ORAL","start_dtc":"2024-04-19","end_dtc":"2024-04-19","visit":null},{"seq":"43","trt":"GB001","dose":"40.0","doseu":null,"dosef":"QD","route":"ORAL","start_dtc":"2024-04-20","end_dtc":"2024-04-20","visit":null},{"seq":"44","trt":"GB001","dose":"40.0","doseu":null,"dosef":"QD","route":"ORAL","start_dtc":"2024-04-21","end_dtc":"2024-04-21","visit":null},{"seq":"45","trt":"GB001","dose":null,"doseu":null,"dosef":"QD","route":"ORAL","start_dtc":"2024-04-22","end_dtc":"2024-04-22","visit":null},{"seq":"46","trt":"GB001","dose":"40.0","doseu":null,"dosef":"QD","route":"ORAL","start_dtc":"2024-04-23","end_dtc":"2024-04-23","visit":null},{"seq":"47","trt":"GB001","dose":"40.0","doseu":null,"dosef":"QD","route":"ORAL","start_dtc":"2024-04-24","end_dtc":"2024-04-24","visit":null},{"seq":"48","trt":"GB001","dose":"40.0","doseu":null,"dosef":"QD","route":"ORAL","start_dtc":"2024-04-25","end_dtc":"2024-04-25","visit":null},{"seq":"49","trt":"GB001","dose":"40.0","doseu":null,"dosef":"QD","route":"ORAL","start_dtc":"2024-04-26","end_dtc":"2024-04-26","visit":null},{"seq":"50","trt":"GB001","dose":"40.0","doseu":null,"dosef":"QD","route":"ORAL","start_dtc":"2024-04-27","end_dtc":"2024-04-27","visit":null},{"seq":"51","trt":"GB001","dose":"40.0","doseu":null,"dosef":"QD","route":"ORAL","start_dtc":"2024-04-28","end_dtc":"2024-04-28","visit":null},{"seq":"52","trt":"GB001","dose":"40.0","doseu":null,"dosef":"QD","route":"ORAL","start_dtc":"2024-04-29","end_dtc":"2024-04-29","visit":null},{"seq":"53","trt":"GB001","dose":"40.0","doseu":null,"dosef":"QD","route":"ORAL","start_dtc":"2024-04-30","end_dtc":"2024-04-30","visit":null},{"seq":"54","trt":"GB001","dose":"40.0","doseu":null,"dosef":"QD","route":"ORAL","start_dtc":"2024-05-01","end_dtc":"2024-05-01","visit":"WEEK 8"},{"seq":"55","trt":"GB001","dose":"40.0","doseu":null,"dosef":"QD","route":"ORAL","start_dtc":"2024-05-02","end_dtc":"2024-05-02","visit":"WEEK 8"},{"seq":"56","trt":"GB001","dose":null,"doseu":null,"dosef":"QD","route":"ORAL","start_dtc":"2024-05-03","end_dtc":"2024-05-03","visit":"WEEK 8"},{"seq":"57","trt":"GB001","dose":"40.0","doseu":null,"dosef":"QD","route":"ORAL","start_dtc":"2024-05-04","end_dtc":"2024-05-04","visit":"WEEK 8"},{"seq":"58","trt":"GB001","dose":"40.0","doseu":null,"dosef":"QD","route":"ORAL","start_dtc":"2024-05-05","end_dtc":"2024-05-05","visit":"WEEK 8"},{"seq":"59","trt":"GB001","dose":"40.0","doseu":null,"dosef":"QD","route":"ORAL","start_dtc":"2024-05-06","end_dtc":"2024-05-06","visit":"WEEK 8"},{"seq":"60","trt":"GB001","dose":"40.0","doseu":null,"dosef":"QD","route":"ORAL","start_dtc":"2024-05-07","end_dtc":"2024-05-07","visit":"WEEK 8"},{"seq":"61","trt":"GB001","dose":"40.0","doseu":null,"dosef":"QD","route":"ORAL","start_dtc":"2024-05-08","end_dtc":"2024-05-08","visit":null},{"seq":"62","trt":"GB001","dose":"40.0","doseu":null,"dosef":"QD","route":"ORAL","start_dtc":"2024-05-09","end_dtc":"2024-05-09","visit":null},{"seq":"63","trt":"GB001","dose":"40.0","doseu":null,"dosef":"QD","route":"ORAL","start_dtc":"2024-05-10","end_dtc":"2024-05-10","visit":null},{"seq":"64","trt":"GB001","dose":"40.0","doseu":null,"dosef":"QD","route":"ORAL","start_dtc":"2024-05-11","end_dtc":"2024-05-11","visit":null},{"seq":"65","trt":"GB001","dose":"40.0","doseu":null,"dosef":"QD","route":"ORAL","start_dtc":"2024-05-12","end_dtc":"2024-05-12","visit":null},{"seq":"66","trt":"GB001","dose":"40.0","doseu":null,"dosef":"QD","route":"ORAL","start_dtc":"2024-05-13","end_dtc":"2024-05-13","visit":null},{"seq":"67","trt":"GB001","dose":"40.0","doseu":null,"dosef":"QD","route":"ORAL","start_dtc":"2024-05-14","end_dtc":"2024-05-14","visit":null},{"seq":"68","trt":"GB001","dose":"40.0","doseu":null,"dosef":"QD","route":"ORAL","start_dtc":"2024-05-15","end_dtc":"2024-05-15","visit":null},{"seq":"69","trt":"GB001","dose":"40.0","doseu":null,"dosef":"QD","route":"ORAL","start_dtc":"2024-05-16","end_dtc":"2024-05-16","visit":null},{"seq":"70","trt":"GB001","dose":"20.0","doseu":null,"dosef":"QD","route":"ORAL","start_dtc":"2024-05-17","end_dtc":"2024-05-17","visit":null},{"seq":"71","trt":"GB001","dose":"20.0","doseu":null,"dosef":"QD","route":"ORAL","start_dtc":"2024-05-18","end_dtc":"2024-05-18","visit":null},{"seq":"72","trt":"GB001","dose":"20.0","doseu":null,"dosef":"QD","route":"ORAL","start_dtc":"2024-05-19","end_dtc":"2024-05-19","visit":null},{"seq":"73","trt":"GB001","dose":"20.0","doseu":null,"dosef":"QD","route":"ORAL","start_dtc":"2024-05-20","end_dtc":"2024-05-20","visit":null}]},"section_7_adverse_events":{"summary":{"total_aes":5,"serious_aes":0,"fatal_aes":0,"by_severity":{"MILD":2,"MODERATE":3},"by_soc":{"Respiratory, thoracic and mediastinal disorders":2,"Gastrointestinal disorders":1,"Infections and infestations":2}},"events":[{"seq":"1","term":"COUGH","decod":"Cough","llt":"Cough","hlt":"Coughing and associated symptoms","hlgt":"Respiratory tract signs and symptoms","soc":"Respiratory, thoracic and mediastinal disorders","bodsys":"Respiratory, thoracic and mediastinal disorders","severity":"MILD","serious":"N","causality":"UNLIKELY RELATED","action_taken":"DOSE NOT CHANGED","outcome":"RECOVERED/RESOLVED","fatal":"N","hospitalization":"N","life_threatening":"N","onset_dtc":"2024-03-15","end_dtc":"2024-03-26","onset_dy":"7","end_dy":"18","duration":null,"epoch":"TREATMENT","visit":null,"supplemental":{"AETRTEM":"Y"}},{"seq":"2","term":"ASTHMA","decod":"Asthma","llt":"Asthma","hlt":"Bronchospasm and obstruction","hlgt":"Lower respiratory tract conditions (excl obstruction and infection)","soc":"Respiratory, thoracic and mediastinal disorders","bodsys":"Respiratory, thoracic and mediastinal disorders","severity":"MODERATE","serious":"N","causality":"UNLIKELY RELATED","action_taken":"DOSE NOT CHANGED","outcome":"RECOVERED/RESOLVED","fatal":"N","hospitalization":"N","life_threatening":"N","onset_dtc":"2024-05-11","end_dtc":"2024-05-12","onset_dy":"64","end_dy":"65","duration":null,"epoch":"TREATMENT","visit":null,"supplemental":{"AETRTEM":"Y"}},{"seq":"3","term":"OROPHARYNGEAL PAIN","decod":"Oropharyngeal pain","llt":"Oropharyngeal pain","hlt":"Oral soft tissue conditions NEC","hlgt":"Oral soft tissue conditions","soc":"Gastrointestinal disorders","bodsys":"Gastrointestinal disorders","severity":"MODERATE","serious":"N","causality":"POSSIBLY RELATED","action_taken":"DOSE NOT CHANGED","outcome":"RECOVERED/RESOLVED","fatal":"N","hospitalization":"N","life_threatening":"N","onset_dtc":"2024-05-14","end_dtc":"2024-05-15","onset_dy":"67","end_dy":"68","duration":null,"epoch":"TREATMENT","visit":null,"supplemental":{"AETRTEM":"Y"}},{"seq":"4","term":"BRONCHITIS","decod":"Bronchitis","llt":"Bronchitis","hlt":"Lower respiratory tract and lung infections","hlgt":"Infections NEC","soc":"Infections and infestations","bodsys":"Infections and infestations","severity":"MODERATE","serious":"N","causality":"POSSIBLY RELATED","action_taken":"DOSE REDUCED","outcome":"RECOVERED/RESOLVED","fatal":"N","hospitalization":"N","life_threatening":"N","onset_dtc":"2024-05-17","end_dtc":"2024-05-18","onset_dy":"70","end_dy":"71","duration":null,"epoch":"TREATMENT","visit":null,"supplemental":{"AETRTEM":"Y"}},{"seq":"5","term":"NASOPHARYNGITIS","decod":"Nasopharyngitis","llt":"Nasopharyngitis","hlt":"Upper respiratory tract infections","hlgt":"Upper respiratory tract infections","soc":"Infections and infestations","bodsys":"Infections and infestations","severity":"MILD","serious":"N","causality":"RELATED","action_taken":"DOSE REDUCED","outcome":"RECOVERED/RESOLVED","fatal":"N","hospitalization":"N","life_threatening":"N","onset_dtc":"2024-05-24","end_dtc":"2024-05-27","onset_dy":"77","end_dy":"80","duration":null,"epoch":"TREATMENT","visit":null,"supplemental":{"AETRTEM":"Y"}}]},"section_8_laboratory_results":{"summary":{"total_records":42,"abnormal_count":10,"abnormal_pct":23.8},"shift_summary":[{"testcd":"ALT","baseline_value":50.0,"baseline_nrind":"NORMAL","worst_post_baseline_value":50.3,"worst_post_baseline_nrind":"NORMAL","worst_visit":"WEEK 2"},{"testcd":"AST","baseline_value":18.96,"baseline_nrind":"NORMAL","worst_post_baseline_value":18.85,"worst_post_baseline_nrind":"NORMAL","worst_visit":"WEEK 4"},{"testcd":"CREAT","baseline_value":60.05,"baseline_nrind":"NORMAL","worst_post_baseline_value":61.24,"worst_post_baseline_nrind":"NORMAL","worst_visit":"WEEK 2"},{"testcd":"GLUC","baseline_value":6.48,"baseline_nrind":"HIGH","worst_post_baseline_value":6.4,"worst_post_baseline_nrind":"HIGH","worst_visit":"WEEK 2"},{"testcd":"HGB","baseline_value":121.61,"baseline_nrind":"NORMAL","worst_post_baseline_value":121.45,"worst_post_baseline_nrind":"NORMAL","worst_visit":"BASELINE"},{"testcd":"PLAT","baseline_value":132.54,"baseline_nrind":"LOW","worst_post_baseline_value":154.23,"worst_post_baseline_nrind":"NORMAL","worst_visit":"FOLLOW-UP"},{"testcd":"WBC","baseline_value":6.36,"baseline_nrind":"NORMAL","worst_post_baseline_value":7.33,"worst_post_baseline_nrind":"NORMAL","worst_visit":"WEEK 2"}],"results":[{"seq":"1","testcd":"ALT","test":"Alanine Aminotransferase","cat":"CHEMISTRY","orres":"50.0","orresu":"U/L","stresc":"50.0","stresn":"50.0","stresu":"U/L","stnrlo":"7","stnrhi":"56","nrind":"NORMAL","fast":null,"dtc":"2024-01-21","dy":"-48","visit":"SCREENING","visitnum":"1.0","epoch":"SCREENING","spec":null,"method":null},{"seq":"2","testcd":"AST","test":"Aspartate Aminotransferase","cat":"CHEMISTRY","orres":"18.96","orresu":"U/L","stresc":"18.96","stresn":"18.96","stresu":"U/L","stnrlo":"10","stnrhi":"40","nrind":"NORMAL","fast":null,"dtc":"2024-01-21","dy":"-48","visit":"SCREENING","visitnum":"1.0","epoch":"SCREENING","spec":null,"method":null},{"seq":"3","testcd":"CREAT","test":"Creatinine","cat":"CHEMISTRY","orres":"60.05","orresu":"umol/L","stresc":"60.05","stresn":"60.05","stresu":"umol/L","stnrlo":"44","stnrhi":"80","nrind":"NORMAL","fast":null,"dtc":"2024-01-21","dy":"-48","visit":"SCREENING","visitnum":"1.0","epoch":"SCREENING","spec":null,"method":null},{"seq":"4","testcd":"GLUC","test":"Glucose","cat":"CHEMISTRY","orres":"6.48","orresu":"mmol/L","stresc":"6.48","stresn":"6.48","stresu":"mmol/L","stnrlo":"3.9","stnrhi":"5.6","nrind":"HIGH","fast":null,"dtc":"2024-01-21","dy":"-48","visit":"SCREENING","visitnum":"1.0","epoch":"SCREENING","spec":null,"method":null},{"seq":"5","testcd":"HGB","test":"Hemoglobin","cat":"HEMATOLOGY","orres":"121.61","orresu":"g/L","stresc":"121.61","stresn":"121.61","stresu":"g/L","stnrlo":"120","stnrhi":"155","nrind":"NORMAL","fast":null,"dtc":"2024-01-21","dy":"-48","visit":"SCREENING","visitnum":"1.0","epoch":"SCREENING","spec":null,"method":null},{"seq":"6","testcd":"PLAT","test":"Platelets","cat":"HEMATOLOGY","orres":"132.54","orresu":"10^9/L","stresc":"132.54","stresn":"132.54","stresu":"10^9/L","stnrlo":"150","stnrhi":"400","nrind":"LOW","fast":null,"dtc":"2024-01-21","dy":"-48","visit":"SCREENING","visitnum":"1.0","epoch":"SCREENING","spec":null,"method":null},{"seq":"7","testcd":"WBC","test":"Leukocytes","cat":"HEMATOLOGY","orres":"6.36","orresu":"10^9/L","stresc":"6.36","stresn":"6.36","stresu":"10^9/L","stnrlo":"4.0","stnrhi":"11.0","nrind":"NORMAL","fast":null,"dtc":"2024-01-21","dy":"-48","visit":"SCREENING","visitnum":"1.0","epoch":"SCREENING","spec":null,"method":null},{"seq":"8","testcd":"ALT","test":"Alanine Aminotransferase","cat":"CHEMISTRY","orres":"49.83","orresu":"U/L","stresc":"49.83","stresn":"49.83","stresu":"U/L","stnrlo":"7","stnrhi":"56","nrind":"NORMAL","fast":null,"dtc":"2024-03-09","dy":"1","visit":"BASELINE","visitnum":"2.0","epoch":"TREATMENT","spec":null,"method":null},{"seq":"9","testcd":"AST","test":"Aspartate Aminotransferase","cat":"CHEMISTRY","orres":"18.39","orresu":"U/L","stresc":"18.39","stresn":"18.39","stresu":"U/L","stnrlo":"10","stnrhi":"40","nrind":"NORMAL","fast":null,"dtc":"2024-03-09","dy":"1","visit":"BASELINE","visitnum":"2.0","epoch":"TREATMENT","spec":null,"method":null},{"seq":"10","testcd":"CREAT","test":"Creatinine","cat":"CHEMISTRY","orres":"61.22","orresu":"umol/L","stresc":"61.22","stresn":"61.22","stresu":"umol/L","stnrlo":"44","stnrhi":"80","nrind":"NORMAL","fast":null,"dtc":"2024-03-09","dy":"1","visit":"BASELINE","visitnum":"2.0","epoch":"TREATMENT","spec":null,"method":null},{"seq":"11","testcd":"GLUC","test":"Glucose","cat":"CHEMISTRY","orres":"6.36","orresu":"mmol/L","stresc":"6.36","stresn":"6.36","stresu":"mmol/L","stnrlo":"3.9","stnrhi":"5.6","nrind":"HIGH","fast":null,"dtc":"2024-03-09","dy":"1","visit":"BASELINE","visitnum":"2.0","epoch":"TREATMENT","spec":null,"method":null},{"seq":"12","testcd":"HGB","test":"Hemoglobin","cat":"HEMATOLOGY","orres":"121.45","orresu":"g/L","stresc":"121.45","stresn":"121.45","stresu":"g/L","stnrlo":"120","stnrhi":"155","nrind":"NORMAL","fast":null,"dtc":"2024-03-09","dy":"1","visit":"BASELINE","visitnum":"2.0","epoch":"TREATMENT","spec":null,"method":null},{"seq":"13","testcd":"PLAT","test":"Platelets","cat":"HEMATOLOGY","orres":"133.09","orresu":"10^9/L","stresc":"133.09","stresn":"133.09","stresu":"10^9/L","stnrlo":"150","stnrhi":"400","nrind":"LOW","fast":null,"dtc":"2024-03-09","dy":"1","visit":"BASELINE","visitnum":"2.0","epoch":"TREATMENT","spec":null,"method":null},{"seq":"14","testcd":"WBC","test":"Leukocytes","cat":"HEMATOLOGY","orres":"7.02","orresu":"10^9/L","stresc":"7.02","stresn":"7.02","stresu":"10^9/L","stnrlo":"4.0","stnrhi":"11.0","nrind":"NORMAL","fast":null,"dtc":"2024-03-09","dy":"1","visit":"BASELINE","visitnum":"2.0","epoch":"TREATMENT","spec":null,"method":null},{"seq":"15","testcd":"ALT","test":"Alanine Aminotransferase","cat":"CHEMISTRY","orres":"50.3","orresu":"U/L","stresc":"50.3","stresn":"50.3","stresu":"U/L","stnrlo":"7","stnrhi":"56","nrind":"NORMAL","fast":null,"dtc":"2024-03-25","dy":"17","visit":"WEEK 2","visitnum":"3.0","epoch":"TREATMENT","spec":null,"method":null},{"seq":"16","testcd":"AST","test":"Aspartate Aminotransferase","cat":"CHEMISTRY","orres":"18.06","orresu":"U/L","stresc":"18.06","stresn":"18.06","stresu":"U/L","stnrlo":"10","stnrhi":"40","nrind":"NORMAL","fast":null,"dtc":"2024-03-25","dy":"17","visit":"WEEK 2","visitnum":"3.0","epoch":"TREATMENT","spec":null,"method":null},{"seq":"17","testcd":"CREAT","test":"Creatinine","cat":"CHEMISTRY","orres":"61.24","orresu":"umol/L","stresc":"61.24","stresn":"61.24","stresu":"umol/L","stnrlo":"44","stnrhi":"80","nrind":"NORMAL","fast":null,"dtc":"2024-03-25","dy":"17","visit":"WEEK 2","visitnum":"3.0","epoch":"TREATMENT","spec":null,"method":null},{"seq":"18","testcd":"GLUC","test":"Glucose","cat":"CHEMISTRY","orres":"6.4","orresu":"mmol/L","stresc":"6.4","stresn":"6.4","stresu":"mmol/L","stnrlo":"3.9","stnrhi":"5.6","nrind":"HIGH","fast":null,"dtc":"2024-03-25","dy":"17","visit":"WEEK 2","visitnum":"3.0","epoch":"TREATMENT","spec":null,"method":null},{"seq":"19","testcd":"HGB","test":"Hemoglobin","cat":"HEMATOLOGY","orres":"123.37","orresu":"g/L","stresc":"123.37","stresn":"123.37","stresu":"g/L","stnrlo":"120","stnrhi":"155","nrind":"NORMAL","fast":null,"dtc":"2024-03-25","dy":"17","visit":"WEEK 2","visitnum":"3.0","epoch":"TREATMENT","spec":null,"method":null},{"seq":"20","testcd":"PLAT","test":"Platelets","cat":"HEMATOLOGY","orres":null,"orresu":null,"stresc":null,"stresn":null,"stresu":null,"stnrlo":null,"stnrhi":null,"nrind":null,"fast":null,"dtc":"2024-03-25","dy":"17","visit":"WEEK 2","visitnum":"3.0","epoch":"TREATMENT","spec":null,"method":null},{"seq":"21","testcd":"WBC","test":"Leukocytes","cat":"HEMATOLOGY","orres":"7.33","orresu":"10^9/L","stresc":"7.33","stresn":"7.33","stresu":"10^9/L","stnrlo":"4.0","stnrhi":"11.0","nrind":"NORMAL","fast":null,"dtc":"2024-03-25","dy":"17","visit":"WEEK 2","visitnum":"3.0","epoch":"TREATMENT","spec":null,"method":null},{"seq":"22","testcd":"ALT","test":"Alanine Aminotransferase","cat":"CHEMISTRY","orres":"49.96","orresu":"U/L","stresc":"49.96","stresn":"49.96","stresu":"U/L","stnrlo":"7","stnrhi":"56","nrind":"NORMAL","fast":null,"dtc":"2024-04-04","dy":"27","visit":"WEEK 4","visitnum":"4.0","epoch":"TREATMENT","spec":null,"method":null},{"seq":"23","testcd":"AST","test":"Aspartate Aminotransferase","cat":"CHEMISTRY","orres":"18.85","orresu":"U/L","stresc":"18.85","stresn":"18.85","stresu":"U/L","stnrlo":"10","stnrhi":"40","nrind":"NORMAL","fast":null,"dtc":"2024-04-04","dy":"27","visit":"WEEK 4","visitnum":"4.0","epoch":"TREATMENT","spec":null,"method":null},{"seq":"24","testcd":"CREAT","test":"Creatinine","cat":"CHEMISTRY","orres":"60.53","orresu":"umol/L","stresc":"60.53","stresn":"60.53","stresu":"umol/L","stnrlo":"44","stnrhi":"80","nrind":"NORMAL","fast":null,"dtc":"2024-04-04","dy":"27","visit":"WEEK 4","visitnum":"4.0","epoch":"TREATMENT","spec":null,"method":null},{"seq":"25","testcd":"GLUC","test":"Glucose","cat":"CHEMISTRY","orres":"6.2","orresu":"mmol/L","stresc":"6.2","stresn":"6.2","stresu":"mmol/L","stnrlo":"3.9","stnrhi":"5.6","nrind":"HIGH","fast":null,"dtc":"2024-04-04","dy":"27","visit":"WEEK 4","visitnum":"4.0","epoch":"TREATMENT","spec":null,"method":null},{"seq":"26","testcd":"HGB","test":"Hemoglobin","cat":"HEMATOLOGY","orres":"123.82","orresu":"g/L","stresc":"123.82","stresn":"123.82","stresu":"g/L","stnrlo":"120","stnrhi":"155","nrind":"NORMAL","fast":null,"dtc":"2024-04-04","dy":"27","visit":"WEEK 4","visitnum":"4.0","epoch":"TREATMENT","spec":null,"method":null},{"seq":"27","testcd":"PLAT","test":"Platelets","cat":"HEMATOLOGY","orres":"126.64","orresu":"10^9/L","stresc":"126.64","stresn":"126.64","stresu":"10^9/L","stnrlo":"150","stnrhi":"400","nrind":"LOW","fast":null,"dtc":"2024-04-04","dy":"27","visit":"WEEK 4","visitnum":"4.0","epoch":"TREATMENT","spec":null,"method":null},{"seq":"28","testcd":"WBC","test":"Leukocytes","cat":"HEMATOLOGY","orres":"7.15","orresu":"10^9/L","stresc":"7.15","stresn":"7.15","stresu":"10^9/L","stnrlo":"4.0","stnrhi":"11.0","nrind":"NORMAL","fast":null,"dtc":"2024-04-04","dy":"27","visit":"WEEK 4","visitnum":"4.0","epoch":"TREATMENT","spec":null,"method":null},{"seq":"29","testcd":"ALT","test":"Alanine Aminotransferase","cat":"CHEMISTRY","orres":"49.0","orresu":"U/L","stresc":"49.0","stresn":"49.0","stresu":"U/L","stnrlo":"7","stnrhi":"56","nrind":"NORMAL","fast":null,"dtc":"2024-05-07","dy":"60","visit":"WEEK 8","visitnum":"5.0","epoch":"TREATMENT","spec":null,"method":null},{"seq":"30","testcd":"AST","test":"Aspartate Aminotransferase","cat":"CHEMISTRY","orres":"17.34","orresu":"U/L","stresc":"17.34","stresn":"17.34","stresu":"U/L","stnrlo":"10","stnrhi":"40","nrind":"NORMAL","fast":null,"dtc":"2024-05-07","dy":"60","visit":"WEEK 8","visitnum":"5.0","epoch":"TREATMENT","spec":null,"method":null},{"seq":"31","testcd":"CREAT","test":"Creatinine","cat":"CHEMISTRY","orres":"59.74","orresu":"umol/L","stresc":"59.74","stresn":"59.74","stresu":"umol/L","stnrlo":"44","stnrhi":"80","nrind":"NORMAL","fast":null,"dtc":"2024-05-07","dy":"60","visit":"WEEK 8","visitnum":"5.0","epoch":"TREATMENT","spec":null,"method":null},{"seq":"32","testcd":"GLUC","test":"Glucose","cat":"CHEMISTRY","orres":"6.09","orresu":"mmol/L","stresc":"6.09","stresn":"6.09","stresu":"mmol/L","stnrlo":"3.9","stnrhi":"5.6","nrind":"HIGH","fast":null,"dtc":"2024-05-07","dy":"60","visit":"WEEK 8","visitnum":"5.0","epoch":"TREATMENT","spec":null,"method":null},{"seq":"33","testcd":"HGB","test":"Hemoglobin","cat":"HEMATOLOGY","orres":"124.88","orresu":"g/L","stresc":"124.88","stresn":"124.88","stresu":"g/L","stnrlo":"120","stnrhi":"155","nrind":"NORMAL","fast":null,"dtc":"2024-05-07","dy":"60","visit":"WEEK 8","visitnum":"5.0","epoch":"TREATMENT","spec":null,"method":null},{"seq":"34","testcd":"PLAT","test":"Platelets","cat":"HEMATOLOGY","orres":"132.5","orresu":"10^9/L","stresc":"132.5","stresn":"132.5","stresu":"10^9/L","stnrlo":"150","stnrhi":"400","nrind":"LOW","fast":null,"dtc":"2024-05-07","dy":"60","visit":"WEEK 8","visitnum":"5.0","epoch":"TREATMENT","spec":null,"method":null},{"seq":"35","testcd":"WBC","test":"Leukocytes","cat":"HEMATOLOGY","orres":"7.16","orresu":"10^9/L","stresc":"7.16","stresn":"7.16","stresu":"10^9/L","stnrlo":"4.0","stnrhi":"11.0","nrind":"NORMAL","fast":null,"dtc":"2024-05-07","dy":"60","visit":"WEEK 8","visitnum":"5.0","epoch":"TREATMENT","spec":null,"method":null},{"seq":"36","testcd":"ALT","test":"Alanine Aminotransferase","cat":"CHEMISTRY","orres":"48.83","orresu":"U/L","stresc":"48.83","stresn":"48.83","stresu":"U/L","stnrlo":"7","stnrhi":"56","nrind":"NORMAL","fast":null,"dtc":"2024-07-04","dy":"118","visit":"FOLLOW-UP","visitnum":"7.0","epoch":"FOLLOW-UP","spec":null,"method":null},{"seq":"37","testcd":"AST","test":"Aspartate Aminotransferase","cat":"CHEMISTRY","orres":"17.29","orresu":"U/L","stresc":"17.29","stresn":"17.29","stresu":"U/L","stnrlo":"10","stnrhi":"40","nrind":"NORMAL","fast":null,"dtc":"2024-07-04","dy":"118","visit":"FOLLOW-UP","visitnum":"7.0","epoch":"FOLLOW-UP","spec":null,"method":null},{"seq":"38","testcd":"CREAT","test":"Creatinine","cat":"CHEMISTRY","orres":"59.82","orresu":"umol/L","stresc":"59.82","stresn":"59.82","stresu":"umol/L","stnrlo":"44","stnrhi":"80","nrind":"NORMAL","fast":null,"dtc":"2024-07-04","dy":"118","visit":"FOLLOW-UP","visitnum":"7.0","epoch":"FOLLOW-UP","spec":null,"method":null},{"seq":"39","testcd":"GLUC","test":"Glucose","cat":"CHEMISTRY","orres":"6.33","orresu":"mmol/L","stresc":"6.33","stresn":"6.33","stresu":"mmol/L","stnrlo":"3.9","stnrhi":"5.6","nrind":"HIGH","fast":null,"dtc":"2024-07-04","dy":"118","visit":"FOLLOW-UP","visitnum":"7.0","epoch":"FOLLOW-UP","spec":null,"method":null},{"seq":"40","testcd":"HGB","test":"Hemoglobin","cat":"HEMATOLOGY","orres":"123.07","orresu":"g/L","stresc":"123.07","stresn":"123.07","stresu":"g/L","stnrlo":"120","stnrhi":"155","nrind":"NORMAL","fast":null,"dtc":"2024-07-04","dy":"118","visit":"FOLLOW-UP","visitnum":"7.0","epoch":"FOLLOW-UP","spec":null,"method":null},{"seq":"41","testcd":"PLAT","test":"Platelets","cat":"HEMATOLOGY","orres":"154.23","orresu":"10^9/L","stresc":"154.23","stresn":"154.23","stresu":"10^9/L","stnrlo":"150","stnrhi":"400","nrind":"NORMAL","fast":null,"dtc":"2024-07-04","dy":"118","visit":"FOLLOW-UP","visitnum":"7.0","epoch":"FOLLOW-UP","spec":null,"method":null},{"seq":"42","testcd":"WBC","test":"Leukocytes","cat":"HEMATOLOGY","orres":"7.29","orresu":"10^9/L","stresc":"7.29","stresn":"7.29","stresu":"10^9/L","stnrlo":"4.0","stnrhi":"11.0","nrind":"NORMAL","fast":null,"dtc":"2024-07-04","dy":"118","visit":"FOLLOW-UP","visitnum":"7.0","epoch":"FOLLOW-UP","spec":null,"method":null}]},"section_9_vital_signs":{"summary":{"total_records":40},"trends":{"BMI":[{"visit":"SCREENING","visitnum":"1.0","dtc":"2024-01-21","value":"36.1","unit":"kg/m2"},{"visit":"BASELINE","visitnum":"2.0","dtc":"2024-03-09","value":"35.6","unit":"kg/m2"},{"visit":"WEEK 2","visitnum":"3.0","dtc":"2024-03-25","value":"35.9","unit":"kg/m2"},{"visit":"WEEK 4","visitnum":"4.0","dtc":"2024-04-04","value":"34.1","unit":"kg/m2"},{"visit":"WEEK 12","visitnum":"6.0","dtc":"2024-06-02","value":"33.8","unit":"kg/m2"}],"DIABP":[{"visit":"SCREENING","visitnum":"1.0","dtc":"2024-01-21","value":"75.7","unit":"mmHg"},{"visit":"BASELINE","visitnum":"2.0","dtc":"2024-03-09","value":"76.0","unit":"mmHg"},{"visit":"WEEK 2","visitnum":"3.0","dtc":"2024-03-25","value":"75.7","unit":"mmHg"},{"visit":"WEEK 4","visitnum":"4.0","dtc":"2024-04-04","value":"75.2","unit":"mmHg"},{"visit":"WEEK 12","visitnum":"6.0","dtc":"2024-06-02","value":"76.9","unit":"mmHg"}],"HEIGHT":[{"visit":"SCREENING","visitnum":"1.0","dtc":"2024-01-21","value":"157.4","unit":"cm"},{"visit":"BASELINE","visitnum":"2.0","dtc":"2024-03-09","value":"157.0","unit":"cm"},{"visit":"WEEK 2","visitnum":"3.0","dtc":"2024-03-25","value":"156.6","unit":"cm"},{"visit":"WEEK 4","visitnum":"4.0","dtc":"2024-04-04","value":"156.4","unit":"cm"},{"visit":"WEEK 12","visitnum":"6.0","dtc":"2024-06-02","value":"155.9","unit":"cm"}],"PULSE":[{"visit":"SCREENING","visitnum":"1.0","dtc":"2024-01-21","value":"66.2","unit":"beats/min"},{"visit":"BASELINE","visitnum":"2.0","dtc":"2024-03-09","value":"66.2","unit":"beats/min"},{"visit":"WEEK 2","visitnum":"3.0","dtc":"2024-03-25","value":"67.9","unit":"beats/min"},{"visit":"WEEK 4","visitnum":"4.0","dtc":"2024-04-04","value":"71.2","unit":"beats/min"},{"visit":"WEEK 12","visitnum":"6.0","dtc":"2024-06-02","value":"64.2","unit":"beats/min"}],"RESP":[{"visit":"SCREENING","visitnum":"1.0","dtc":"2024-01-21","value":"16.6","unit":"breaths/min"},{"visit":"BASELINE","visitnum":"2.0","dtc":"2024-03-09","value":"17.3","unit":"breaths/min"},{"visit":"WEEK 2","visitnum":"3.0","dtc":"2024-03-25","value":"19.2","unit":"breaths/min"},{"visit":"WEEK 4","visitnum":"4.0","dtc":"2024-04-04","value":"18.0","unit":"breaths/min"},{"visit":"WEEK 12","visitnum":"6.0","dtc":"2024-06-02","value":"17.3","unit":"breaths/min"}],"SYSBP":[{"visit":"SCREENING","visitnum":"1.0","dtc":"2024-01-21","value":"92.7","unit":"mmHg"},{"visit":"BASELINE","visitnum":"2.0","dtc":"2024-03-09","value":"92.2","unit":"mmHg"},{"visit":"WEEK 2","visitnum":"3.0","dtc":"2024-03-25","value":"92.5","unit":"mmHg"},{"visit":"WEEK 4","visitnum":"4.0","dtc":"2024-04-04","value":"92.7","unit":"mmHg"},{"visit":"WEEK 12","visitnum":"6.0","dtc":"2024-06-02","value":"93.5","unit":"mmHg"}],"TEMP":[{"visit":"SCREENING","visitnum":"1.0","dtc":"2024-01-21","value":"37.0","unit":"C"},{"visit":"BASELINE","visitnum":"2.0","dtc":"2024-03-09","value":"37.1","unit":"C"},{"visit":"WEEK 2","visitnum":"3.0","dtc":"2024-03-25","value":"37.1","unit":"C"},{"visit":"WEEK 4","visitnum":"4.0","dtc":"2024-04-04","value":"37.0","unit":"C"},{"visit":"WEEK 12","visitnum":"6.0","dtc":"2024-06-02","value":"37.0","unit":"C"}],"WEIGHT":[{"visit":"SCREENING","visitnum":"1.0","dtc":"2024-01-21","value":"89.5","unit":"kg"},{"visit":"BASELINE","visitnum":"2.0","dtc":"2024-03-09","value":"87.8","unit":"kg"},{"visit":"WEEK 2","visitnum":"3.0","dtc":"2024-03-25","value":"88.0","unit":"kg"},{"visit":"WEEK 4","visitnum":"4.0","dtc":"2024-04-04","value":"83.3","unit":"kg"},{"visit":"WEEK 12","visitnum":"6.0","dtc":"2024-06-02","value":"82.1","unit":"kg"}]},"results":[{"seq":"1","testcd":"BMI","test":"BMI","cat":null,"orres":"36.1","orresu":"kg/m2","stresc":"36.1","stresn":"36.1","stresu":"kg/m2","stnrlo":null,"stnrhi":null,"nrind":null,"pos":null,"loc":null,"dtc":"2024-01-21","dy":"-48","visit":"SCREENING","visitnum":"1.0","epoch":"SCREENING"},{"seq":"2","testcd":"DIABP","test":"Diastolic Blood Pressure","cat":null,"orres":"75.7","orresu":"mmHg","stresc":"75.7","stresn":"75.7","stresu":"mmHg","stnrlo":null,"stnrhi":null,"nrind":null,"pos":null,"loc":null,"dtc":"2024-01-21","dy":"-48","visit":"SCREENING","visitnum":"1.0","epoch":"SCREENING"},{"seq":"3","testcd":"HEIGHT","test":"Height","cat":null,"orres":"157.4","orresu":"cm","stresc":"157.4","stresn":"157.4","stresu":"cm","stnrlo":null,"stnrhi":null,"nrind":null,"pos":null,"loc":null,"dtc":"2024-01-21","dy":"-48","visit":"SCREENING","visitnum":"1.0","epoch":"SCREENING"},{"seq":"4","testcd":"PULSE","test":"Pulse Rate","cat":null,"orres":"66.2","orresu":"beats/min","stresc":"66.2","stresn":"66.2","stresu":"beats/min","stnrlo":null,"stnrhi":null,"nrind":null,"pos":null,"loc":null,"dtc":"2024-01-21","dy":"-48","visit":"SCREENING","visitnum":"1.0","epoch":"SCREENING"},{"seq":"5","testcd":"RESP","test":"Respiratory Rate","cat":null,"orres":"16.6","orresu":"breaths/min","stresc":"16.6","stresn":"16.6","stresu":"breaths/min","stnrlo":null,"stnrhi":null,"nrind":null,"pos":null,"loc":null,"dtc":"2024-01-21","dy":"-48","visit":"SCREENING","visitnum":"1.0","epoch":"SCREENING"},{"seq":"6","testcd":"SYSBP","test":"Systolic Blood Pressure","cat":null,"orres":"92.7","orresu":"mmHg","stresc":"92.7","stresn":"92.7","stresu":"mmHg","stnrlo":null,"stnrhi":null,"nrind":null,"pos":null,"loc":null,"dtc":"2024-01-21","dy":"-48","visit":"SCREENING","visitnum":"1.0","epoch":"SCREENING"},{"seq":"7","testcd":"TEMP","test":"Temperature","cat":null,"orres":"37.0","orresu":"C","stresc":"37.0","stresn":"37.0","stresu":"C","stnrlo":null,"stnrhi":null,"nrind":null,"pos":null,"loc":null,"dtc":"2024-01-21","dy":"-48","visit":"SCREENING","visitnum":"1.0","epoch":"SCREENING"},{"seq":"8","testcd":"WEIGHT","test":"Weight","cat":null,"orres":"89.5","orresu":"kg","stresc":"89.5","stresn":"89.5","stresu":"kg","stnrlo":null,"stnrhi":null,"nrind":null,"pos":null,"loc":null,"dtc":"2024-01-21","dy":"-48","visit":"SCREENING","visitnum":"1.0","epoch":"SCREENING"},{"seq":"9","testcd":"BMI","test":"BMI","cat":null,"orres":"35.6","orresu":"kg/m2","stresc":"35.6","stresn":"35.6","stresu":"kg/m2","stnrlo":null,"stnrhi":null,"nrind":null,"pos":null,"loc":null,"dtc":"2024-03-09","dy":"1","visit":"BASELINE","visitnum":"2.0","epoch":"TREATMENT"},{"seq":"10","testcd":"DIABP","test":"Diastolic Blood Pressure","cat":null,"orres":"76.0","orresu":"mmHg","stresc":"76.0","stresn":"76.0","stresu":"mmHg","stnrlo":null,"stnrhi":null,"nrind":null,"pos":null,"loc":null,"dtc":"2024-03-09","dy":"1","visit":"BASELINE","visitnum":"2.0","epoch":"TREATMENT"},{"seq":"11","testcd":"HEIGHT","test":"Height","cat":null,"orres":"157.0","orresu":"cm","stresc":"157.0","stresn":"157.0","stresu":"cm","stnrlo":null,"stnrhi":null,"nrind":null,"pos":null,"loc":null,"dtc":"2024-03-09","dy":"1","visit":"BASELINE","visitnum":"2.0","epoch":"TREATMENT"},{"seq":"12","testcd":"PULSE","test":"Pulse Rate","cat":null,"orres":"66.2","orresu":"beats/min","stresc":"66.2","stresn":"66.2","stresu":"beats/min","stnrlo":null,"stnrhi":null,"nrind":null,"pos":null,"loc":null,"dtc":"2024-03-09","dy":"1","visit":"BASELINE","visitnum":"2.0","epoch":"TREATMENT"},{"seq":"13","testcd":"RESP","test":"Respiratory Rate","cat":null,"orres":"17.3","orresu":"breaths/min","stresc":"17.3","stresn":"17.3","stresu":"breaths/min","stnrlo":null,"stnrhi":null,"nrind":null,"pos":null,"loc":null,"dtc":"2024-03-09","dy":"1","visit":"BASELINE","visitnum":"2.0","epoch":"TREATMENT"},{"seq":"14","testcd":"SYSBP","test":"Systolic Blood Pressure","cat":null,"orres":"92.2","orresu":"mmHg","stresc":"92.2","stresn":"92.2","stresu":"mmHg","stnrlo":null,"stnrhi":null,"nrind":null,"pos":null,"loc":null,"dtc":"2024-03-09","dy":"1","visit":"BASELINE","visitnum":"2.0","epoch":"TREATMENT"},{"seq":"15","testcd":"TEMP","test":"Temperature","cat":null,"orres":"37.1","orresu":"C","stresc":"37.1","stresn":"37.1","stresu":"C","stnrlo":null,"stnrhi":null,"nrind":null,"pos":null,"loc":null,"dtc":"2024-03-09","dy":"1","visit":"BASELINE","visitnum":"2.0","epoch":"TREATMENT"},{"seq":"16","testcd":"WEIGHT","test":"Weight","cat":null,"orres":"87.8","orresu":"kg","stresc":"87.8","stresn":"87.8","stresu":"kg","stnrlo":null,"stnrhi":null,"nrind":null,"pos":null,"loc":null,"dtc":"2024-03-09","dy":"1","visit":"BASELINE","visitnum":"2.0","epoch":"TREATMENT"},{"seq":"17","testcd":"BMI","test":"BMI","cat":null,"orres":"35.9","orresu":"kg/m2","stresc":"35.9","stresn":"35.9","stresu":"kg/m2","stnrlo":null,"stnrhi":null,"nrind":null,"pos":null,"loc":null,"dtc":"2024-03-25","dy":"17","visit":"WEEK 2","visitnum":"3.0","epoch":"TREATMENT"},{"seq":"18","testcd":"DIABP","test":"Diastolic Blood Pressure","cat":null,"orres":"75.7","orresu":"mmHg","stresc":"75.7","stresn":"75.7","stresu":"mmHg","stnrlo":null,"stnrhi":null,"nrind":null,"pos":null,"loc":null,"dtc":"2024-03-25","dy":"17","visit":"WEEK 2","visitnum":"3.0","epoch":"TREATMENT"},{"seq":"19","testcd":"HEIGHT","test":"Height","cat":null,"orres":"156.6","orresu":"cm","stresc":"156.6","stresn":"156.6","stresu":"cm","stnrlo":null,"stnrhi":null,"nrind":null,"pos":null,"loc":null,"dtc":"2024-03-25","dy":"17","visit":"WEEK 2","visitnum":"3.0","epoch":"TREATMENT"},{"seq":"20","testcd":"PULSE","test":"Pulse Rate","cat":null,"orres":"67.9","orresu":"beats/min","stresc":"67.9","stresn":"67.9","stresu":"beats/min","stnrlo":null,"stnrhi":null,"nrind":null,"pos":null,"loc":null,"dtc":"2024-03-25","dy":"17","visit":"WEEK 2","visitnum":"3.0","epoch":"TREATMENT"},{"seq":"21","testcd":"RESP","test":"Respiratory Rate","cat":null,"orres":"19.2","orresu":"breaths/min","stresc":"19.2","stresn":"19.2","stresu":"breaths/min","stnrlo":null,"stnrhi":null,"nrind":null,"pos":null,"loc":null,"dtc":"2024-03-25","dy":"17","visit":"WEEK 2","visitnum":"3.0","epoch":"TREATMENT"},{"seq":"22","testcd":"SYSBP","test":"Systolic Blood Pressure","cat":null,"orres":"92.5","orresu":"mmHg","stresc":"92.5","stresn":"92.5","stresu":"mmHg","stnrlo":null,"stnrhi":null,"nrind":null,"pos":null,"loc":null,"dtc":"2024-03-25","dy":"17","visit":"WEEK 2","visitnum":"3.0","epoch":"TREATMENT"},{"seq":"23","testcd":"TEMP","test":"Temperature","cat":null,"orres":"37.1","orresu":"C","stresc":"37.1","stresn":"37.1","stresu":"C","stnrlo":null,"stnrhi":null,"nrind":null,"pos":null,"loc":null,"dtc":"2024-03-25","dy":"17","visit":"WEEK 2","visitnum":"3.0","epoch":"TREATMENT"},{"seq":"24","testcd":"WEIGHT","test":"Weight","cat":null,"orres":"88.0","orresu":"kg","stresc":"88.0","stresn":"88.0","stresu":"kg","stnrlo":null,"stnrhi":null,"nrind":null,"pos":null,"loc":null,"dtc":"2024-03-25","dy":"17","visit":"WEEK 2","visitnum":"3.0","epoch":"TREATMENT"},{"seq":"25","testcd":"BMI","test":"BMI","cat":null,"orres":"34.1","orresu":"kg/m2","stresc":"34.1","stresn":"34.1","stresu":"kg/m2","stnrlo":null,"stnrhi":null,"nrind":null,"pos":null,"loc":null,"dtc":"2024-04-04","dy":"27","visit":"WEEK 4","visitnum":"4.0","epoch":"TREATMENT"},{"seq":"26","testcd":"DIABP","test":"Diastolic Blood Pressure","cat":null,"orres":"75.2","orresu":"mmHg","stresc":"75.2","stresn":"75.2","stresu":"mmHg","stnrlo":null,"stnrhi":null,"nrind":null,"pos":null,"loc":null,"dtc":"2024-04-04","dy":"27","visit":"WEEK 4","visitnum":"4.0","epoch":"TREATMENT"},{"seq":"27","testcd":"HEIGHT","test":"Height","cat":null,"orres":"156.4","orresu":"cm","stresc":"156.4","stresn":"156.4","stresu":"cm","stnrlo":null,"stnrhi":null,"nrind":null,"pos":null,"loc":null,"dtc":"2024-04-04","dy":"27","visit":"WEEK 4","visitnum":"4.0","epoch":"TREATMENT"},{"seq":"28","testcd":"PULSE","test":"Pulse Rate","cat":null,"orres":"71.2","orresu":"beats/min","stresc":"71.2","stresn":"71.2","stresu":"beats/min","stnrlo":null,"stnrhi":null,"nrind":null,"pos":null,"loc":null,"dtc":"2024-04-04","dy":"27","visit":"WEEK 4","visitnum":"4.0","epoch":"TREATMENT"},{"seq":"29","testcd":"RESP","test":"Respiratory Rate","cat":null,"orres":"18.0","orresu":"breaths/min","stresc":"18.0","stresn":"18.0","stresu":"breaths/min","stnrlo":null,"stnrhi":null,"nrind":null,"pos":null,"loc":null,"dtc":"2024-04-04","dy":"27","visit":"WEEK 4","visitnum":"4.0","epoch":"TREATMENT"},{"seq":"30","testcd":"SYSBP","test":"Systolic Blood Pressure","cat":null,"orres":"92.7","orresu":"mmHg","stresc":"92.7","stresn":"92.7","stresu":"mmHg","stnrlo":null,"stnrhi":null,"nrind":null,"pos":null,"loc":null,"dtc":"2024-04-04","dy":"27","visit":"WEEK 4","visitnum":"4.0","epoch":"TREATMENT"},{"seq":"31","testcd":"TEMP","test":"Temperature","cat":null,"orres":"37.0","orresu":"C","stresc":"37.0","stresn":"37.0","stresu":"C","stnrlo":null,"stnrhi":null,"nrind":null,"pos":null,"loc":null,"dtc":"2024-04-04","dy":"27","visit":"WEEK 4","visitnum":"4.0","epoch":"TREATMENT"},{"seq":"32","testcd":"WEIGHT","test":"Weight","cat":null,"orres":"83.3","orresu":"kg","stresc":"83.3","stresn":"83.3","stresu":"kg","stnrlo":null,"stnrhi":null,"nrind":null,"pos":null,"loc":null,"dtc":"2024-04-04","dy":"27","visit":"WEEK 4","visitnum":"4.0","epoch":"TREATMENT"},{"seq":"33","testcd":"BMI","test":"BMI","cat":null,"orres":"33.8","orresu":"kg/m2","stresc":"33.8","stresn":"33.8","stresu":"kg/m2","stnrlo":null,"stnrhi":null,"nrind":null,"pos":null,"loc":null,"dtc":"2024-06-02","dy":"86","visit":"WEEK 12","visitnum":"6.0","epoch":"TREATMENT"},{"seq":"34","testcd":"DIABP","test":"Diastolic Blood Pressure","cat":null,"orres":"76.9","orresu":"mmHg","stresc":"76.9","stresn":"76.9","stresu":"mmHg","stnrlo":null,"stnrhi":null,"nrind":null,"pos":null,"loc":null,"dtc":"2024-06-02","dy":"86","visit":"WEEK 12","visitnum":"6.0","epoch":"TREATMENT"},{"seq":"35","testcd":"HEIGHT","test":"Height","cat":null,"orres":"155.9","orresu":"cm","stresc":"155.9","stresn":"155.9","stresu":"cm","stnrlo":null,"stnrhi":null,"nrind":null,"pos":null,"loc":null,"dtc":"2024-06-02","dy":"86","visit":"WEEK 12","visitnum":"6.0","epoch":"TREATMENT"},{"seq":"36","testcd":"PULSE","test":"Pulse Rate","cat":null,"orres":"64.2","orresu":"beats/min","stresc":"64.2","stresn":"64.2","stresu":"beats/min","stnrlo":null,"stnrhi":null,"nrind":null,"pos":null,"loc":null,"dtc":"2024-06-02","dy":"86","visit":"WEEK 12","visitnum":"6.0","epoch":"TREATMENT"},{"seq":"37","testcd":"RESP","test":"Respiratory Rate","cat":null,"orres":"17.3","orresu":"breaths/min","stresc":"17.3","stresn":"17.3","stresu":"breaths/min","stnrlo":null,"stnrhi":null,"nrind":null,"pos":null,"loc":null,"dtc":"2024-06-02","dy":"86","visit":"WEEK 12","visitnum":"6.0","epoch":"TREATMENT"},{"seq":"38","testcd":"SYSBP","test":"Systolic Blood Pressure","cat":null,"orres":"93.5","orresu":"mmHg","stresc":"93.5","stresn":"93.5","stresu":"mmHg","stnrlo":null,"stnrhi":null,"nrind":null,"pos":null,"loc":null,"dtc":"2024-06-02","dy":"86","visit":"WEEK 12","visitnum":"6.0","epoch":"TREATMENT"},{"seq":"39","testcd":"TEMP","test":"Temperature","cat":null,"orres":"37.0","orresu":"C","stresc":"37.0","stresn":"37.0","stresu":"C","stnrlo":null,"stnrhi":null,"nrind":null,"pos":null,"loc":null,"dtc":"2024-06-02","dy":"86","visit":"WEEK 12","visitnum":"6.0","epoch":"TREATMENT"},{"seq":"40","testcd":"WEIGHT","test":"Weight","cat":null,"orres":"82.1","orresu":"kg","stresc":"82.1","stresn":"82.1","stresu":"kg","stnrlo":null,"stnrhi":null,"nrind":null,"pos":null,"loc":null,"dtc":"2024-06-02","dy":"86","visit":"WEEK 12","visitnum":"6.0","epoch":"TREATMENT"}]},"section_10_questionnaires_and_scores":{"questionnaires":[],"findings_about":[]},"section_11_protocol_deviations":{"deviations":[{"seq":"1","term":"Visit WEEK 2 occurred 2 days late (Day 17 vs planned Day 15)","decod":"VISIT OCCURRED OUTSIDE VISIT WINDOW","cat":"MINOR","scat":"VISIT WINDOW","start_dtc":"2024-03-25","end_dtc":null,"visit":null},{"seq":"2","term":"Missed GB001 dose on 2024-03-28","decod":"MISSED DOSE","cat":"MINOR","scat":"DOSING","start_dtc":"2024-03-28","end_dtc":null,"visit":null},{"seq":"3","term":"Visit WEEK 4 occurred 2 days early (Day 27 vs planned Day 29)","decod":"VISIT OCCURRED OUTSIDE VISIT WINDOW","cat":"MINOR","scat":"VISIT WINDOW","start_dtc":"2024-04-04","end_dtc":null,"visit":null},{"seq":"4","term":"Missed GB001 dose on 2024-04-08","decod":"MISSED DOSE","cat":"MINOR","scat":"DOSING","start_dtc":"2024-04-08","end_dtc":null,"visit":null},{"seq":"5","term":"Missed GB001 dose on 2024-04-12","decod":"MISSED DOSE","cat":"MINOR","scat":"DOSING","start_dtc":"2024-04-12","end_dtc":null,"visit":null},{"seq":"6","term":"Missed GB001 dose on 2024-04-16","decod":"MISSED DOSE","cat":"MINOR","scat":"DOSING","start_dtc":"2024-04-16","end_dtc":null,"visit":null},{"seq":"7","term":"Missed GB001 dose on 2024-04-22","decod":"MISSED DOSE","cat":"MINOR","scat":"DOSING","start_dtc":"2024-04-22","end_dtc":null,"visit":null},{"seq":"8","term":"Missed GB001 dose on 2024-05-03","decod":"MISSED DOSE","cat":"MINOR","scat":"DOSING","start_dtc":"2024-05-03","end_dtc":null,"visit":null}],"total":8},"section_12_disposition":{"completion_status":"COMPLETED","disposition_records":[{"seq":"1","term":"INFORMED CONSENT OBTAINED","decod":"INFORMED CONSENT OBTAINED","cat":"PROTOCOL MILESTONE","scat":null,"dtc":"2024-02-27","dy":null,"visit":null,"epoch":"SCREENING"},{"seq":"2","term":"RANDOMIZED","decod":"RANDOMIZED","cat":"PROTOCOL MILESTONE","scat":null,"dtc":"2024-03-09","dy":null,"visit":null,"epoch":"TREATMENT"},{"seq":"3","term":"COMPLETED","decod":"COMPLETED","cat":"DISPOSITION EVENT","scat":null,"dtc":"2024-07-26","dy":null,"visit":null,"epoch":"FOLLOW-UP"}],"death":null},"section_13_hospitalizations":{"items":[],"total":0},"section_14_substance_use":{"items":[{"seq":"1","substance":"ALCOHOL","decod":"ALCOHOL","cat":"ALCOHOL","scat":null,"usage":"Y","dose":"13.0","dosu":"DRINKS/WEEK","freq":"QW","start_dtc":"2007-03-03","end_dtc":null},{"seq":"2","substance":"COFFEE","decod":"COFFEE","cat":"CAFFEINE","scat":null,"usage":"Y","dose":"4.0","dosu":"CUPS/DAY","freq":"QD","start_dtc":"2015-03-01","end_dtc":null},{"seq":"3","substance":"CIGARETTES","decod":"CIGARETTES","cat":"TOBACCO","scat":"CIGARETTES","usage":"Y","dose":null,"dosu":null,"freq":null,"start_dtc":"1999-03-05","end_dtc":"2005-03-03"}],"total":3},"section_15_subject_status":{"items":[{"seq":"1","testcd":"SURVSTAT","test":"Survival Status","orres":"ALIVE","stresc":"ALIVE","dtc":"2024-07-26","visit":"END OF STUDY","epoch":"FOLLOW-UP"}],"total":1}}