{"subject_id":"GB001-ASTHMA-201-SITE003-0450","study_id":"GB001-ASTHMA-201","generated_at":"2026-06-16T07:23:02.790599+00:00","sdtmig_version":"3.4","flags":{"has_serious_ae":true,"has_fatal_ae":false,"has_protocol_deviation":true,"n_protocol_deviations":5,"n_adverse_events":5,"n_concomitant_meds":4,"max_ae_severity":"SEVERE","screen_failure":false,"discontinued_early":false,"discontinuation_reason":null,"death":false,"exposure_days":47},"timeline":[{"dtc":"2024-01-15","dy":"-45","event":"VISIT: SCREENING","domain":"SV","category":"visit"},{"dtc":"2024-02-12","dy":"-17","event":"INFORMED CONSENT OBTAINED","domain":"DS","category":"milestone"},{"dtc":"2024-02-29","dy":"1","event":"RANDOMIZED","domain":"DS","category":"milestone"},{"dtc":"2024-02-29","dy":"1","event":"FIRST DOSE: GB001","domain":"EX","category":"exposure"},{"dtc":"2024-02-29","dy":"1","event":"VISIT: BASELINE","domain":"SV","category":"visit"},{"dtc":"2024-03-01","dy":"2","event":"DEVIATION: MISSED DOSE","domain":"DV","category":"deviation"},{"dtc":"2024-03-14","dy":"15","event":"VISIT: WEEK 2","domain":"SV","category":"visit"},{"dtc":"2024-03-24","dy":"25","event":"AE: Pneumonia (SEVERE) [SERIOUS]","domain":"AE","category":"adverse_event"},{"dtc":"2024-03-25","dy":"26","event":"VISIT: WEEK 4","domain":"SV","category":"visit"},{"dtc":"2024-03-26","dy":"27","event":"AE: Nasopharyngitis (MILD)","domain":"AE","category":"adverse_event"},{"dtc":"2024-03-26","dy":"27","event":"CM START: PARACETAMOL","domain":"CM","category":"concomitant_med"},{"dtc":"2024-03-27","dy":"28","event":"DEVIATION: MISSED DOSE","domain":"DV","category":"deviation"},{"dtc":"2024-03-29","dy":"30","event":"DEVIATION: MISSED DOSE","domain":"DV","category":"deviation"},{"dtc":"2024-03-31","dy":"32","event":"DEVIATION: MISSED DOSE","domain":"DV","category":"deviation"},{"dtc":"2024-04-24","dy":"56","event":"DEVIATION: VISIT OCCURRED OUTSIDE VISIT WINDOW","domain":"DV","category":"deviation"},{"dtc":"2024-04-24","dy":"56","event":"VISIT: WEEK 8","domain":"SV","category":"visit"},{"dtc":"2024-05-01","dy":"63","event":"CM START: IBUPROFEN","domain":"CM","category":"concomitant_med"},{"dtc":"2024-05-08","dy":"70","event":"AE: Nasopharyngitis (MODERATE)","domain":"AE","category":"adverse_event"},{"dtc":"2024-05-08","dy":"70","event":"AE: Sinusitis (MODERATE)","domain":"AE","category":"adverse_event"},{"dtc":"2024-05-08","dy":"70","event":"CM START: PARACETAMOL","domain":"CM","category":"concomitant_med"},{"dtc":"2024-05-08","dy":"70","event":"CM START: IBUPROFEN","domain":"CM","category":"concomitant_med"},{"dtc":"2024-05-11","dy":"73","event":"AE: Fatigue (MODERATE)","domain":"AE","category":"adverse_event"},{"dtc":"2024-05-20","dy":"82","event":"VISIT: WEEK 12","domain":"SV","category":"visit"},{"dtc":"2024-06-18","dy":"111","event":"VISIT: FOLLOW-UP","domain":"SV","category":"visit"},{"dtc":"2024-07-17","dy":"140","event":"COMPLETED","domain":"DS","category":"milestone"}],"section_1_demographics":{"usubjid":"GB001-ASTHMA-201-SITE003-0450","subjid":"0450","siteid":"SITE003","age":"56","ageu":"YEARS","sex":"F","race":"WHITE","ethnicity":"NOT HISPANIC OR LATINO","country":"USA","arm":"GB001 40mg QD","armcd":"GB40","actarm":"GB001 40mg QD","actarmcd":"GB40","randomization_date":null,"informed_consent_date":"2024-02-12","reference_start_date":"2024-02-29","reference_end_date":"2024-07-17","screen_failure":false,"death_flag":null,"death_date":null,"subject_characteristics":[{"testcd":"ALCUSE","test":"Alcohol Use","orres":"CURRENT DRINKER","stresc":"CURRENT DRINKER","visit":null,"dtc":"2024-02-12"},{"testcd":"BMI","test":"Body Mass Index","orres":"18.5","stresc":"18.5","visit":null,"dtc":"2024-02-12"},{"testcd":"TOBPKYR","test":"Tobacco Pack-Years","orres":"34","stresc":"34","visit":null,"dtc":"2024-02-12"},{"testcd":"TOBUSE","test":"Tobacco Use","orres":"FORMER SMOKER","stresc":"FORMER SMOKER","visit":null,"dtc":"2024-02-12"}]},"section_2_medical_history":{"items":[]},"section_3_inclusion_exclusion":{"criteria":[]},"section_4_trial_participation":{"visits":[{"visitnum":"1.0","visit":"SCREENING","start_dtc":"2024-01-15","end_dtc":"2024-01-15","updes":null},{"visitnum":"2.0","visit":"BASELINE","start_dtc":"2024-02-29","end_dtc":"2024-02-29","updes":null},{"visitnum":"3.0","visit":"WEEK 2","start_dtc":"2024-03-14","end_dtc":"2024-03-14","updes":null},{"visitnum":"4.0","visit":"WEEK 4","start_dtc":"2024-03-25","end_dtc":"2024-03-25","updes":null},{"visitnum":"5.0","visit":"WEEK 8","start_dtc":"2024-04-24","end_dtc":"2024-04-24","updes":null},{"visitnum":"6.0","visit":"WEEK 12","start_dtc":"2024-05-20","end_dtc":"2024-05-20","updes":null},{"visitnum":"7.0","visit":"FOLLOW-UP","start_dtc":"2024-06-18","end_dtc":"2024-06-18","updes":null}],"epochs":[{"seq":"1","etcd":"SCRN","element":"Screening","start_dtc":"2024-02-01","end_dtc":"2024-02-29","updes":null},{"seq":"2","etcd":"TRT","element":"Treatment","start_dtc":"2024-02-29","end_dtc":"2024-05-23","updes":null},{"seq":"3","etcd":"FU","element":"Follow-up","start_dtc":"2024-05-23","end_dtc":"2024-06-19","updes":null}],"visit_count":7},"section_5_concomitant_medications":{"medications":[{"seq":"1","trt":"PARACETAMOL","decod":"PARACETAMOL","cat":"CONCOMITANT","dose":"500","doseu":null,"dosef":"PRN","route":"ORAL","indication":"NASOPHARYNGITIS","start_dtc":"2024-03-26","end_dtc":"2024-04-03","ongoing":null,"visit":null},{"seq":"2","trt":"IBUPROFEN","decod":"IBUPROFEN","cat":"CONCOMITANT","dose":null,"doseu":null,"dosef":"PRN","route":"ORAL","indication":null,"start_dtc":"2024-05-01","end_dtc":"2024-07-17","ongoing":null,"visit":null},{"seq":"3","trt":"PARACETAMOL","decod":"PARACETAMOL","cat":"CONCOMITANT","dose":"500","doseu":null,"dosef":"PRN","route":"ORAL","indication":"NASOPHARYNGITIS","start_dtc":"2024-05-08","end_dtc":"2024-06-04","ongoing":null,"visit":null},{"seq":"4","trt":"IBUPROFEN","decod":"IBUPROFEN","cat":"CONCOMITANT","dose":"400","doseu":null,"dosef":"PRN","route":"ORAL","indication":"SINUSITIS","start_dtc":"2024-05-08","end_dtc":"2024-05-29","ongoing":null,"visit":null}]},"section_6_exposure":{"exposure_as_administered":[{"seq":"1","trt":"GB001","dose":"40.0","doseu":null,"dosef":"QD","route":"ORAL","lot":null,"start_dtc":"2024-02-29","end_dtc":"2024-04-16","start_dy":"1","end_dy":"48","epoch":"TREATMENT","visit":null}],"exposure_as_collected":[{"seq":"1","trt":"GB001","dose":"40.0","doseu":null,"dosef":"QD","route":"ORAL","start_dtc":"2024-02-29","end_dtc":"2024-02-29","visit":"BASELINE"},{"seq":"2","trt":"GB001","dose":null,"doseu":null,"dosef":"QD","route":"ORAL","start_dtc":"2024-03-01","end_dtc":"2024-03-01","visit":"BASELINE"},{"seq":"3","trt":"GB001","dose":"40.0","doseu":null,"dosef":"QD","route":"ORAL","start_dtc":"2024-03-02","end_dtc":"2024-03-02","visit":"BASELINE"},{"seq":"4","trt":"GB001","dose":"40.0","doseu":null,"dosef":"QD","route":"ORAL","start_dtc":"2024-03-03","end_dtc":"2024-03-03","visit":"BASELINE"},{"seq":"5","trt":"GB001","dose":"40.0","doseu":null,"dosef":"QD","route":"ORAL","start_dtc":"2024-03-04","end_dtc":"2024-03-04","visit":null},{"seq":"6","trt":"GB001","dose":"40.0","doseu":null,"dosef":"QD","route":"ORAL","start_dtc":"2024-03-05","end_dtc":"2024-03-05","visit":null},{"seq":"7","trt":"GB001","dose":"40.0","doseu":null,"dosef":"QD","route":"ORAL","start_dtc":"2024-03-06","end_dtc":"2024-03-06","visit":null},{"seq":"8","trt":"GB001","dose":"40.0","doseu":null,"dosef":"QD","route":"ORAL","start_dtc":"2024-03-07","end_dtc":"2024-03-07","visit":null},{"seq":"9","trt":"GB001","dose":"40.0","doseu":null,"dosef":"QD","route":"ORAL","start_dtc":"2024-03-08","end_dtc":"2024-03-08","visit":null},{"seq":"10","trt":"GB001","dose":"40.0","doseu":null,"dosef":"QD","route":"ORAL","start_dtc":"2024-03-09","end_dtc":"2024-03-09","visit":null},{"seq":"11","trt":"GB001","dose":"40.0","doseu":null,"dosef":"QD","route":"ORAL","start_dtc":"2024-03-10","end_dtc":"2024-03-10","visit":null},{"seq":"12","trt":"GB001","dose":"40.0","doseu":null,"dosef":"QD","route":"ORAL","start_dtc":"2024-03-11","end_dtc":"2024-03-11","visit":"WEEK 2"},{"seq":"13","trt":"GB001","dose":"40.0","doseu":null,"dosef":"QD","route":"ORAL","start_dtc":"2024-03-12","end_dtc":"2024-03-12","visit":"WEEK 2"},{"seq":"14","trt":"GB001","dose":"40.0","doseu":null,"dosef":"QD","route":"ORAL","start_dtc":"2024-03-13","end_dtc":"2024-03-13","visit":"WEEK 2"},{"seq":"15","trt":"GB001","dose":"40.0","doseu":null,"dosef":"QD","route":"ORAL","start_dtc":"2024-03-14","end_dtc":"2024-03-14","visit":"WEEK 2"},{"seq":"16","trt":"GB001","dose":"40.0","doseu":null,"dosef":"QD","route":"ORAL","start_dtc":"2024-03-15","end_dtc":"2024-03-15","visit":"WEEK 2"},{"seq":"17","trt":"GB001","dose":"40.0","doseu":null,"dosef":"QD","route":"ORAL","start_dtc":"2024-03-16","end_dtc":"2024-03-16","visit":"WEEK 2"},{"seq":"18","trt":"GB001","dose":"40.0","doseu":null,"dosef":"QD","route":"ORAL","start_dtc":"2024-03-17","end_dtc":"2024-03-17","visit":"WEEK 2"},{"seq":"19","trt":"GB001","dose":"40.0","doseu":null,"dosef":"QD","route":"ORAL","start_dtc":"2024-03-18","end_dtc":"2024-03-18","visit":null},{"seq":"20","trt":"GB001","dose":"40.0","doseu":null,"dosef":"QD","route":"ORAL","start_dtc":"2024-03-19","end_dtc":"2024-03-19","visit":null},{"seq":"21","trt":"GB001","dose":"40.0","doseu":null,"dosef":"QD","route":"ORAL","start_dtc":"2024-03-20","end_dtc":"2024-03-20","visit":null},{"seq":"22","trt":"GB001","dose":"40.0","doseu":null,"dosef":"QD","route":"ORAL","start_dtc":"2024-03-21","end_dtc":"2024-03-21","visit":null},{"seq":"23","trt":"GB001","dose":"40.0","doseu":null,"dosef":"QD","route":"ORAL","start_dtc":"2024-03-22","end_dtc":"2024-03-22","visit":null},{"seq":"24","trt":"GB001","dose":"40.0","doseu":null,"dosef":"QD","route":"ORAL","start_dtc":"2024-03-23","end_dtc":"2024-03-23","visit":null},{"seq":"25","trt":"GB001","dose":"40.0","doseu":null,"dosef":"QD","route":"ORAL","start_dtc":"2024-03-24","end_dtc":"2024-03-24","visit":null},{"seq":"26","trt":"GB001","dose":"40.0","doseu":null,"dosef":"QD","route":"ORAL","start_dtc":"2024-03-25","end_dtc":"2024-03-25","visit":"WEEK 4"},{"seq":"27","trt":"GB001","dose":"40.0","doseu":null,"dosef":"QD","route":"ORAL","start_dtc":"2024-03-26","end_dtc":"2024-03-26","visit":"WEEK 4"},{"seq":"28","trt":"GB001","dose":null,"doseu":null,"dosef":"QD","route":"ORAL","start_dtc":"2024-03-27","end_dtc":"2024-03-27","visit":"WEEK 4"},{"seq":"29","trt":"GB001","dose":"40.0","doseu":null,"dosef":"QD","route":"ORAL","start_dtc":"2024-03-28","end_dtc":"2024-03-28","visit":"WEEK 4"},{"seq":"30","trt":"GB001","dose":null,"doseu":null,"dosef":"QD","route":"ORAL","start_dtc":"2024-03-29","end_dtc":"2024-03-29","visit":"WEEK 4"},{"seq":"31","trt":"GB001","dose":"40.0","doseu":null,"dosef":"QD","route":"ORAL","start_dtc":"2024-03-30","end_dtc":"2024-03-30","visit":"WEEK 4"},{"seq":"32","trt":"GB001","dose":null,"doseu":null,"dosef":"QD","route":"ORAL","start_dtc":"2024-03-31","end_dtc":"2024-03-31","visit":"WEEK 4"},{"seq":"33","trt":"GB001","dose":"40.0","doseu":null,"dosef":"QD","route":"ORAL","start_dtc":"2024-04-01","end_dtc":"2024-04-01","visit":null},{"seq":"34","trt":"GB001","dose":"40.0","doseu":null,"dosef":"QD","route":"ORAL","start_dtc":"2024-04-02","end_dtc":"2024-04-02","visit":null},{"seq":"35","trt":"GB001","dose":"40.0","doseu":null,"dosef":"QD","route":"ORAL","start_dtc":"2024-04-03","end_dtc":"2024-04-03","visit":null},{"seq":"36","trt":"GB001","dose":"40.0","doseu":null,"dosef":"QD","route":"ORAL","start_dtc":"2024-04-04","end_dtc":"2024-04-04","visit":null},{"seq":"37","trt":"GB001","dose":"40.0","doseu":null,"dosef":"QD","route":"ORAL","start_dtc":"2024-04-05","end_dtc":"2024-04-05","visit":null},{"seq":"38","trt":"GB001","dose":"40.0","doseu":null,"dosef":"QD","route":"ORAL","start_dtc":"2024-04-06","end_dtc":"2024-04-06","visit":null},{"seq":"39","trt":"GB001","dose":"40.0","doseu":null,"dosef":"QD","route":"ORAL","start_dtc":"2024-04-07","end_dtc":"2024-04-07","visit":null},{"seq":"40","trt":"GB001","dose":"40.0","doseu":null,"dosef":"QD","route":"ORAL","start_dtc":"2024-04-08","end_dtc":"2024-04-08","visit":null},{"seq":"41","trt":"GB001","dose":"40.0","doseu":null,"dosef":"QD","route":"ORAL","start_dtc":"2024-04-09","end_dtc":"2024-04-09","visit":null},{"seq":"42","trt":"GB001","dose":"40.0","doseu":null,"dosef":"QD","route":"ORAL","start_dtc":"2024-04-10","end_dtc":"2024-04-10","visit":null},{"seq":"43","trt":"GB001","dose":"40.0","doseu":null,"dosef":"QD","route":"ORAL","start_dtc":"2024-04-11","end_dtc":"2024-04-11","visit":null},{"seq":"44","trt":"GB001","dose":"40.0","doseu":null,"dosef":"QD","route":"ORAL","start_dtc":"2024-04-12","end_dtc":"2024-04-12","visit":null},{"seq":"45","trt":"GB001","dose":"40.0","doseu":null,"dosef":"QD","route":"ORAL","start_dtc":"2024-04-13","end_dtc":"2024-04-13","visit":null},{"seq":"46","trt":"GB001","dose":"40.0","doseu":null,"dosef":"QD","route":"ORAL","start_dtc":"2024-04-14","end_dtc":"2024-04-14","visit":null},{"seq":"47","trt":"GB001","dose":"40.0","doseu":null,"dosef":"QD","route":"ORAL","start_dtc":"2024-04-15","end_dtc":"2024-04-15","visit":null},{"seq":"48","trt":"GB001","dose":"40.0","doseu":null,"dosef":"QD","route":"ORAL","start_dtc":"2024-04-16","end_dtc":"2024-04-16","visit":null}]},"section_7_adverse_events":{"summary":{"total_aes":5,"serious_aes":1,"fatal_aes":0,"by_severity":{"SEVERE":1,"MILD":1,"MODERATE":3},"by_soc":{"Infections and infestations":4,"General disorders and administration site conditions":1}},"events":[{"seq":"1","term":"PNEUMONIA","decod":"Pneumonia","llt":"Pneumonia","hlt":"Lower respiratory and lung infections","hlgt":"Infections NEC","soc":"Infections and infestations","bodsys":"Infections and infestations","severity":"SEVERE","serious":"Y","causality":"UNLIKELY RELATED","action_taken":"DOSE NOT CHANGED","outcome":"RECOVERED/RESOLVED","fatal":"N","hospitalization":"Y","life_threatening":"N","onset_dtc":"2024-03-24","end_dtc":"2024-04-24","onset_dy":"25","end_dy":"56","duration":null,"epoch":"TREATMENT","visit":null,"supplemental":{"AETRTEM":"Y"}},{"seq":"2","term":"NASOPHARYNGITIS","decod":"Nasopharyngitis","llt":"Nasopharyngitis","hlt":"Upper respiratory tract infections","hlgt":"Upper respiratory tract infections","soc":"Infections and infestations","bodsys":"Infections and infestations","severity":"MILD","serious":"N","causality":"NOT RELATED","action_taken":"DOSE NOT CHANGED","outcome":"NOT RECOVERED/NOT RESOLVED","fatal":"N","hospitalization":"N","life_threatening":"N","onset_dtc":"2024-03-26","end_dtc":null,"onset_dy":"27","end_dy":null,"duration":null,"epoch":"TREATMENT","visit":null,"supplemental":{"AETRTEM":"Y"}},{"seq":"3","term":"NASOPHARYNGITIS","decod":"Nasopharyngitis","llt":"Nasopharyngitis","hlt":"Upper respiratory tract infections","hlgt":"Upper respiratory tract infections","soc":"Infections and infestations","bodsys":"Infections and infestations","severity":"MODERATE","serious":"N","causality":"NOT RELATED","action_taken":"DOSE NOT CHANGED","outcome":"RECOVERED/RESOLVED","fatal":"N","hospitalization":"N","life_threatening":"N","onset_dtc":"2024-05-08","end_dtc":"2024-06-04","onset_dy":"70","end_dy":"97","duration":null,"epoch":"TREATMENT","visit":null,"supplemental":{"AETRTEM":"Y"}},{"seq":"4","term":"SINUSITIS","decod":"Sinusitis","llt":"Sinusitis","hlt":"Upper respiratory tract infections","hlgt":"Upper respiratory tract infections","soc":"Infections and infestations","bodsys":"Infections and infestations","severity":"MODERATE","serious":"N","causality":"NOT RELATED","action_taken":"DOSE NOT CHANGED","outcome":"RECOVERING/RESOLVING","fatal":"N","hospitalization":"N","life_threatening":"N","onset_dtc":"2024-05-08","end_dtc":"2024-05-24","onset_dy":"70","end_dy":"86","duration":null,"epoch":"TREATMENT","visit":null,"supplemental":{"AETRTEM":"Y"}},{"seq":"5","term":"FATIGUE","decod":"Fatigue","llt":"Fatigue","hlt":"Asthenic conditions","hlgt":"General system disorders NEC","soc":"General disorders and administration site conditions","bodsys":"General disorders and administration site conditions","severity":"MODERATE","serious":"N","causality":"RELATED","action_taken":"DRUG INTERRUPTED","outcome":"RECOVERED/RESOLVED","fatal":"N","hospitalization":"N","life_threatening":"N","onset_dtc":"2024-05-11","end_dtc":"2024-06-04","onset_dy":"73","end_dy":"97","duration":null,"epoch":"TREATMENT","visit":null,"supplemental":{"AETRTEM":"Y"}}]},"section_8_laboratory_results":{"summary":{"total_records":35,"abnormal_count":0,"abnormal_pct":0.0},"shift_summary":[{"testcd":"ALT","baseline_value":22.93,"baseline_nrind":"NORMAL","worst_post_baseline_value":23.96,"worst_post_baseline_nrind":"NORMAL","worst_visit":"BASELINE"},{"testcd":"AST","baseline_value":28.88,"baseline_nrind":"NORMAL","worst_post_baseline_value":27.45,"worst_post_baseline_nrind":"NORMAL","worst_visit":"WEEK 4"},{"testcd":"CREAT","baseline_value":68.47,"baseline_nrind":"NORMAL","worst_post_baseline_value":67.69,"worst_post_baseline_nrind":"NORMAL","worst_visit":"WEEK 8"},{"testcd":"GLUC","baseline_value":5.01,"baseline_nrind":"NORMAL","worst_post_baseline_value":5.08,"worst_post_baseline_nrind":"NORMAL","worst_visit":"WEEK 4"},{"testcd":"HGB","baseline_value":151.87,"baseline_nrind":"NORMAL","worst_post_baseline_value":149.75,"worst_post_baseline_nrind":"NORMAL","worst_visit":"WEEK 4"},{"testcd":"PLAT","baseline_value":237.04,"baseline_nrind":"NORMAL","worst_post_baseline_value":255.14,"worst_post_baseline_nrind":"NORMAL","worst_visit":"FOLLOW-UP"},{"testcd":"WBC","baseline_value":8.95,"baseline_nrind":"NORMAL","worst_post_baseline_value":8.67,"worst_post_baseline_nrind":"NORMAL","worst_visit":"FOLLOW-UP"}],"results":[{"seq":"1","testcd":"ALT","test":"Alanine Aminotransferase","cat":"CHEMISTRY","orres":"22.93","orresu":"U/L","stresc":"22.93","stresn":"22.93","stresu":"U/L","stnrlo":"7","stnrhi":"56","nrind":"NORMAL","fast":null,"dtc":"2024-01-15","dy":"-45","visit":"SCREENING","visitnum":"1.0","epoch":"SCREENING","spec":null,"method":null},{"seq":"2","testcd":"AST","test":"Aspartate Aminotransferase","cat":"CHEMISTRY","orres":"28.88","orresu":"U/L","stresc":"28.88","stresn":"28.88","stresu":"U/L","stnrlo":"10","stnrhi":"40","nrind":"NORMAL","fast":null,"dtc":"2024-01-15","dy":"-45","visit":"SCREENING","visitnum":"1.0","epoch":"SCREENING","spec":null,"method":null},{"seq":"3","testcd":"CREAT","test":"Creatinine","cat":"CHEMISTRY","orres":"68.47","orresu":"umol/L","stresc":"68.47","stresn":"68.47","stresu":"umol/L","stnrlo":"44","stnrhi":"80","nrind":"NORMAL","fast":null,"dtc":"2024-01-15","dy":"-45","visit":"SCREENING","visitnum":"1.0","epoch":"SCREENING","spec":null,"method":null},{"seq":"4","testcd":"GLUC","test":"Glucose","cat":"CHEMISTRY","orres":"5.01","orresu":"mmol/L","stresc":"5.01","stresn":"5.01","stresu":"mmol/L","stnrlo":"3.9","stnrhi":"5.6","nrind":"NORMAL","fast":null,"dtc":"2024-01-15","dy":"-45","visit":"SCREENING","visitnum":"1.0","epoch":"SCREENING","spec":null,"method":null},{"seq":"5","testcd":"HGB","test":"Hemoglobin","cat":"HEMATOLOGY","orres":"151.87","orresu":"g/L","stresc":"151.87","stresn":"151.87","stresu":"g/L","stnrlo":"120","stnrhi":"155","nrind":"NORMAL","fast":null,"dtc":"2024-01-15","dy":"-45","visit":"SCREENING","visitnum":"1.0","epoch":"SCREENING","spec":null,"method":null},{"seq":"6","testcd":"PLAT","test":"Platelets","cat":"HEMATOLOGY","orres":"237.04","orresu":"10^9/L","stresc":"237.04","stresn":"237.04","stresu":"10^9/L","stnrlo":"150","stnrhi":"400","nrind":"NORMAL","fast":null,"dtc":"2024-01-15","dy":"-45","visit":"SCREENING","visitnum":"1.0","epoch":"SCREENING","spec":null,"method":null},{"seq":"7","testcd":"WBC","test":"Leukocytes","cat":"HEMATOLOGY","orres":"8.95","orresu":"10^9/L","stresc":"8.95","stresn":"8.95","stresu":"10^9/L","stnrlo":"4.0","stnrhi":"11.0","nrind":"NORMAL","fast":null,"dtc":"2024-01-15","dy":"-45","visit":"SCREENING","visitnum":"1.0","epoch":"SCREENING","spec":null,"method":null},{"seq":"8","testcd":"ALT","test":"Alanine Aminotransferase","cat":"CHEMISTRY","orres":"23.96","orresu":"U/L","stresc":"23.96","stresn":"23.96","stresu":"U/L","stnrlo":"7","stnrhi":"56","nrind":"NORMAL","fast":null,"dtc":"2024-02-29","dy":"1","visit":"BASELINE","visitnum":"2.0","epoch":"TREATMENT","spec":null,"method":null},{"seq":"9","testcd":"AST","test":"Aspartate Aminotransferase","cat":"CHEMISTRY","orres":"27.26","orresu":"U/L","stresc":"27.26","stresn":"27.26","stresu":"U/L","stnrlo":"10","stnrhi":"40","nrind":"NORMAL","fast":null,"dtc":"2024-02-29","dy":"1","visit":"BASELINE","visitnum":"2.0","epoch":"TREATMENT","spec":null,"method":null},{"seq":"10","testcd":"CREAT","test":"Creatinine","cat":"CHEMISTRY","orres":"66.4","orresu":"umol/L","stresc":"66.4","stresn":"66.4","stresu":"umol/L","stnrlo":"44","stnrhi":"80","nrind":"NORMAL","fast":null,"dtc":"2024-02-29","dy":"1","visit":"BASELINE","visitnum":"2.0","epoch":"TREATMENT","spec":null,"method":null},{"seq":"11","testcd":"GLUC","test":"Glucose","cat":"CHEMISTRY","orres":"5.07","orresu":"mmol/L","stresc":"5.07","stresn":"5.07","stresu":"mmol/L","stnrlo":"3.9","stnrhi":"5.6","nrind":"NORMAL","fast":null,"dtc":"2024-02-29","dy":"1","visit":"BASELINE","visitnum":"2.0","epoch":"TREATMENT","spec":null,"method":null},{"seq":"12","testcd":"HGB","test":"Hemoglobin","cat":"HEMATOLOGY","orres":"151.57","orresu":"g/L","stresc":"151.57","stresn":"151.57","stresu":"g/L","stnrlo":"120","stnrhi":"155","nrind":"NORMAL","fast":null,"dtc":"2024-02-29","dy":"1","visit":"BASELINE","visitnum":"2.0","epoch":"TREATMENT","spec":null,"method":null},{"seq":"13","testcd":"PLAT","test":"Platelets","cat":"HEMATOLOGY","orres":"236.91","orresu":"10^9/L","stresc":"236.91","stresn":"236.91","stresu":"10^9/L","stnrlo":"150","stnrhi":"400","nrind":"NORMAL","fast":null,"dtc":"2024-02-29","dy":"1","visit":"BASELINE","visitnum":"2.0","epoch":"TREATMENT","spec":null,"method":null},{"seq":"14","testcd":"WBC","test":"Leukocytes","cat":"HEMATOLOGY","orres":"8.18","orresu":"10^9/L","stresc":"8.18","stresn":"8.18","stresu":"10^9/L","stnrlo":"4.0","stnrhi":"11.0","nrind":"NORMAL","fast":null,"dtc":"2024-02-29","dy":"1","visit":"BASELINE","visitnum":"2.0","epoch":"TREATMENT","spec":null,"method":null},{"seq":"15","testcd":"ALT","test":"Alanine Aminotransferase","cat":"CHEMISTRY","orres":"21.07","orresu":"U/L","stresc":"21.07","stresn":"21.07","stresu":"U/L","stnrlo":"7","stnrhi":"56","nrind":"NORMAL","fast":null,"dtc":"2024-03-25","dy":"26","visit":"WEEK 4","visitnum":"4.0","epoch":"TREATMENT","spec":null,"method":null},{"seq":"16","testcd":"AST","test":"Aspartate Aminotransferase","cat":"CHEMISTRY","orres":"27.45","orresu":"U/L","stresc":"27.45","stresn":"27.45","stresu":"U/L","stnrlo":"10","stnrhi":"40","nrind":"NORMAL","fast":null,"dtc":"2024-03-25","dy":"26","visit":"WEEK 4","visitnum":"4.0","epoch":"TREATMENT","spec":null,"method":null},{"seq":"17","testcd":"CREAT","test":"Creatinine","cat":"CHEMISTRY","orres":"65.81","orresu":"umol/L","stresc":"65.81","stresn":"65.81","stresu":"umol/L","stnrlo":"44","stnrhi":"80","nrind":"NORMAL","fast":null,"dtc":"2024-03-25","dy":"26","visit":"WEEK 4","visitnum":"4.0","epoch":"TREATMENT","spec":null,"method":null},{"seq":"18","testcd":"GLUC","test":"Glucose","cat":"CHEMISTRY","orres":"5.08","orresu":"mmol/L","stresc":"5.08","stresn":"5.08","stresu":"mmol/L","stnrlo":"3.9","stnrhi":"5.6","nrind":"NORMAL","fast":null,"dtc":"2024-03-25","dy":"26","visit":"WEEK 4","visitnum":"4.0","epoch":"TREATMENT","spec":null,"method":null},{"seq":"19","testcd":"HGB","test":"Hemoglobin","cat":"HEMATOLOGY","orres":"149.75","orresu":"g/L","stresc":"149.75","stresn":"149.75","stresu":"g/L","stnrlo":"120","stnrhi":"155","nrind":"NORMAL","fast":null,"dtc":"2024-03-25","dy":"26","visit":"WEEK 4","visitnum":"4.0","epoch":"TREATMENT","spec":null,"method":null},{"seq":"20","testcd":"PLAT","test":"Platelets","cat":"HEMATOLOGY","orres":"231.49","orresu":"10^9/L","stresc":"231.49","stresn":"231.49","stresu":"10^9/L","stnrlo":"150","stnrhi":"400","nrind":"NORMAL","fast":null,"dtc":"2024-03-25","dy":"26","visit":"WEEK 4","visitnum":"4.0","epoch":"TREATMENT","spec":null,"method":null},{"seq":"21","testcd":"WBC","test":"Leukocytes","cat":"HEMATOLOGY","orres":"7.78","orresu":"10^9/L","stresc":"7.78","stresn":"7.78","stresu":"10^9/L","stnrlo":"4.0","stnrhi":"11.0","nrind":"NORMAL","fast":null,"dtc":"2024-03-25","dy":"26","visit":"WEEK 4","visitnum":"4.0","epoch":"TREATMENT","spec":null,"method":null},{"seq":"22","testcd":"ALT","test":"Alanine Aminotransferase","cat":"CHEMISTRY","orres":"21.9","orresu":"U/L","stresc":"21.9","stresn":"21.9","stresu":"U/L","stnrlo":"7","stnrhi":"56","nrind":"NORMAL","fast":null,"dtc":"2024-04-24","dy":"56","visit":"WEEK 8","visitnum":"5.0","epoch":"TREATMENT","spec":null,"method":null},{"seq":"23","testcd":"AST","test":"Aspartate Aminotransferase","cat":"CHEMISTRY","orres":"26.33","orresu":"U/L","stresc":"26.33","stresn":"26.33","stresu":"U/L","stnrlo":"10","stnrhi":"40","nrind":"NORMAL","fast":null,"dtc":"2024-04-24","dy":"56","visit":"WEEK 8","visitnum":"5.0","epoch":"TREATMENT","spec":null,"method":null},{"seq":"24","testcd":"CREAT","test":"Creatinine","cat":"CHEMISTRY","orres":"67.69","orresu":"umol/L","stresc":"67.69","stresn":"67.69","stresu":"umol/L","stnrlo":"44","stnrhi":"80","nrind":"NORMAL","fast":null,"dtc":"2024-04-24","dy":"56","visit":"WEEK 8","visitnum":"5.0","epoch":"TREATMENT","spec":null,"method":null},{"seq":"25","testcd":"GLUC","test":"Glucose","cat":"CHEMISTRY","orres":"4.95","orresu":"mmol/L","stresc":"4.95","stresn":"4.95","stresu":"mmol/L","stnrlo":"3.9","stnrhi":"5.6","nrind":"NORMAL","fast":null,"dtc":"2024-04-24","dy":"56","visit":"WEEK 8","visitnum":"5.0","epoch":"TREATMENT","spec":null,"method":null},{"seq":"26","testcd":"HGB","test":"Hemoglobin","cat":"HEMATOLOGY","orres":"152.2","orresu":"g/L","stresc":"152.2","stresn":"152.2","stresu":"g/L","stnrlo":"120","stnrhi":"155","nrind":"NORMAL","fast":null,"dtc":"2024-04-24","dy":"56","visit":"WEEK 8","visitnum":"5.0","epoch":"TREATMENT","spec":null,"method":null},{"seq":"27","testcd":"PLAT","test":"Platelets","cat":"HEMATOLOGY","orres":"238.32","orresu":"10^9/L","stresc":"238.32","stresn":"238.32","stresu":"10^9/L","stnrlo":"150","stnrhi":"400","nrind":"NORMAL","fast":null,"dtc":"2024-04-24","dy":"56","visit":"WEEK 8","visitnum":"5.0","epoch":"TREATMENT","spec":null,"method":null},{"seq":"28","testcd":"WBC","test":"Leukocytes","cat":"HEMATOLOGY","orres":"8.59","orresu":"10^9/L","stresc":"8.59","stresn":"8.59","stresu":"10^9/L","stnrlo":"4.0","stnrhi":"11.0","nrind":"NORMAL","fast":null,"dtc":"2024-04-24","dy":"56","visit":"WEEK 8","visitnum":"5.0","epoch":"TREATMENT","spec":null,"method":null},{"seq":"29","testcd":"ALT","test":"Alanine Aminotransferase","cat":"CHEMISTRY","orres":"19.22","orresu":"U/L","stresc":"19.22","stresn":"19.22","stresu":"U/L","stnrlo":"7","stnrhi":"56","nrind":"NORMAL","fast":null,"dtc":"2024-06-18","dy":"111","visit":"FOLLOW-UP","visitnum":"7.0","epoch":"FOLLOW-UP","spec":null,"method":null},{"seq":"30","testcd":"AST","test":"Aspartate Aminotransferase","cat":"CHEMISTRY","orres":"24.17","orresu":"U/L","stresc":"24.17","stresn":"24.17","stresu":"U/L","stnrlo":"10","stnrhi":"40","nrind":"NORMAL","fast":null,"dtc":"2024-06-18","dy":"111","visit":"FOLLOW-UP","visitnum":"7.0","epoch":"FOLLOW-UP","spec":null,"method":null},{"seq":"31","testcd":"CREAT","test":"Creatinine","cat":"CHEMISTRY","orres":"64.8","orresu":"umol/L","stresc":"64.8","stresn":"64.8","stresu":"umol/L","stnrlo":"44","stnrhi":"80","nrind":"NORMAL","fast":null,"dtc":"2024-06-18","dy":"111","visit":"FOLLOW-UP","visitnum":"7.0","epoch":"FOLLOW-UP","spec":null,"method":null},{"seq":"32","testcd":"GLUC","test":"Glucose","cat":"CHEMISTRY","orres":null,"orresu":null,"stresc":null,"stresn":null,"stresu":null,"stnrlo":null,"stnrhi":null,"nrind":null,"fast":null,"dtc":"2024-06-18","dy":"111","visit":"FOLLOW-UP","visitnum":"7.0","epoch":"FOLLOW-UP","spec":null,"method":null},{"seq":"33","testcd":"HGB","test":"Hemoglobin","cat":"HEMATOLOGY","orres":"152.49","orresu":"g/L","stresc":"152.49","stresn":"152.49","stresu":"g/L","stnrlo":"120","stnrhi":"155","nrind":"NORMAL","fast":null,"dtc":"2024-06-18","dy":"111","visit":"FOLLOW-UP","visitnum":"7.0","epoch":"FOLLOW-UP","spec":null,"method":null},{"seq":"34","testcd":"PLAT","test":"Platelets","cat":"HEMATOLOGY","orres":"255.14","orresu":"10^9/L","stresc":"255.14","stresn":"255.14","stresu":"10^9/L","stnrlo":"150","stnrhi":"400","nrind":"NORMAL","fast":null,"dtc":"2024-06-18","dy":"111","visit":"FOLLOW-UP","visitnum":"7.0","epoch":"FOLLOW-UP","spec":null,"method":null},{"seq":"35","testcd":"WBC","test":"Leukocytes","cat":"HEMATOLOGY","orres":"8.67","orresu":"10^9/L","stresc":"8.67","stresn":"8.67","stresu":"10^9/L","stnrlo":"4.0","stnrhi":"11.0","nrind":"NORMAL","fast":null,"dtc":"2024-06-18","dy":"111","visit":"FOLLOW-UP","visitnum":"7.0","epoch":"FOLLOW-UP","spec":null,"method":null}]},"section_9_vital_signs":{"summary":{"total_records":48},"trends":{"BMI":[{"visit":"SCREENING","visitnum":"1.0","dtc":"2024-01-15","value":"18.5","unit":"kg/m2"},{"visit":"BASELINE","visitnum":"2.0","dtc":"2024-02-29","value":"19.5","unit":"kg/m2"},{"visit":"WEEK 2","visitnum":"3.0","dtc":"2024-03-14","value":"19.4","unit":"kg/m2"},{"visit":"WEEK 4","visitnum":"4.0","dtc":"2024-03-25","value":"20.3","unit":"kg/m2"},{"visit":"WEEK 8","visitnum":"5.0","dtc":"2024-04-24","value":"20.4","unit":"kg/m2"},{"visit":"WEEK 12","visitnum":"6.0","dtc":"2024-05-20","value":"21.0","unit":"kg/m2"}],"DIABP":[{"visit":"SCREENING","visitnum":"1.0","dtc":"2024-01-15","value":"65.8","unit":"mmHg"},{"visit":"BASELINE","visitnum":"2.0","dtc":"2024-02-29","value":"65.7","unit":"mmHg"},{"visit":"WEEK 2","visitnum":"3.0","dtc":"2024-03-14","value":"65.5","unit":"mmHg"},{"visit":"WEEK 4","visitnum":"4.0","dtc":"2024-03-25","value":"67.9","unit":"mmHg"},{"visit":"WEEK 8","visitnum":"5.0","dtc":"2024-04-24","value":"66.9","unit":"mmHg"},{"visit":"WEEK 12","visitnum":"6.0","dtc":"2024-05-20","value":"66.4","unit":"mmHg"}],"HEIGHT":[{"visit":"SCREENING","visitnum":"1.0","dtc":"2024-01-15","value":"172.1","unit":"cm"},{"visit":"BASELINE","visitnum":"2.0","dtc":"2024-02-29","value":"171.0","unit":"cm"},{"visit":"WEEK 2","visitnum":"3.0","dtc":"2024-03-14","value":"171.3","unit":"cm"},{"visit":"WEEK 4","visitnum":"4.0","dtc":"2024-03-25","value":"170.9","unit":"cm"},{"visit":"WEEK 8","visitnum":"5.0","dtc":"2024-04-24","value":"171.3","unit":"cm"},{"visit":"WEEK 12","visitnum":"6.0","dtc":"2024-05-20","value":"171.4","unit":"cm"}],"PULSE":[{"visit":"SCREENING","visitnum":"1.0","dtc":"2024-01-15","value":"40.0","unit":"beats/min"},{"visit":"BASELINE","visitnum":"2.0","dtc":"2024-02-29","value":"40.0","unit":"beats/min"},{"visit":"WEEK 2","visitnum":"3.0","dtc":"2024-03-14","value":"40.0","unit":"beats/min"},{"visit":"WEEK 4","visitnum":"4.0","dtc":"2024-03-25","value":"40.0","unit":"beats/min"},{"visit":"WEEK 8","visitnum":"5.0","dtc":"2024-04-24","value":"41.3","unit":"beats/min"},{"visit":"WEEK 12","visitnum":"6.0","dtc":"2024-05-20","value":"43.8","unit":"beats/min"}],"RESP":[{"visit":"SCREENING","visitnum":"1.0","dtc":"2024-01-15","value":"11.5","unit":"breaths/min"},{"visit":"BASELINE","visitnum":"2.0","dtc":"2024-02-29","value":"12.2","unit":"breaths/min"},{"visit":"WEEK 2","visitnum":"3.0","dtc":"2024-03-14","value":"11.4","unit":"breaths/min"},{"visit":"WEEK 4","visitnum":"4.0","dtc":"2024-03-25","value":"12.0","unit":"breaths/min"},{"visit":"WEEK 8","visitnum":"5.0","dtc":"2024-04-24","value":"10.9","unit":"breaths/min"},{"visit":"WEEK 12","visitnum":"6.0","dtc":"2024-05-20","value":"12.5","unit":"breaths/min"}],"SYSBP":[{"visit":"SCREENING","visitnum":"1.0","dtc":"2024-01-15","value":"109.8","unit":"mmHg"},{"visit":"BASELINE","visitnum":"2.0","dtc":"2024-02-29","value":"110.8","unit":"mmHg"},{"visit":"WEEK 2","visitnum":"3.0","dtc":"2024-03-14","value":"112.7","unit":"mmHg"},{"visit":"WEEK 4","visitnum":"4.0","dtc":"2024-03-25","value":"112.1","unit":"mmHg"},{"visit":"WEEK 8","visitnum":"5.0","dtc":"2024-04-24","value":"110.9","unit":"mmHg"},{"visit":"WEEK 12","visitnum":"6.0","dtc":"2024-05-20","value":"112.8","unit":"mmHg"}],"TEMP":[{"visit":"SCREENING","visitnum":"1.0","dtc":"2024-01-15","value":"36.9","unit":"C"},{"visit":"BASELINE","visitnum":"2.0","dtc":"2024-02-29","value":"37.0","unit":"C"},{"visit":"WEEK 2","visitnum":"3.0","dtc":"2024-03-14","value":"37.1","unit":"C"},{"visit":"WEEK 8","visitnum":"5.0","dtc":"2024-04-24","value":"36.9","unit":"C"},{"visit":"WEEK 12","visitnum":"6.0","dtc":"2024-05-20","value":"37.0","unit":"C"}],"WEIGHT":[{"visit":"SCREENING","visitnum":"1.0","dtc":"2024-01-15","value":"54.8","unit":"kg"},{"visit":"BASELINE","visitnum":"2.0","dtc":"2024-02-29","value":"56.9","unit":"kg"},{"visit":"WEEK 2","visitnum":"3.0","dtc":"2024-03-14","value":"57.0","unit":"kg"},{"visit":"WEEK 4","visitnum":"4.0","dtc":"2024-03-25","value":"59.4","unit":"kg"},{"visit":"WEEK 8","visitnum":"5.0","dtc":"2024-04-24","value":"59.9","unit":"kg"},{"visit":"WEEK 12","visitnum":"6.0","dtc":"2024-05-20","value":"61.7","unit":"kg"}]},"results":[{"seq":"1","testcd":"BMI","test":"BMI","cat":null,"orres":"18.5","orresu":"kg/m2","stresc":"18.5","stresn":"18.5","stresu":"kg/m2","stnrlo":null,"stnrhi":null,"nrind":null,"pos":null,"loc":null,"dtc":"2024-01-15","dy":"-45","visit":"SCREENING","visitnum":"1.0","epoch":"SCREENING"},{"seq":"2","testcd":"DIABP","test":"Diastolic Blood Pressure","cat":null,"orres":"65.8","orresu":"mmHg","stresc":"65.8","stresn":"65.8","stresu":"mmHg","stnrlo":null,"stnrhi":null,"nrind":null,"pos":null,"loc":null,"dtc":"2024-01-15","dy":"-45","visit":"SCREENING","visitnum":"1.0","epoch":"SCREENING"},{"seq":"3","testcd":"HEIGHT","test":"Height","cat":null,"orres":"172.1","orresu":"cm","stresc":"172.1","stresn":"172.1","stresu":"cm","stnrlo":null,"stnrhi":null,"nrind":null,"pos":null,"loc":null,"dtc":"2024-01-15","dy":"-45","visit":"SCREENING","visitnum":"1.0","epoch":"SCREENING"},{"seq":"4","testcd":"PULSE","test":"Pulse Rate","cat":null,"orres":"40.0","orresu":"beats/min","stresc":"40.0","stresn":"40.0","stresu":"beats/min","stnrlo":null,"stnrhi":null,"nrind":null,"pos":null,"loc":null,"dtc":"2024-01-15","dy":"-45","visit":"SCREENING","visitnum":"1.0","epoch":"SCREENING"},{"seq":"5","testcd":"RESP","test":"Respiratory Rate","cat":null,"orres":"11.5","orresu":"breaths/min","stresc":"11.5","stresn":"11.5","stresu":"breaths/min","stnrlo":null,"stnrhi":null,"nrind":null,"pos":null,"loc":null,"dtc":"2024-01-15","dy":"-45","visit":"SCREENING","visitnum":"1.0","epoch":"SCREENING"},{"seq":"6","testcd":"SYSBP","test":"Systolic Blood Pressure","cat":null,"orres":"109.8","orresu":"mmHg","stresc":"109.8","stresn":"109.8","stresu":"mmHg","stnrlo":null,"stnrhi":null,"nrind":null,"pos":null,"loc":null,"dtc":"2024-01-15","dy":"-45","visit":"SCREENING","visitnum":"1.0","epoch":"SCREENING"},{"seq":"7","testcd":"TEMP","test":"Temperature","cat":null,"orres":"36.9","orresu":"C","stresc":"36.9","stresn":"36.9","stresu":"C","stnrlo":null,"stnrhi":null,"nrind":null,"pos":null,"loc":null,"dtc":"2024-01-15","dy":"-45","visit":"SCREENING","visitnum":"1.0","epoch":"SCREENING"},{"seq":"8","testcd":"WEIGHT","test":"Weight","cat":null,"orres":"54.8","orresu":"kg","stresc":"54.8","stresn":"54.8","stresu":"kg","stnrlo":null,"stnrhi":null,"nrind":null,"pos":null,"loc":null,"dtc":"2024-01-15","dy":"-45","visit":"SCREENING","visitnum":"1.0","epoch":"SCREENING"},{"seq":"9","testcd":"BMI","test":"BMI","cat":null,"orres":"19.5","orresu":"kg/m2","stresc":"19.5","stresn":"19.5","stresu":"kg/m2","stnrlo":null,"stnrhi":null,"nrind":null,"pos":null,"loc":null,"dtc":"2024-02-29","dy":"1","visit":"BASELINE","visitnum":"2.0","epoch":"TREATMENT"},{"seq":"10","testcd":"DIABP","test":"Diastolic Blood Pressure","cat":null,"orres":"65.7","orresu":"mmHg","stresc":"65.7","stresn":"65.7","stresu":"mmHg","stnrlo":null,"stnrhi":null,"nrind":null,"pos":null,"loc":null,"dtc":"2024-02-29","dy":"1","visit":"BASELINE","visitnum":"2.0","epoch":"TREATMENT"},{"seq":"11","testcd":"HEIGHT","test":"Height","cat":null,"orres":"171.0","orresu":"cm","stresc":"171.0","stresn":"171.0","stresu":"cm","stnrlo":null,"stnrhi":null,"nrind":null,"pos":null,"loc":null,"dtc":"2024-02-29","dy":"1","visit":"BASELINE","visitnum":"2.0","epoch":"TREATMENT"},{"seq":"12","testcd":"PULSE","test":"Pulse Rate","cat":null,"orres":"40.0","orresu":"beats/min","stresc":"40.0","stresn":"40.0","stresu":"beats/min","stnrlo":null,"stnrhi":null,"nrind":null,"pos":null,"loc":null,"dtc":"2024-02-29","dy":"1","visit":"BASELINE","visitnum":"2.0","epoch":"TREATMENT"},{"seq":"13","testcd":"RESP","test":"Respiratory Rate","cat":null,"orres":"12.2","orresu":"breaths/min","stresc":"12.2","stresn":"12.2","stresu":"breaths/min","stnrlo":null,"stnrhi":null,"nrind":null,"pos":null,"loc":null,"dtc":"2024-02-29","dy":"1","visit":"BASELINE","visitnum":"2.0","epoch":"TREATMENT"},{"seq":"14","testcd":"SYSBP","test":"Systolic Blood Pressure","cat":null,"orres":"110.8","orresu":"mmHg","stresc":"110.8","stresn":"110.8","stresu":"mmHg","stnrlo":null,"stnrhi":null,"nrind":null,"pos":null,"loc":null,"dtc":"2024-02-29","dy":"1","visit":"BASELINE","visitnum":"2.0","epoch":"TREATMENT"},{"seq":"15","testcd":"TEMP","test":"Temperature","cat":null,"orres":"37.0","orresu":"C","stresc":"37.0","stresn":"37.0","stresu":"C","stnrlo":null,"stnrhi":null,"nrind":null,"pos":null,"loc":null,"dtc":"2024-02-29","dy":"1","visit":"BASELINE","visitnum":"2.0","epoch":"TREATMENT"},{"seq":"16","testcd":"WEIGHT","test":"Weight","cat":null,"orres":"56.9","orresu":"kg","stresc":"56.9","stresn":"56.9","stresu":"kg","stnrlo":null,"stnrhi":null,"nrind":null,"pos":null,"loc":null,"dtc":"2024-02-29","dy":"1","visit":"BASELINE","visitnum":"2.0","epoch":"TREATMENT"},{"seq":"17","testcd":"BMI","test":"BMI","cat":null,"orres":"19.4","orresu":"kg/m2","stresc":"19.4","stresn":"19.4","stresu":"kg/m2","stnrlo":null,"stnrhi":null,"nrind":null,"pos":null,"loc":null,"dtc":"2024-03-14","dy":"15","visit":"WEEK 2","visitnum":"3.0","epoch":"TREATMENT"},{"seq":"18","testcd":"DIABP","test":"Diastolic Blood Pressure","cat":null,"orres":"65.5","orresu":"mmHg","stresc":"65.5","stresn":"65.5","stresu":"mmHg","stnrlo":null,"stnrhi":null,"nrind":null,"pos":null,"loc":null,"dtc":"2024-03-14","dy":"15","visit":"WEEK 2","visitnum":"3.0","epoch":"TREATMENT"},{"seq":"19","testcd":"HEIGHT","test":"Height","cat":null,"orres":"171.3","orresu":"cm","stresc":"171.3","stresn":"171.3","stresu":"cm","stnrlo":null,"stnrhi":null,"nrind":null,"pos":null,"loc":null,"dtc":"2024-03-14","dy":"15","visit":"WEEK 2","visitnum":"3.0","epoch":"TREATMENT"},{"seq":"20","testcd":"PULSE","test":"Pulse Rate","cat":null,"orres":"40.0","orresu":"beats/min","stresc":"40.0","stresn":"40.0","stresu":"beats/min","stnrlo":null,"stnrhi":null,"nrind":null,"pos":null,"loc":null,"dtc":"2024-03-14","dy":"15","visit":"WEEK 2","visitnum":"3.0","epoch":"TREATMENT"},{"seq":"21","testcd":"RESP","test":"Respiratory Rate","cat":null,"orres":"11.4","orresu":"breaths/min","stresc":"11.4","stresn":"11.4","stresu":"breaths/min","stnrlo":null,"stnrhi":null,"nrind":null,"pos":null,"loc":null,"dtc":"2024-03-14","dy":"15","visit":"WEEK 2","visitnum":"3.0","epoch":"TREATMENT"},{"seq":"22","testcd":"SYSBP","test":"Systolic Blood Pressure","cat":null,"orres":"112.7","orresu":"mmHg","stresc":"112.7","stresn":"112.7","stresu":"mmHg","stnrlo":null,"stnrhi":null,"nrind":null,"pos":null,"loc":null,"dtc":"2024-03-14","dy":"15","visit":"WEEK 2","visitnum":"3.0","epoch":"TREATMENT"},{"seq":"23","testcd":"TEMP","test":"Temperature","cat":null,"orres":"37.1","orresu":"C","stresc":"37.1","stresn":"37.1","stresu":"C","stnrlo":null,"stnrhi":null,"nrind":null,"pos":null,"loc":null,"dtc":"2024-03-14","dy":"15","visit":"WEEK 2","visitnum":"3.0","epoch":"TREATMENT"},{"seq":"24","testcd":"WEIGHT","test":"Weight","cat":null,"orres":"57.0","orresu":"kg","stresc":"57.0","stresn":"57.0","stresu":"kg","stnrlo":null,"stnrhi":null,"nrind":null,"pos":null,"loc":null,"dtc":"2024-03-14","dy":"15","visit":"WEEK 2","visitnum":"3.0","epoch":"TREATMENT"},{"seq":"25","testcd":"BMI","test":"BMI","cat":null,"orres":"20.3","orresu":"kg/m2","stresc":"20.3","stresn":"20.3","stresu":"kg/m2","stnrlo":null,"stnrhi":null,"nrind":null,"pos":null,"loc":null,"dtc":"2024-03-25","dy":"26","visit":"WEEK 4","visitnum":"4.0","epoch":"TREATMENT"},{"seq":"26","testcd":"DIABP","test":"Diastolic Blood Pressure","cat":null,"orres":"67.9","orresu":"mmHg","stresc":"67.9","stresn":"67.9","stresu":"mmHg","stnrlo":null,"stnrhi":null,"nrind":null,"pos":null,"loc":null,"dtc":"2024-03-25","dy":"26","visit":"WEEK 4","visitnum":"4.0","epoch":"TREATMENT"},{"seq":"27","testcd":"HEIGHT","test":"Height","cat":null,"orres":"170.9","orresu":"cm","stresc":"170.9","stresn":"170.9","stresu":"cm","stnrlo":null,"stnrhi":null,"nrind":null,"pos":null,"loc":null,"dtc":"2024-03-25","dy":"26","visit":"WEEK 4","visitnum":"4.0","epoch":"TREATMENT"},{"seq":"28","testcd":"PULSE","test":"Pulse Rate","cat":null,"orres":"40.0","orresu":"beats/min","stresc":"40.0","stresn":"40.0","stresu":"beats/min","stnrlo":null,"stnrhi":null,"nrind":null,"pos":null,"loc":null,"dtc":"2024-03-25","dy":"26","visit":"WEEK 4","visitnum":"4.0","epoch":"TREATMENT"},{"seq":"29","testcd":"RESP","test":"Respiratory Rate","cat":null,"orres":"12.0","orresu":"breaths/min","stresc":"12.0","stresn":"12.0","stresu":"breaths/min","stnrlo":null,"stnrhi":null,"nrind":null,"pos":null,"loc":null,"dtc":"2024-03-25","dy":"26","visit":"WEEK 4","visitnum":"4.0","epoch":"TREATMENT"},{"seq":"30","testcd":"SYSBP","test":"Systolic Blood Pressure","cat":null,"orres":"112.1","orresu":"mmHg","stresc":"112.1","stresn":"112.1","stresu":"mmHg","stnrlo":null,"stnrhi":null,"nrind":null,"pos":null,"loc":null,"dtc":"2024-03-25","dy":"26","visit":"WEEK 4","visitnum":"4.0","epoch":"TREATMENT"},{"seq":"31","testcd":"TEMP","test":"Temperature","cat":null,"orres":null,"orresu":null,"stresc":null,"stresn":null,"stresu":null,"stnrlo":null,"stnrhi":null,"nrind":null,"pos":null,"loc":null,"dtc":"2024-03-25","dy":"26","visit":"WEEK 4","visitnum":"4.0","epoch":"TREATMENT"},{"seq":"32","testcd":"WEIGHT","test":"Weight","cat":null,"orres":"59.4","orresu":"kg","stresc":"59.4","stresn":"59.4","stresu":"kg","stnrlo":null,"stnrhi":null,"nrind":null,"pos":null,"loc":null,"dtc":"2024-03-25","dy":"26","visit":"WEEK 4","visitnum":"4.0","epoch":"TREATMENT"},{"seq":"33","testcd":"BMI","test":"BMI","cat":null,"orres":"20.4","orresu":"kg/m2","stresc":"20.4","stresn":"20.4","stresu":"kg/m2","stnrlo":null,"stnrhi":null,"nrind":null,"pos":null,"loc":null,"dtc":"2024-04-24","dy":"56","visit":"WEEK 8","visitnum":"5.0","epoch":"TREATMENT"},{"seq":"34","testcd":"DIABP","test":"Diastolic Blood Pressure","cat":null,"orres":"66.9","orresu":"mmHg","stresc":"66.9","stresn":"66.9","stresu":"mmHg","stnrlo":null,"stnrhi":null,"nrind":null,"pos":null,"loc":null,"dtc":"2024-04-24","dy":"56","visit":"WEEK 8","visitnum":"5.0","epoch":"TREATMENT"},{"seq":"35","testcd":"HEIGHT","test":"Height","cat":null,"orres":"171.3","orresu":"cm","stresc":"171.3","stresn":"171.3","stresu":"cm","stnrlo":null,"stnrhi":null,"nrind":null,"pos":null,"loc":null,"dtc":"2024-04-24","dy":"56","visit":"WEEK 8","visitnum":"5.0","epoch":"TREATMENT"},{"seq":"36","testcd":"PULSE","test":"Pulse Rate","cat":null,"orres":"41.3","orresu":"beats/min","stresc":"41.3","stresn":"41.3","stresu":"beats/min","stnrlo":null,"stnrhi":null,"nrind":null,"pos":null,"loc":null,"dtc":"2024-04-24","dy":"56","visit":"WEEK 8","visitnum":"5.0","epoch":"TREATMENT"},{"seq":"37","testcd":"RESP","test":"Respiratory Rate","cat":null,"orres":"10.9","orresu":"breaths/min","stresc":"10.9","stresn":"10.9","stresu":"breaths/min","stnrlo":null,"stnrhi":null,"nrind":null,"pos":null,"loc":null,"dtc":"2024-04-24","dy":"56","visit":"WEEK 8","visitnum":"5.0","epoch":"TREATMENT"},{"seq":"38","testcd":"SYSBP","test":"Systolic Blood Pressure","cat":null,"orres":"110.9","orresu":"mmHg","stresc":"110.9","stresn":"110.9","stresu":"mmHg","stnrlo":null,"stnrhi":null,"nrind":null,"pos":null,"loc":null,"dtc":"2024-04-24","dy":"56","visit":"WEEK 8","visitnum":"5.0","epoch":"TREATMENT"},{"seq":"39","testcd":"TEMP","test":"Temperature","cat":null,"orres":"36.9","orresu":"C","stresc":"36.9","stresn":"36.9","stresu":"C","stnrlo":null,"stnrhi":null,"nrind":null,"pos":null,"loc":null,"dtc":"2024-04-24","dy":"56","visit":"WEEK 8","visitnum":"5.0","epoch":"TREATMENT"},{"seq":"40","testcd":"WEIGHT","test":"Weight","cat":null,"orres":"59.9","orresu":"kg","stresc":"59.9","stresn":"59.9","stresu":"kg","stnrlo":null,"stnrhi":null,"nrind":null,"pos":null,"loc":null,"dtc":"2024-04-24","dy":"56","visit":"WEEK 8","visitnum":"5.0","epoch":"TREATMENT"},{"seq":"41","testcd":"BMI","test":"BMI","cat":null,"orres":"21.0","orresu":"kg/m2","stresc":"21.0","stresn":"21.0","stresu":"kg/m2","stnrlo":null,"stnrhi":null,"nrind":null,"pos":null,"loc":null,"dtc":"2024-05-20","dy":"82","visit":"WEEK 12","visitnum":"6.0","epoch":"TREATMENT"},{"seq":"42","testcd":"DIABP","test":"Diastolic Blood Pressure","cat":null,"orres":"66.4","orresu":"mmHg","stresc":"66.4","stresn":"66.4","stresu":"mmHg","stnrlo":null,"stnrhi":null,"nrind":null,"pos":null,"loc":null,"dtc":"2024-05-20","dy":"82","visit":"WEEK 12","visitnum":"6.0","epoch":"TREATMENT"},{"seq":"43","testcd":"HEIGHT","test":"Height","cat":null,"orres":"171.4","orresu":"cm","stresc":"171.4","stresn":"171.4","stresu":"cm","stnrlo":null,"stnrhi":null,"nrind":null,"pos":null,"loc":null,"dtc":"2024-05-20","dy":"82","visit":"WEEK 12","visitnum":"6.0","epoch":"TREATMENT"},{"seq":"44","testcd":"PULSE","test":"Pulse Rate","cat":null,"orres":"43.8","orresu":"beats/min","stresc":"43.8","stresn":"43.8","stresu":"beats/min","stnrlo":null,"stnrhi":null,"nrind":null,"pos":null,"loc":null,"dtc":"2024-05-20","dy":"82","visit":"WEEK 12","visitnum":"6.0","epoch":"TREATMENT"},{"seq":"45","testcd":"RESP","test":"Respiratory Rate","cat":null,"orres":"12.5","orresu":"breaths/min","stresc":"12.5","stresn":"12.5","stresu":"breaths/min","stnrlo":null,"stnrhi":null,"nrind":null,"pos":null,"loc":null,"dtc":"2024-05-20","dy":"82","visit":"WEEK 12","visitnum":"6.0","epoch":"TREATMENT"},{"seq":"46","testcd":"SYSBP","test":"Systolic Blood Pressure","cat":null,"orres":"112.8","orresu":"mmHg","stresc":"112.8","stresn":"112.8","stresu":"mmHg","stnrlo":null,"stnrhi":null,"nrind":null,"pos":null,"loc":null,"dtc":"2024-05-20","dy":"82","visit":"WEEK 12","visitnum":"6.0","epoch":"TREATMENT"},{"seq":"47","testcd":"TEMP","test":"Temperature","cat":null,"orres":"37.0","orresu":"C","stresc":"37.0","stresn":"37.0","stresu":"C","stnrlo":null,"stnrhi":null,"nrind":null,"pos":null,"loc":null,"dtc":"2024-05-20","dy":"82","visit":"WEEK 12","visitnum":"6.0","epoch":"TREATMENT"},{"seq":"48","testcd":"WEIGHT","test":"Weight","cat":null,"orres":"61.7","orresu":"kg","stresc":"61.7","stresn":"61.7","stresu":"kg","stnrlo":null,"stnrhi":null,"nrind":null,"pos":null,"loc":null,"dtc":"2024-05-20","dy":"82","visit":"WEEK 12","visitnum":"6.0","epoch":"TREATMENT"}]},"section_10_questionnaires_and_scores":{"questionnaires":[],"findings_about":[]},"section_11_protocol_deviations":{"deviations":[{"seq":"1","term":"Missed GB001 dose on 2024-03-01","decod":"MISSED DOSE","cat":"MINOR","scat":"DOSING","start_dtc":"2024-03-01","end_dtc":null,"visit":null},{"seq":"2","term":"Missed GB001 dose on 2024-03-27","decod":"MISSED DOSE","cat":"MINOR","scat":"DOSING","start_dtc":"2024-03-27","end_dtc":null,"visit":null},{"seq":"3","term":"Missed GB001 dose on 2024-03-29","decod":"MISSED DOSE","cat":"MINOR","scat":"DOSING","start_dtc":"2024-03-29","end_dtc":null,"visit":null},{"seq":"4","term":"Missed GB001 dose on 2024-03-31","decod":"MISSED DOSE","cat":"MINOR","scat":"DOSING","start_dtc":"2024-03-31","end_dtc":null,"visit":null},{"seq":"5","term":"Visit WEEK 8 occurred 1 days early (Day 56 vs planned Day 57)","decod":"VISIT OCCURRED OUTSIDE VISIT WINDOW","cat":"MINOR","scat":"VISIT WINDOW","start_dtc":"2024-04-24","end_dtc":null,"visit":null}],"total":5},"section_12_disposition":{"completion_status":"COMPLETED","disposition_records":[{"seq":"1","term":"INFORMED CONSENT OBTAINED","decod":"INFORMED CONSENT OBTAINED","cat":"PROTOCOL MILESTONE","scat":null,"dtc":"2024-02-12","dy":null,"visit":null,"epoch":"SCREENING"},{"seq":"2","term":"RANDOMIZED","decod":"RANDOMIZED","cat":"PROTOCOL MILESTONE","scat":null,"dtc":"2024-02-29","dy":null,"visit":null,"epoch":"TREATMENT"},{"seq":"3","term":"COMPLETED","decod":"COMPLETED","cat":"DISPOSITION EVENT","scat":null,"dtc":"2024-07-17","dy":null,"visit":null,"epoch":"FOLLOW-UP"}],"death":null},"section_13_hospitalizations":{"items":[{"seq":"1","term":"Pneumonia","decod":"Pneumonia","cat":"HOSPITALIZATION","start_dtc":"2024-03-24","end_dtc":"2024-03-30","epoch":"TREATMENT"}],"total":1},"section_14_substance_use":{"items":[{"seq":"1","substance":"ALCOHOL","decod":"ALCOHOL","cat":"ALCOHOL","scat":null,"usage":"Y","dose":"5.0","dosu":"DRINKS/WEEK","freq":"QW","start_dtc":"2020-02-13","end_dtc":null},{"seq":"2","substance":"COFFEE","decod":"COFFEE","cat":"CAFFEINE","scat":null,"usage":"Y","dose":"3.0","dosu":"CUPS/DAY","freq":"QD","start_dtc":"2012-02-15","end_dtc":null},{"seq":"3","substance":"CIGARETTES","decod":"CIGARETTES","cat":"TOBACCO","scat":"CIGARETTES","usage":"Y","dose":null,"dosu":null,"freq":null,"start_dtc":"1995-02-19","end_dtc":"2016-02-14"}],"total":3},"section_15_subject_status":{"items":[{"seq":"1","testcd":"SURVSTAT","test":"Survival Status","orres":"ALIVE","stresc":"ALIVE","dtc":"2024-07-17","visit":"END OF STUDY","epoch":"FOLLOW-UP"}],"total":1}}