STUDYID,DOMAIN,USUBJID,DDSEQ,DDTESTCD,DDTEST,DDORRES,DDSTRESC,DDDTC
VISION-NSCLC,DD,VISION-NSCLC-SITE001-0124,1,DTHCAUS,Cause of Death,Pulmonary embolism,Pulmonary embolism,2024-04-02
VISION-NSCLC,DD,VISION-NSCLC-SITE001-0124,2,DTHRELD,Relationship of Death to Study Drug,POSSIBLY RELATED,POSSIBLY RELATED,2024-04-02
VISION-NSCLC,DD,VISION-NSCLC-SITE001-0124,3,DTHAUTOP,Autopsy Performed,N,N,2024-04-02
VISION-NSCLC,DD,VISION-NSCLC-SITE002-0062,1,DTHCAUS,Cause of Death,Pleural effusion,Pleural effusion,2024-09-02
VISION-NSCLC,DD,VISION-NSCLC-SITE002-0062,2,DTHRELD,Relationship of Death to Study Drug,RELATED,RELATED,2024-09-02
VISION-NSCLC,DD,VISION-NSCLC-SITE002-0062,3,DTHAUTOP,Autopsy Performed,N,N,2024-09-02
