STUDYID,DOMAIN,USUBJID,HOSEQ,HOTERM,HODECOD,HOCAT,EPOCH,HOSTDTC,HOENDTC,HOSTDY,HOENDY
VISION-NSCLC,HO,VISION-NSCLC-SITE001-0007,1,Vomiting,Vomiting,HOSPITALIZATION,TREATMENT,2024-05-25,2024-05-31,103,109
VISION-NSCLC,HO,VISION-NSCLC-SITE001-0010,1,Fatigue,Fatigue,HOSPITALIZATION,TREATMENT,2024-05-30,2024-06-11,116,128
VISION-NSCLC,HO,VISION-NSCLC-SITE001-0019,1,Diarrhoea,Diarrhoea,HOSPITALIZATION,TREATMENT,2024-08-11,2024-08-23,139,151
VISION-NSCLC,HO,VISION-NSCLC-SITE001-0022,1,Oedema peripheral,Oedema peripheral,HOSPITALIZATION,TREATMENT,2024-07-15,2024-07-26,139,150
VISION-NSCLC,HO,VISION-NSCLC-SITE001-0031,1,Vomiting,Vomiting,HOSPITALIZATION,TREATMENT,2024-08-07,2024-08-12,155,160
VISION-NSCLC,HO,VISION-NSCLC-SITE001-0037,1,Nausea,Nausea,HOSPITALIZATION,TREATMENT,2024-05-22,2024-05-26,60,64
VISION-NSCLC,HO,VISION-NSCLC-SITE001-0043,1,Diarrhoea,Diarrhoea,EMERGENCY ROOM VISIT,TREATMENT,2024-07-01,2024-07-04,98,101
VISION-NSCLC,HO,VISION-NSCLC-SITE001-0055,1,Oedema peripheral,Oedema peripheral,HOSPITALIZATION,TREATMENT,2024-06-19,2024-06-22,115,118
VISION-NSCLC,HO,VISION-NSCLC-SITE001-0055,2,Fatigue,Fatigue,HOSPITALIZATION,TREATMENT,2024-07-31,2024-08-09,157,166
VISION-NSCLC,HO,VISION-NSCLC-SITE001-0061,1,Hypoalbuminaemia,Hypoalbuminaemia,HOSPITALIZATION,TREATMENT,2024-03-31,2024-04-07,7,14
VISION-NSCLC,HO,VISION-NSCLC-SITE001-0067,1,Nausea,Nausea,HOSPITALIZATION,TREATMENT,2024-05-14,2024-05-30,21,37
VISION-NSCLC,HO,VISION-NSCLC-SITE001-0076,1,Oedema peripheral,Oedema peripheral,HOSPITALIZATION,TREATMENT,2024-05-29,2024-06-10,28,40
VISION-NSCLC,HO,VISION-NSCLC-SITE001-0088,1,Nausea,Nausea,HOSPITALIZATION,TREATMENT,2024-05-20,2024-05-25,83,88
VISION-NSCLC,HO,VISION-NSCLC-SITE001-0091,1,Oedema peripheral,Oedema peripheral,HOSPITALIZATION,TREATMENT,2024-08-25,2024-09-10,161,177
VISION-NSCLC,HO,VISION-NSCLC-SITE001-0094,1,Pleural effusion,Pleural effusion,HOSPITALIZATION,TREATMENT,2024-06-01,2024-06-05,56,60
VISION-NSCLC,HO,VISION-NSCLC-SITE001-0103,1,Hypoalbuminaemia,Hypoalbuminaemia,HOSPITALIZATION,TREATMENT,2024-06-02,2024-06-15,40,53
VISION-NSCLC,HO,VISION-NSCLC-SITE001-0106,1,Oedema peripheral,Oedema peripheral,HOSPITALIZATION,TREATMENT,2024-09-30,2024-10-13,165,178
VISION-NSCLC,HO,VISION-NSCLC-SITE001-0112,1,Vomiting,Vomiting,HOSPITALIZATION,TREATMENT,2024-08-10,2024-08-23,100,113
VISION-NSCLC,HO,VISION-NSCLC-SITE001-0112,2,Oedema peripheral,Oedema peripheral,HOSPITALIZATION,TREATMENT,2024-08-23,2024-08-30,113,120
VISION-NSCLC,HO,VISION-NSCLC-SITE001-0118,1,Diarrhoea,Diarrhoea,HOSPITALIZATION,TREATMENT,2024-06-30,2024-07-05,145,150
VISION-NSCLC,HO,VISION-NSCLC-SITE001-0127,1,Diarrhoea,Diarrhoea,EMERGENCY ROOM VISIT,TREATMENT,2024-03-20,2024-03-29,31,40
VISION-NSCLC,HO,VISION-NSCLC-SITE001-0127,2,Blood creatinine increased,Blood creatinine increased,HOSPITALIZATION,TREATMENT,2024-07-05,2024-07-18,138,151
VISION-NSCLC,HO,VISION-NSCLC-SITE001-0130,1,Nausea,Nausea,HOSPITALIZATION,TREATMENT,2024-03-15,2024-03-15,25,25
VISION-NSCLC,HO,VISION-NSCLC-SITE001-0133,1,Hypoalbuminaemia,Hypoalbuminaemia,HOSPITALIZATION,TREATMENT,2024-08-17,2024-08-23,154,160
VISION-NSCLC,HO,VISION-NSCLC-SITE001-0136,1,Nausea,Nausea,HOSPITALIZATION,TREATMENT,2024-08-01,2024-08-08,93,100
VISION-NSCLC,HO,VISION-NSCLC-SITE001-0139,1,Nausea,Nausea,HOSPITALIZATION,TREATMENT,2024-05-14,2024-05-17,96,99
VISION-NSCLC,HO,VISION-NSCLC-SITE001-0148,1,Diarrhoea,Diarrhoea,HOSPITALIZATION,TREATMENT,2024-08-11,2024-08-18,141,148
VISION-NSCLC,HO,VISION-NSCLC-SITE002-0002,1,Nausea,Nausea,HOSPITALIZATION,TREATMENT,2024-09-15,2024-09-15,135,135
VISION-NSCLC,HO,VISION-NSCLC-SITE002-0005,1,Decreased appetite,Decreased appetite,HOSPITALIZATION,TREATMENT,2024-04-23,2024-04-26,5,8
VISION-NSCLC,HO,VISION-NSCLC-SITE002-0005,2,Nausea,Nausea,HOSPITALIZATION,TREATMENT,2024-04-27,2024-05-06,9,18
VISION-NSCLC,HO,VISION-NSCLC-SITE002-0005,3,Oedema peripheral,Oedema peripheral,HOSPITALIZATION,TREATMENT,2024-05-16,2024-05-20,28,32
VISION-NSCLC,HO,VISION-NSCLC-SITE002-0005,4,Oedema peripheral,Oedema peripheral,HOSPITALIZATION,TREATMENT,2024-07-26,2024-08-04,99,108
VISION-NSCLC,HO,VISION-NSCLC-SITE002-0011,1,Oedema peripheral,Oedema peripheral,HOSPITALIZATION,TREATMENT,2024-04-29,2024-05-13,34,48
VISION-NSCLC,HO,VISION-NSCLC-SITE002-0011,2,Fatigue,Fatigue,HOSPITALIZATION,TREATMENT,2024-05-12,2024-05-22,47,57
VISION-NSCLC,HO,VISION-NSCLC-SITE002-0011,3,Hypoalbuminaemia,Hypoalbuminaemia,HOSPITALIZATION,TREATMENT,2024-08-21,2024-08-26,148,153
VISION-NSCLC,HO,VISION-NSCLC-SITE002-0014,1,Decreased appetite,Decreased appetite,EMERGENCY ROOM VISIT,TREATMENT,2024-05-04,2024-05-15,33,44
VISION-NSCLC,HO,VISION-NSCLC-SITE002-0020,1,Oedema peripheral,Oedema peripheral,HOSPITALIZATION,TREATMENT,2024-05-20,2024-05-23,64,67
VISION-NSCLC,HO,VISION-NSCLC-SITE002-0023,1,Nausea,Nausea,HOSPITALIZATION,TREATMENT,2024-03-19,2024-03-30,16,27
VISION-NSCLC,HO,VISION-NSCLC-SITE002-0023,2,Fatigue,Fatigue,HOSPITALIZATION,TREATMENT,2024-07-30,2024-08-03,149,153
VISION-NSCLC,HO,VISION-NSCLC-SITE002-0023,3,Decreased appetite,Decreased appetite,HOSPITALIZATION,TREATMENT,2024-08-15,2024-08-19,165,169
VISION-NSCLC,HO,VISION-NSCLC-SITE002-0032,1,Hypoalbuminaemia,Hypoalbuminaemia,HOSPITALIZATION,TREATMENT,2024-07-16,2024-07-24,127,135
VISION-NSCLC,HO,VISION-NSCLC-SITE002-0038,1,Nausea,Nausea,HOSPITALIZATION,TREATMENT,2024-07-12,2024-07-17,113,118
VISION-NSCLC,HO,VISION-NSCLC-SITE002-0041,1,Nausea,Nausea,HOSPITALIZATION,TREATMENT,2024-05-22,2024-06-01,103,113
VISION-NSCLC,HO,VISION-NSCLC-SITE002-0041,2,Oedema peripheral,Oedema peripheral,EMERGENCY ROOM VISIT,TREATMENT,2024-07-08,2024-07-21,150,163
VISION-NSCLC,HO,VISION-NSCLC-SITE002-0041,3,Dyspnoea,Dyspnoea,HOSPITALIZATION,TREATMENT,2024-07-24,2024-07-24,166,166
VISION-NSCLC,HO,VISION-NSCLC-SITE002-0059,1,Oedema peripheral,Oedema peripheral,HOSPITALIZATION,TREATMENT,2024-07-11,2024-07-20,90,99
VISION-NSCLC,HO,VISION-NSCLC-SITE002-0062,1,Nausea,Nausea,HOSPITALIZATION,TREATMENT,2024-05-08,2024-05-11,34,37
VISION-NSCLC,HO,VISION-NSCLC-SITE002-0062,2,Nausea,Nausea,HOSPITALIZATION,TREATMENT,2024-06-23,2024-06-26,80,83
VISION-NSCLC,HO,VISION-NSCLC-SITE002-0074,1,Oedema peripheral,Oedema peripheral,HOSPITALIZATION,TREATMENT,2024-07-23,2024-08-05,114,127
VISION-NSCLC,HO,VISION-NSCLC-SITE002-0077,1,Oedema peripheral,Oedema peripheral,HOSPITALIZATION,TREATMENT,2024-05-15,2024-06-03,16,35
VISION-NSCLC,HO,VISION-NSCLC-SITE002-0083,1,Aspartate aminotransferase increased,Aspartate aminotransferase increased,HOSPITALIZATION,TREATMENT,2024-04-28,2024-05-13,92,107
VISION-NSCLC,HO,VISION-NSCLC-SITE002-0083,2,Nausea,Nausea,HOSPITALIZATION,TREATMENT,2024-06-21,2024-06-29,146,154
VISION-NSCLC,HO,VISION-NSCLC-SITE002-0083,3,Nausea,Nausea,EMERGENCY ROOM VISIT,TREATMENT,2024-06-29,2024-07-02,154,157
VISION-NSCLC,HO,VISION-NSCLC-SITE002-0086,1,Oedema peripheral,Oedema peripheral,HOSPITALIZATION,TREATMENT,2024-05-20,2024-05-29,88,97
VISION-NSCLC,HO,VISION-NSCLC-SITE002-0086,2,Pneumonia,Pneumonia,HOSPITALIZATION,TREATMENT,2024-05-28,2024-06-08,96,107
VISION-NSCLC,HO,VISION-NSCLC-SITE002-0089,1,Hypoalbuminaemia,Hypoalbuminaemia,HOSPITALIZATION,TREATMENT,2024-07-17,2024-07-20,123,126
VISION-NSCLC,HO,VISION-NSCLC-SITE002-0095,1,Oedema peripheral,Oedema peripheral,HOSPITALIZATION,TREATMENT,2024-05-07,2024-05-21,36,50
VISION-NSCLC,HO,VISION-NSCLC-SITE002-0101,1,Alanine aminotransferase increased,Alanine aminotransferase increased,HOSPITALIZATION,TREATMENT,2024-07-21,2024-08-01,139,150
VISION-NSCLC,HO,VISION-NSCLC-SITE002-0104,1,Oedema peripheral,Oedema peripheral,HOSPITALIZATION,TREATMENT,2024-02-16,2024-02-28,17,29
VISION-NSCLC,HO,VISION-NSCLC-SITE002-0104,2,Hypoalbuminaemia,Hypoalbuminaemia,HOSPITALIZATION,TREATMENT,2024-02-21,2024-03-04,22,34
VISION-NSCLC,HO,VISION-NSCLC-SITE002-0116,1,Dyspnoea,Dyspnoea,HOSPITALIZATION,TREATMENT,2024-07-06,2024-07-16,139,149
VISION-NSCLC,HO,VISION-NSCLC-SITE002-0128,1,Nausea,Nausea,HOSPITALIZATION,TREATMENT,2024-08-09,2024-08-14,142,147
VISION-NSCLC,HO,VISION-NSCLC-SITE002-0128,2,Fatigue,Fatigue,HOSPITALIZATION,TREATMENT,2024-08-15,2024-08-24,148,157
VISION-NSCLC,HO,VISION-NSCLC-SITE002-0131,1,Fatigue,Fatigue,HOSPITALIZATION,TREATMENT,2024-08-14,2024-08-17,114,117
VISION-NSCLC,HO,VISION-NSCLC-SITE002-0134,1,Aspartate aminotransferase increased,Aspartate aminotransferase increased,HOSPITALIZATION,TREATMENT,2024-08-08,2024-08-17,153,162
VISION-NSCLC,HO,VISION-NSCLC-SITE002-0143,1,Nausea,Nausea,HOSPITALIZATION,TREATMENT,2024-07-03,2024-07-20,111,128
VISION-NSCLC,HO,VISION-NSCLC-SITE002-0143,2,Nausea,Nausea,HOSPITALIZATION,TREATMENT,2024-08-03,2024-08-09,142,148
VISION-NSCLC,HO,VISION-NSCLC-SITE002-0149,1,Oedema peripheral,Oedema peripheral,EMERGENCY ROOM VISIT,TREATMENT,2024-09-09,2024-09-17,163,171
VISION-NSCLC,HO,VISION-NSCLC-SITE003-0003,1,Pneumonia,Pneumonia,HOSPITALIZATION,TREATMENT,2024-06-09,2024-06-21,84,96
VISION-NSCLC,HO,VISION-NSCLC-SITE003-0003,2,Fatigue,Fatigue,HOSPITALIZATION,TREATMENT,2024-07-27,2024-07-27,132,132
VISION-NSCLC,HO,VISION-NSCLC-SITE003-0006,1,Fatigue,Fatigue,EMERGENCY ROOM VISIT,TREATMENT,2024-07-29,2024-08-06,148,156
VISION-NSCLC,HO,VISION-NSCLC-SITE003-0009,1,Fatigue,Fatigue,HOSPITALIZATION,TREATMENT,2024-06-30,2024-07-03,83,86
VISION-NSCLC,HO,VISION-NSCLC-SITE003-0012,1,Vomiting,Vomiting,HOSPITALIZATION,TREATMENT,2024-05-13,2024-05-29,40,56
VISION-NSCLC,HO,VISION-NSCLC-SITE003-0021,1,Vomiting,Vomiting,HOSPITALIZATION,TREATMENT,2024-04-02,2024-04-12,42,52
VISION-NSCLC,HO,VISION-NSCLC-SITE003-0039,1,Nausea,Nausea,HOSPITALIZATION,TREATMENT,2024-04-30,2024-05-16,62,78
VISION-NSCLC,HO,VISION-NSCLC-SITE003-0042,1,Aspartate aminotransferase increased,Aspartate aminotransferase increased,HOSPITALIZATION,TREATMENT,2024-08-22,2024-09-03,151,163
VISION-NSCLC,HO,VISION-NSCLC-SITE003-0048,1,Aspartate aminotransferase increased,Aspartate aminotransferase increased,EMERGENCY ROOM VISIT,TREATMENT,2024-05-07,2024-05-10,21,24
VISION-NSCLC,HO,VISION-NSCLC-SITE003-0048,2,Fatigue,Fatigue,HOSPITALIZATION,TREATMENT,2024-06-24,2024-07-06,69,81
VISION-NSCLC,HO,VISION-NSCLC-SITE003-0048,3,Oedema peripheral,Oedema peripheral,HOSPITALIZATION,TREATMENT,2024-09-23,2024-09-26,160,163
VISION-NSCLC,HO,VISION-NSCLC-SITE003-0051,1,Oedema peripheral,Oedema peripheral,HOSPITALIZATION,TREATMENT,2024-04-28,2024-05-06,25,33
VISION-NSCLC,HO,VISION-NSCLC-SITE003-0051,2,Diarrhoea,Diarrhoea,HOSPITALIZATION,TREATMENT,2024-06-03,2024-06-16,61,74
VISION-NSCLC,HO,VISION-NSCLC-SITE003-0054,1,Nausea,Nausea,EMERGENCY ROOM VISIT,TREATMENT,2024-04-22,2024-05-02,88,98
VISION-NSCLC,HO,VISION-NSCLC-SITE003-0060,1,Nausea,Nausea,HOSPITALIZATION,TREATMENT,2024-04-18,2024-05-07,25,44
VISION-NSCLC,HO,VISION-NSCLC-SITE003-0060,2,Pleural effusion,Pleural effusion,HOSPITALIZATION,TREATMENT,2024-08-14,2024-08-22,143,151
VISION-NSCLC,HO,VISION-NSCLC-SITE003-0063,1,Decreased appetite,Decreased appetite,HOSPITALIZATION,TREATMENT,2024-03-10,2024-03-18,12,20
VISION-NSCLC,HO,VISION-NSCLC-SITE003-0063,2,Dyspnoea,Dyspnoea,HOSPITALIZATION,TREATMENT,2024-03-12,2024-03-24,14,26
VISION-NSCLC,HO,VISION-NSCLC-SITE003-0063,3,Pleural effusion,Pleural effusion,HOSPITALIZATION,TREATMENT,2024-03-25,2024-04-05,27,38
VISION-NSCLC,HO,VISION-NSCLC-SITE003-0063,4,Vomiting,Vomiting,EMERGENCY ROOM VISIT,TREATMENT,2024-05-30,2024-06-13,93,107
VISION-NSCLC,HO,VISION-NSCLC-SITE003-0063,5,Oedema peripheral,Oedema peripheral,EMERGENCY ROOM VISIT,TREATMENT,2024-06-02,2024-06-12,96,106
VISION-NSCLC,HO,VISION-NSCLC-SITE003-0063,6,Pleural effusion,Pleural effusion,HOSPITALIZATION,TREATMENT,2024-06-11,2024-06-18,105,112
VISION-NSCLC,HO,VISION-NSCLC-SITE003-0063,7,Diarrhoea,Diarrhoea,HOSPITALIZATION,TREATMENT,2024-07-21,2024-08-02,145,157
VISION-NSCLC,HO,VISION-NSCLC-SITE003-0066,1,Oedema peripheral,Oedema peripheral,EMERGENCY ROOM VISIT,TREATMENT,2024-06-23,2024-06-28,124,129
VISION-NSCLC,HO,VISION-NSCLC-SITE003-0072,1,Diarrhoea,Diarrhoea,HOSPITALIZATION,TREATMENT,2024-05-22,2024-06-08,46,63
VISION-NSCLC,HO,VISION-NSCLC-SITE003-0072,2,Oedema peripheral,Oedema peripheral,HOSPITALIZATION,TREATMENT,2024-06-28,2024-07-02,83,87
VISION-NSCLC,HO,VISION-NSCLC-SITE003-0075,1,Diarrhoea,Diarrhoea,HOSPITALIZATION,TREATMENT,2024-04-24,2024-05-03,16,25
VISION-NSCLC,HO,VISION-NSCLC-SITE003-0075,2,Pleural effusion,Pleural effusion,EMERGENCY ROOM VISIT,TREATMENT,2024-08-30,2024-09-16,144,161
VISION-NSCLC,HO,VISION-NSCLC-SITE003-0078,1,Cytokine release syndrome,Cytokine release syndrome,HOSPITALIZATION,TREATMENT,2024-04-14,2024-04-28,17,31
VISION-NSCLC,HO,VISION-NSCLC-SITE003-0078,2,Oedema peripheral,Oedema peripheral,HOSPITALIZATION,TREATMENT,2024-07-31,2024-07-31,125,125
VISION-NSCLC,HO,VISION-NSCLC-SITE003-0087,1,Nausea,Nausea,EMERGENCY ROOM VISIT,TREATMENT,2024-02-20,2024-02-20,17,17
VISION-NSCLC,HO,VISION-NSCLC-SITE003-0093,1,Dyspnoea,Dyspnoea,HOSPITALIZATION,TREATMENT,2024-04-28,2024-05-02,8,12
VISION-NSCLC,HO,VISION-NSCLC-SITE003-0093,2,Diarrhoea,Diarrhoea,HOSPITALIZATION,TREATMENT,2024-05-01,2024-05-09,11,19
VISION-NSCLC,HO,VISION-NSCLC-SITE003-0093,3,Hypoalbuminaemia,Hypoalbuminaemia,HOSPITALIZATION,TREATMENT,2024-06-17,2024-06-25,58,66
VISION-NSCLC,HO,VISION-NSCLC-SITE003-0093,4,Fatigue,Fatigue,HOSPITALIZATION,TREATMENT,2024-07-21,2024-07-29,92,100
VISION-NSCLC,HO,VISION-NSCLC-SITE003-0093,5,Oedema peripheral,Oedema peripheral,HOSPITALIZATION,TREATMENT,2024-07-22,2024-07-25,93,96
VISION-NSCLC,HO,VISION-NSCLC-SITE003-0093,6,Nausea,Nausea,HOSPITALIZATION,TREATMENT,2024-08-10,2024-08-21,112,123
VISION-NSCLC,HO,VISION-NSCLC-SITE003-0096,1,Decreased appetite,Decreased appetite,HOSPITALIZATION,TREATMENT,2024-06-10,2024-06-14,53,57
VISION-NSCLC,HO,VISION-NSCLC-SITE003-0102,1,Oedema peripheral,Oedema peripheral,HOSPITALIZATION,TREATMENT,2024-06-14,2024-06-23,46,55
VISION-NSCLC,HO,VISION-NSCLC-SITE003-0102,2,Myocardial infarction,Myocardial infarction,HOSPITALIZATION,TREATMENT,2024-06-30,2024-07-04,62,66
VISION-NSCLC,HO,VISION-NSCLC-SITE003-0102,3,Vomiting,Vomiting,HOSPITALIZATION,TREATMENT,2024-08-18,2024-08-18,111,111
VISION-NSCLC,HO,VISION-NSCLC-SITE003-0105,1,Vomiting,Vomiting,HOSPITALIZATION,TREATMENT,2024-06-25,2024-07-07,67,79
VISION-NSCLC,HO,VISION-NSCLC-SITE003-0105,2,Aspartate aminotransferase increased,Aspartate aminotransferase increased,HOSPITALIZATION,TREATMENT,2024-07-14,2024-07-30,86,102
VISION-NSCLC,HO,VISION-NSCLC-SITE003-0105,3,Dyspnoea,Dyspnoea,HOSPITALIZATION,TREATMENT,2024-07-17,2024-07-24,89,96
VISION-NSCLC,HO,VISION-NSCLC-SITE003-0114,1,Diarrhoea,Diarrhoea,HOSPITALIZATION,TREATMENT,2024-07-21,2024-07-24,131,134
VISION-NSCLC,HO,VISION-NSCLC-SITE003-0114,2,Decreased appetite,Decreased appetite,HOSPITALIZATION,TREATMENT,2024-08-02,2024-08-14,143,155
VISION-NSCLC,HO,VISION-NSCLC-SITE003-0117,1,Decreased appetite,Decreased appetite,HOSPITALIZATION,TREATMENT,2024-03-12,2024-03-25,11,24
VISION-NSCLC,HO,VISION-NSCLC-SITE003-0120,1,Dyspnoea,Dyspnoea,HOSPITALIZATION,TREATMENT,2024-08-18,2024-08-26,129,137
VISION-NSCLC,HO,VISION-NSCLC-SITE003-0120,2,Diarrhoea,Diarrhoea,HOSPITALIZATION,TREATMENT,2024-09-26,2024-10-13,168,185
VISION-NSCLC,HO,VISION-NSCLC-SITE003-0126,1,Pleural effusion,Pleural effusion,EMERGENCY ROOM VISIT,TREATMENT,2024-06-10,2024-06-13,113,116
VISION-NSCLC,HO,VISION-NSCLC-SITE003-0129,1,Nausea,Nausea,HOSPITALIZATION,TREATMENT,2024-06-07,2024-06-11,134,138
VISION-NSCLC,HO,VISION-NSCLC-SITE003-0150,1,Pneumonia,Pneumonia,HOSPITALIZATION,TREATMENT,2024-05-04,2024-05-17,33,46
VISION-NSCLC,HO,VISION-NSCLC-SITE003-0150,2,Decreased appetite,Decreased appetite,HOSPITALIZATION,TREATMENT,2024-07-02,2024-07-11,92,101
VISION-NSCLC,HO,VISION-NSCLC-SITE003-0150,3,Fatigue,Fatigue,HOSPITALIZATION,TREATMENT,2024-08-13,2024-08-22,134,143
