STUDYID,DOMAIN,USUBJID,AESEQ,AELNKID,AETERM,AELLT,AELLTCD,AEDECOD,AEPTCD,AEHLT,AEHLTCD,AEHLGT,AEHLGTCD,AEBODSYS,AEBDSYCD,AESOC,AESOCCD,AESEV,AESER,AEACN,AEREL,AEOUT,AESCONG,AESDISAB,AESDTH,AESHOSP,AESLIFE,AESMIE,EPOCH,AESTDTC,AEENDTC,AESTDY,AEENDY,AEENRF
GB001-ASTHMA-201,AE,GB001-ASTHMA-201-SITE001-0001,1,AE1,NASOPHARYNGITIS,Nasopharyngitis,,Nasopharyngitis,10028810,Upper respiratory tract infections,10046309,Upper respiratory tract infections,10046309,Infections and infestations,10021881,Infections and infestations,10021881,MODERATE,N,DOSE NOT CHANGED,NOT RELATED,RECOVERED/RESOLVED,N,N,N,N,N,N,TREATMENT,2024-04-12,2024-05-02,20,40,
GB001-ASTHMA-201,AE,GB001-ASTHMA-201-SITE001-0001,2,AE2,SINUSITIS,Sinusitis,,Sinusitis,10040753,Upper respiratory tract infections,10046309,Upper respiratory tract infections,10046309,Infections and infestations,10021881,Infections and infestations,10021881,SEVERE,Y,DOSE NOT CHANGED,NOT RELATED,RECOVERED/RESOLVED,N,N,N,Y,N,N,TREATMENT,2024-05-18,2024-07-13,56,112,
GB001-ASTHMA-201,AE,GB001-ASTHMA-201-SITE001-0004,1,AE1,UPPER RESPIRATORY TRACT INFECTION,Upper respiratory tract infection,,Upper respiratory tract infection,10046306,Upper respiratory tract infections,10046309,Upper respiratory tract infections,10046309,Infections and infestations,10021881,Infections and infestations,10021881,MILD,N,DOSE REDUCED,PROBABLY RELATED,RECOVERING/RESOLVING,N,N,N,N,N,N,TREATMENT,2024-04-21,2024-05-01,11,21,
GB001-ASTHMA-201,AE,GB001-ASTHMA-201-SITE001-0004,2,AE2,UPPER RESPIRATORY TRACT INFECTION,Upper respiratory tract infection,,Upper respiratory tract infection,10046306,Upper respiratory tract infections,10046309,Upper respiratory tract infections,10046309,Infections and infestations,10021881,Infections and infestations,10021881,MODERATE,N,DOSE NOT CHANGED,UNLIKELY RELATED,RECOVERING/RESOLVING,N,N,N,N,N,N,TREATMENT,2024-04-23,2024-05-23,13,43,
GB001-ASTHMA-201,AE,GB001-ASTHMA-201-SITE001-0004,3,AE3,BACK PAIN,Back pain,,Back pain,10003988,Spinal column and cord signs and symptoms,10041367,Musculoskeletal and connective tissue signs and symptoms NEC,10063536,Musculoskeletal and connective tissue disorders,10028395,Musculoskeletal and connective tissue disorders,10028395,MILD,N,DOSE NOT CHANGED,NOT RELATED,RECOVERED/RESOLVED,N,N,N,N,N,N,TREATMENT,2024-05-28,2024-05-30,48,50,
GB001-ASTHMA-201,AE,GB001-ASTHMA-201-SITE001-0004,4,AE4,SINUSITIS,Sinusitis,,Sinusitis,10040753,Upper respiratory tract infections,10046309,Upper respiratory tract infections,10046309,Infections and infestations,10021881,Infections and infestations,10021881,SEVERE,Y,DRUG WITHDRAWN,POSSIBLY RELATED,NOT RECOVERED/NOT RESOLVED,N,N,N,Y,N,N,TREATMENT,2024-05-30,,50,,DURING/AFTER
GB001-ASTHMA-201,AE,GB001-ASTHMA-201-SITE001-0007,1,AE1,PNEUMONIA,Pneumonia,,Pneumonia,10035664,Lower respiratory and lung infections,10024968,Infections NEC,10021902,Infections and infestations,10021881,Infections and infestations,10021881,MODERATE,N,DOSE NOT CHANGED,NOT RELATED,RECOVERED/RESOLVED,N,N,N,N,N,N,TREATMENT,2024-04-11,2024-04-20,6,15,
GB001-ASTHMA-201,AE,GB001-ASTHMA-201-SITE001-0007,2,AE2,BRONCHITIS,Bronchitis,,Bronchitis,10006451,Lower respiratory tract and lung infections,10024968,Infections NEC,10021902,Infections and infestations,10021881,Infections and infestations,10021881,MODERATE,N,DOSE NOT CHANGED,NOT RELATED,RECOVERED/RESOLVED,N,N,N,N,N,N,TREATMENT,2024-04-13,2024-05-05,8,30,
GB001-ASTHMA-201,AE,GB001-ASTHMA-201-SITE001-0007,3,AE3,ASTHMA,Asthma,,Asthma,10003553,Bronchospasm and obstruction,10006482,Lower respiratory tract conditions (excl obstruction and infection),10063481,"Respiratory, thoracic and mediastinal disorders",10038738,"Respiratory, thoracic and mediastinal disorders",10038738,SEVERE,Y,DOSE NOT CHANGED,NOT RELATED,RECOVERED/RESOLVED,N,N,N,N,N,Y,TREATMENT,2024-04-25,2024-06-08,20,64,
GB001-ASTHMA-201,AE,GB001-ASTHMA-201-SITE001-0007,4,AE4,SINUSITIS,Sinusitis,,Sinusitis,10040753,Upper respiratory tract infections,10046309,Upper respiratory tract infections,10046309,Infections and infestations,10021881,Infections and infestations,10021881,MODERATE,N,DOSE NOT CHANGED,NOT RELATED,RECOVERING/RESOLVING,N,N,N,N,N,N,TREATMENT,2024-05-07,2024-05-14,32,39,
GB001-ASTHMA-201,AE,GB001-ASTHMA-201-SITE001-0007,5,AE5,HEADACHE,Headache,,Headache,10019211,Headaches NEC,10019233,Headaches,10019231,Nervous system disorders,10029205,Nervous system disorders,10029205,MODERATE,N,DOSE NOT CHANGED,NOT RELATED,RECOVERED/RESOLVED,N,N,N,N,N,N,TREATMENT,2024-06-05,2024-06-07,61,63,
GB001-ASTHMA-201,AE,GB001-ASTHMA-201-SITE001-0010,1,AE1,NASOPHARYNGITIS,Nasopharyngitis,,Nasopharyngitis,10028810,Upper respiratory tract infections,10046309,Upper respiratory tract infections,10046309,Infections and infestations,10021881,Infections and infestations,10021881,SEVERE,Y,DOSE NOT CHANGED,NOT RELATED,RECOVERED/RESOLVED,N,N,N,Y,N,N,TREATMENT,2024-05-13,2024-06-29,11,58,
GB001-ASTHMA-201,AE,GB001-ASTHMA-201-SITE001-0010,2,AE2,PNEUMONIA,Pneumonia,,Pneumonia,10035664,Lower respiratory and lung infections,10024968,Infections NEC,10021902,Infections and infestations,10021881,Infections and infestations,10021881,MILD,N,DOSE NOT CHANGED,NOT RELATED,RECOVERED/RESOLVED,N,N,N,N,N,N,TREATMENT,2024-05-20,2024-05-26,18,24,
GB001-ASTHMA-201,AE,GB001-ASTHMA-201-SITE001-0010,3,AE3,BACK PAIN,Back pain,,Back pain,10003988,Spinal column and cord signs and symptoms,10041367,Musculoskeletal and connective tissue signs and symptoms NEC,10063536,Musculoskeletal and connective tissue disorders,10028395,Musculoskeletal and connective tissue disorders,10028395,MODERATE,N,DOSE NOT CHANGED,UNLIKELY RELATED,RECOVERED/RESOLVED,N,N,N,N,N,N,TREATMENT,2024-06-14,2024-06-15,43,44,
GB001-ASTHMA-201,AE,GB001-ASTHMA-201-SITE001-0010,4,AE4,NASOPHARYNGITIS,Nasopharyngitis,,Nasopharyngitis,10028810,Upper respiratory tract infections,10046309,Upper respiratory tract infections,10046309,Infections and infestations,10021881,Infections and infestations,10021881,MILD,N,DOSE NOT CHANGED,NOT RELATED,NOT RECOVERED/NOT RESOLVED,N,N,N,N,N,N,TREATMENT,2024-06-14,,43,,DURING/AFTER
GB001-ASTHMA-201,AE,GB001-ASTHMA-201-SITE001-0010,5,AE5,COUGH,Cough,,Cough,10011224,Coughing and associated symptoms,10011228,Respiratory tract signs and symptoms,10038734,"Respiratory, thoracic and mediastinal disorders",10038738,"Respiratory, thoracic and mediastinal disorders",10038738,SEVERE,Y,DOSE NOT CHANGED,NOT RELATED,RECOVERED/RESOLVED,N,N,N,Y,N,N,TREATMENT,2024-07-17,2024-08-20,76,110,
GB001-ASTHMA-201,AE,GB001-ASTHMA-201-SITE001-0013,1,AE1,NAUSEA,Nausea,,Nausea,10028813,Nausea and vomiting symptoms,10028817,Gastrointestinal signs and symptoms,10017999,Gastrointestinal disorders,10017947,Gastrointestinal disorders,10017947,SEVERE,Y,DOSE NOT CHANGED,NOT RELATED,NOT RECOVERED/NOT RESOLVED,N,N,N,Y,N,N,TREATMENT,2024-06-16,,73,,DURING/AFTER
GB001-ASTHMA-201,AE,GB001-ASTHMA-201-SITE001-0022,1,AE1,BACK PAIN,Back pain,,Back pain,10003988,Spinal column and cord signs and symptoms,10041367,Musculoskeletal and connective tissue signs and symptoms NEC,10063536,Musculoskeletal and connective tissue disorders,10028395,Musculoskeletal and connective tissue disorders,10028395,MILD,N,DOSE NOT CHANGED,UNLIKELY RELATED,RECOVERED/RESOLVED,N,N,N,N,N,N,TREATMENT,2024-04-11,2024-04-12,3,4,
GB001-ASTHMA-201,AE,GB001-ASTHMA-201-SITE001-0022,2,AE2,COUGH,Cough,,Cough,10011224,Coughing and associated symptoms,10011228,Respiratory tract signs and symptoms,10038734,"Respiratory, thoracic and mediastinal disorders",10038738,"Respiratory, thoracic and mediastinal disorders",10038738,SEVERE,Y,DOSE NOT CHANGED,NOT RELATED,RECOVERED/RESOLVED,N,N,N,Y,N,N,TREATMENT,2024-05-04,2024-05-09,26,31,
GB001-ASTHMA-201,AE,GB001-ASTHMA-201-SITE001-0022,3,AE3,OROPHARYNGEAL PAIN,Oropharyngeal pain,,Oropharyngeal pain,10068319,Oral soft tissue conditions NEC,10068876,Oral soft tissue conditions,10061998,Gastrointestinal disorders,10017947,Gastrointestinal disorders,10017947,MILD,N,DOSE NOT CHANGED,UNLIKELY RELATED,RECOVERED/RESOLVED,N,N,N,N,N,N,TREATMENT,2024-06-10,2024-06-20,63,73,
GB001-ASTHMA-201,AE,GB001-ASTHMA-201-SITE001-0022,4,AE4,ASTHMA,Asthma,,Asthma,10003553,Bronchospasm and obstruction,10006482,Lower respiratory tract conditions (excl obstruction and infection),10063481,"Respiratory, thoracic and mediastinal disorders",10038738,"Respiratory, thoracic and mediastinal disorders",10038738,SEVERE,Y,DOSE NOT CHANGED,NOT RELATED,RECOVERED/RESOLVED,N,N,N,Y,N,N,TREATMENT,2024-06-21,2024-06-22,74,75,
GB001-ASTHMA-201,AE,GB001-ASTHMA-201-SITE001-0028,1,AE1,HEADACHE,Headache,,Headache,10019211,Headaches NEC,10019233,Headaches,10019231,Nervous system disorders,10029205,Nervous system disorders,10029205,SEVERE,Y,DOSE NOT CHANGED,NOT RELATED,RECOVERED/RESOLVED,N,N,N,Y,N,N,TREATMENT,2024-03-15,2024-03-22,9,16,
GB001-ASTHMA-201,AE,GB001-ASTHMA-201-SITE001-0028,2,AE2,NASOPHARYNGITIS,Nasopharyngitis,,Nasopharyngitis,10028810,Upper respiratory tract infections,10046309,Upper respiratory tract infections,10046309,Infections and infestations,10021881,Infections and infestations,10021881,SEVERE,Y,DOSE NOT CHANGED,NOT RELATED,RECOVERED/RESOLVED,N,N,N,Y,N,N,TREATMENT,2024-04-17,2024-06-01,42,87,
GB001-ASTHMA-201,AE,GB001-ASTHMA-201-SITE001-0031,1,AE1,NASOPHARYNGITIS,Nasopharyngitis,,Nasopharyngitis,10028810,Upper respiratory tract infections,10046309,Upper respiratory tract infections,10046309,Infections and infestations,10021881,Infections and infestations,10021881,MILD,N,DOSE NOT CHANGED,NOT RELATED,RECOVERED/RESOLVED,N,N,N,N,N,N,TREATMENT,2024-04-04,2024-04-17,11,24,
GB001-ASTHMA-201,AE,GB001-ASTHMA-201-SITE001-0040,1,AE1,HEADACHE,Headache,,Headache,10019211,Headaches NEC,10019233,Headaches,10019231,Nervous system disorders,10029205,Nervous system disorders,10029205,SEVERE,Y,DOSE NOT CHANGED,NOT RELATED,RECOVERED/RESOLVED,N,N,N,Y,N,N,TREATMENT,2024-05-26,2024-06-08,21,34,
GB001-ASTHMA-201,AE,GB001-ASTHMA-201-SITE001-0040,2,AE2,NASOPHARYNGITIS,Nasopharyngitis,,Nasopharyngitis,10028810,Upper respiratory tract infections,10046309,Upper respiratory tract infections,10046309,Infections and infestations,10021881,Infections and infestations,10021881,MILD,N,DOSE NOT CHANGED,UNLIKELY RELATED,RECOVERED/RESOLVED,N,N,N,N,N,N,TREATMENT,2024-07-11,2024-07-20,67,76,
GB001-ASTHMA-201,AE,GB001-ASTHMA-201-SITE001-0043,1,AE1,NASOPHARYNGITIS,Nasopharyngitis,,Nasopharyngitis,10028810,Upper respiratory tract infections,10046309,Upper respiratory tract infections,10046309,Infections and infestations,10021881,Infections and infestations,10021881,MILD,N,DOSE NOT CHANGED,PROBABLY RELATED,RECOVERED/RESOLVED,N,N,N,N,N,N,TREATMENT,2024-04-12,2024-04-14,38,40,
GB001-ASTHMA-201,AE,GB001-ASTHMA-201-SITE001-0043,2,AE2,BACK PAIN,Back pain,,Back pain,10003988,Spinal column and cord signs and symptoms,10041367,Musculoskeletal and connective tissue signs and symptoms NEC,10063536,Musculoskeletal and connective tissue disorders,10028395,Musculoskeletal and connective tissue disorders,10028395,MILD,N,DOSE NOT CHANGED,POSSIBLY RELATED,RECOVERING/RESOLVING,N,N,N,N,N,N,TREATMENT,2024-05-02,2024-05-05,58,61,
GB001-ASTHMA-201,AE,GB001-ASTHMA-201-SITE001-0046,1,AE1,COUGH,Cough,,Cough,10011224,Coughing and associated symptoms,10011228,Respiratory tract signs and symptoms,10038734,"Respiratory, thoracic and mediastinal disorders",10038738,"Respiratory, thoracic and mediastinal disorders",10038738,MILD,N,DOSE NOT CHANGED,UNLIKELY RELATED,RECOVERED/RESOLVED,N,N,N,N,N,N,TREATMENT,2024-03-15,2024-03-26,7,18,
GB001-ASTHMA-201,AE,GB001-ASTHMA-201-SITE001-0046,2,AE2,ASTHMA,Asthma,,Asthma,10003553,Bronchospasm and obstruction,10006482,Lower respiratory tract conditions (excl obstruction and infection),10063481,"Respiratory, thoracic and mediastinal disorders",10038738,"Respiratory, thoracic and mediastinal disorders",10038738,MODERATE,N,DOSE NOT CHANGED,UNLIKELY RELATED,RECOVERED/RESOLVED,N,N,N,N,N,N,TREATMENT,2024-05-11,2024-05-12,64,65,
GB001-ASTHMA-201,AE,GB001-ASTHMA-201-SITE001-0046,3,AE3,OROPHARYNGEAL PAIN,Oropharyngeal pain,,Oropharyngeal pain,10068319,Oral soft tissue conditions NEC,10068876,Oral soft tissue conditions,10061998,Gastrointestinal disorders,10017947,Gastrointestinal disorders,10017947,MODERATE,N,DOSE NOT CHANGED,POSSIBLY RELATED,RECOVERED/RESOLVED,N,N,N,N,N,N,TREATMENT,2024-05-14,2024-05-15,67,68,
GB001-ASTHMA-201,AE,GB001-ASTHMA-201-SITE001-0046,4,AE4,BRONCHITIS,Bronchitis,,Bronchitis,10006451,Lower respiratory tract and lung infections,10024968,Infections NEC,10021902,Infections and infestations,10021881,Infections and infestations,10021881,MODERATE,N,DOSE REDUCED,POSSIBLY RELATED,RECOVERED/RESOLVED,N,N,N,N,N,N,TREATMENT,2024-05-17,2024-05-18,70,71,
GB001-ASTHMA-201,AE,GB001-ASTHMA-201-SITE001-0046,5,AE5,NASOPHARYNGITIS,Nasopharyngitis,,Nasopharyngitis,10028810,Upper respiratory tract infections,10046309,Upper respiratory tract infections,10046309,Infections and infestations,10021881,Infections and infestations,10021881,MILD,N,DOSE REDUCED,RELATED,RECOVERED/RESOLVED,N,N,N,N,N,N,TREATMENT,2024-05-24,2024-05-27,77,80,
GB001-ASTHMA-201,AE,GB001-ASTHMA-201-SITE001-0049,1,AE1,BACK PAIN,Back pain,,Back pain,10003988,Spinal column and cord signs and symptoms,10041367,Musculoskeletal and connective tissue signs and symptoms NEC,10063536,Musculoskeletal and connective tissue disorders,10028395,Musculoskeletal and connective tissue disorders,10028395,MODERATE,N,DOSE NOT CHANGED,UNLIKELY RELATED,RECOVERED/RESOLVED,N,N,N,N,N,N,TREATMENT,2024-03-28,2024-03-31,24,27,
GB001-ASTHMA-201,AE,GB001-ASTHMA-201-SITE001-0049,2,AE2,UPPER RESPIRATORY TRACT INFECTION,Upper respiratory tract infection,,Upper respiratory tract infection,10046306,Upper respiratory tract infections,10046309,Upper respiratory tract infections,10046309,Infections and infestations,10021881,Infections and infestations,10021881,MILD,N,DOSE NOT CHANGED,NOT RELATED,RECOVERED/RESOLVED,N,N,N,N,N,N,TREATMENT,2024-04-01,2024-04-02,28,29,
GB001-ASTHMA-201,AE,GB001-ASTHMA-201-SITE001-0049,3,AE3,BACK PAIN,Back pain,,Back pain,10003988,Spinal column and cord signs and symptoms,10041367,Musculoskeletal and connective tissue signs and symptoms NEC,10063536,Musculoskeletal and connective tissue disorders,10028395,Musculoskeletal and connective tissue disorders,10028395,MILD,N,DOSE NOT CHANGED,NOT RELATED,RECOVERING/RESOLVING,N,N,N,N,N,N,TREATMENT,2024-04-13,2024-04-21,40,48,
GB001-ASTHMA-201,AE,GB001-ASTHMA-201-SITE001-0052,1,AE1,SINUSITIS,Sinusitis,,Sinusitis,10040753,Upper respiratory tract infections,10046309,Upper respiratory tract infections,10046309,Infections and infestations,10021881,Infections and infestations,10021881,MODERATE,N,DOSE NOT CHANGED,NOT RELATED,RECOVERING/RESOLVING,N,N,N,N,N,N,TREATMENT,2024-04-12,2024-05-11,6,35,
GB001-ASTHMA-201,AE,GB001-ASTHMA-201-SITE001-0052,2,AE2,SINUSITIS,Sinusitis,,Sinusitis,10040753,Upper respiratory tract infections,10046309,Upper respiratory tract infections,10046309,Infections and infestations,10021881,Infections and infestations,10021881,MODERATE,N,DOSE REDUCED,POSSIBLY RELATED,RECOVERED/RESOLVED,N,N,N,N,N,N,TREATMENT,2024-04-19,2024-05-15,13,39,
GB001-ASTHMA-201,AE,GB001-ASTHMA-201-SITE001-0052,3,AE3,UPPER RESPIRATORY TRACT INFECTION,Upper respiratory tract infection,,Upper respiratory tract infection,10046306,Upper respiratory tract infections,10046309,Upper respiratory tract infections,10046309,Infections and infestations,10021881,Infections and infestations,10021881,MILD,N,DOSE REDUCED,POSSIBLY RELATED,RECOVERED/RESOLVED,N,N,N,N,N,N,TREATMENT,2024-04-19,2024-04-22,13,16,
GB001-ASTHMA-201,AE,GB001-ASTHMA-201-SITE001-0052,4,AE4,FATIGUE,Fatigue,,Fatigue,10016256,Asthenic conditions,10003550,General system disorders NEC,10060892,General disorders and administration site conditions,10018065,General disorders and administration site conditions,10018065,MODERATE,N,DOSE NOT CHANGED,NOT RELATED,RECOVERED/RESOLVED,N,N,N,N,N,N,TREATMENT,2024-04-28,2024-05-18,22,42,
GB001-ASTHMA-201,AE,GB001-ASTHMA-201-SITE001-0052,5,AE5,NAUSEA,Nausea,,Nausea,10028813,Nausea and vomiting symptoms,10028817,Gastrointestinal signs and symptoms,10017999,Gastrointestinal disorders,10017947,Gastrointestinal disorders,10017947,MILD,N,DOSE NOT CHANGED,NOT RELATED,RECOVERED/RESOLVED,N,N,N,N,N,N,TREATMENT,2024-05-07,2024-05-08,31,32,
GB001-ASTHMA-201,AE,GB001-ASTHMA-201-SITE001-0052,6,AE6,COUGH,Cough,,Cough,10011224,Coughing and associated symptoms,10011228,Respiratory tract signs and symptoms,10038734,"Respiratory, thoracic and mediastinal disorders",10038738,"Respiratory, thoracic and mediastinal disorders",10038738,MODERATE,N,DOSE NOT CHANGED,UNLIKELY RELATED,RECOVERED/RESOLVED,N,N,N,N,N,N,TREATMENT,2024-05-07,2024-05-31,31,55,
GB001-ASTHMA-201,AE,GB001-ASTHMA-201-SITE001-0052,7,AE7,UPPER RESPIRATORY TRACT INFECTION,Upper respiratory tract infection,,Upper respiratory tract infection,10046306,Upper respiratory tract infections,10046309,Upper respiratory tract infections,10046309,Infections and infestations,10021881,Infections and infestations,10021881,MODERATE,N,DRUG INTERRUPTED,PROBABLY RELATED,RECOVERED/RESOLVED,N,N,N,N,N,N,TREATMENT,2024-05-08,2024-06-03,32,58,
GB001-ASTHMA-201,AE,GB001-ASTHMA-201-SITE001-0052,8,AE8,FATIGUE,Fatigue,,Fatigue,10016256,Asthenic conditions,10003550,General system disorders NEC,10060892,General disorders and administration site conditions,10018065,General disorders and administration site conditions,10018065,MILD,N,DOSE NOT CHANGED,NOT RELATED,RECOVERED/RESOLVED,N,N,N,N,N,N,TREATMENT,2024-05-09,2024-05-20,33,44,
GB001-ASTHMA-201,AE,GB001-ASTHMA-201-SITE001-0052,9,AE9,HEADACHE,Headache,,Headache,10019211,Headaches NEC,10019233,Headaches,10019231,Nervous system disorders,10029205,Nervous system disorders,10029205,MODERATE,N,DOSE NOT CHANGED,NOT RELATED,RECOVERED/RESOLVED,N,N,N,N,N,N,TREATMENT,2024-05-25,2024-05-31,49,55,
GB001-ASTHMA-201,AE,GB001-ASTHMA-201-SITE001-0052,10,AE10,COUGH,Cough,,Cough,10011224,Coughing and associated symptoms,10011228,Respiratory tract signs and symptoms,10038734,"Respiratory, thoracic and mediastinal disorders",10038738,"Respiratory, thoracic and mediastinal disorders",10038738,MODERATE,N,DOSE NOT CHANGED,NOT RELATED,RECOVERED/RESOLVED,N,N,N,N,N,N,TREATMENT,2024-06-04,2024-06-19,59,74,
GB001-ASTHMA-201,AE,GB001-ASTHMA-201-SITE001-0055,1,AE1,UPPER RESPIRATORY TRACT INFECTION,Upper respiratory tract infection,,Upper respiratory tract infection,10046306,Upper respiratory tract infections,10046309,Upper respiratory tract infections,10046309,Infections and infestations,10021881,Infections and infestations,10021881,MODERATE,N,DOSE NOT CHANGED,NOT RELATED,RECOVERING/RESOLVING,N,N,N,N,N,N,TREATMENT,2024-06-30,2024-07-14,71,85,
GB001-ASTHMA-201,AE,GB001-ASTHMA-201-SITE001-0064,1,AE1,OROPHARYNGEAL PAIN,Oropharyngeal pain,,Oropharyngeal pain,10068319,Oral soft tissue conditions NEC,10068876,Oral soft tissue conditions,10061998,Gastrointestinal disorders,10017947,Gastrointestinal disorders,10017947,SEVERE,Y,DOSE NOT CHANGED,UNLIKELY RELATED,RECOVERED/RESOLVED,N,N,N,N,N,Y,TREATMENT,2024-04-10,2024-05-21,12,53,
GB001-ASTHMA-201,AE,GB001-ASTHMA-201-SITE001-0064,2,AE2,COUGH,Cough,,Cough,10011224,Coughing and associated symptoms,10011228,Respiratory tract signs and symptoms,10038734,"Respiratory, thoracic and mediastinal disorders",10038738,"Respiratory, thoracic and mediastinal disorders",10038738,SEVERE,Y,DOSE NOT CHANGED,NOT RELATED,RECOVERING/RESOLVING,N,N,N,Y,N,N,TREATMENT,2024-04-28,2024-06-04,30,67,
GB001-ASTHMA-201,AE,GB001-ASTHMA-201-SITE001-0064,3,AE3,NASOPHARYNGITIS,Nasopharyngitis,,Nasopharyngitis,10028810,Upper respiratory tract infections,10046309,Upper respiratory tract infections,10046309,Infections and infestations,10021881,Infections and infestations,10021881,MILD,N,DOSE NOT CHANGED,NOT RELATED,RECOVERING/RESOLVING,N,N,N,N,N,N,TREATMENT,2024-06-17,2024-06-19,80,82,
GB001-ASTHMA-201,AE,GB001-ASTHMA-201-SITE001-0067,1,AE1,UPPER RESPIRATORY TRACT INFECTION,Upper respiratory tract infection,,Upper respiratory tract infection,10046306,Upper respiratory tract infections,10046309,Upper respiratory tract infections,10046309,Infections and infestations,10021881,Infections and infestations,10021881,MODERATE,N,DOSE NOT CHANGED,NOT RELATED,RECOVERED/RESOLVED,N,N,N,N,N,N,TREATMENT,2024-05-30,2024-06-20,27,48,
GB001-ASTHMA-201,AE,GB001-ASTHMA-201-SITE001-0070,1,AE1,ASTHMA,Asthma,,Asthma,10003553,Bronchospasm and obstruction,10006482,Lower respiratory tract conditions (excl obstruction and infection),10063481,"Respiratory, thoracic and mediastinal disorders",10038738,"Respiratory, thoracic and mediastinal disorders",10038738,MILD,N,DOSE NOT CHANGED,NOT RELATED,RECOVERING/RESOLVING,N,N,N,N,N,N,TREATMENT,2024-04-18,2024-04-30,25,37,
GB001-ASTHMA-201,AE,GB001-ASTHMA-201-SITE001-0070,2,AE2,SINUSITIS,Sinusitis,,Sinusitis,10040753,Upper respiratory tract infections,10046309,Upper respiratory tract infections,10046309,Infections and infestations,10021881,Infections and infestations,10021881,MODERATE,N,DOSE REDUCED,POSSIBLY RELATED,UNKNOWN,N,N,N,N,N,N,TREATMENT,2024-05-20,2024-05-24,57,61,
GB001-ASTHMA-201,AE,GB001-ASTHMA-201-SITE001-0079,1,AE1,SINUSITIS,Sinusitis,,Sinusitis,10040753,Upper respiratory tract infections,10046309,Upper respiratory tract infections,10046309,Infections and infestations,10021881,Infections and infestations,10021881,MODERATE,N,DOSE NOT CHANGED,NOT RELATED,RECOVERED/RESOLVED,N,N,N,N,N,N,TREATMENT,2024-05-26,2024-06-09,28,42,
GB001-ASTHMA-201,AE,GB001-ASTHMA-201-SITE001-0088,1,AE1,HEADACHE,Headache,,Headache,10019211,Headaches NEC,10019233,Headaches,10019231,Nervous system disorders,10029205,Nervous system disorders,10029205,SEVERE,Y,DOSE NOT CHANGED,NOT RELATED,RECOVERING/RESOLVING,N,N,N,Y,N,N,TREATMENT,2024-04-04,2024-04-11,29,36,
GB001-ASTHMA-201,AE,GB001-ASTHMA-201-SITE001-0088,2,AE2,NAUSEA,Nausea,,Nausea,10028813,Nausea and vomiting symptoms,10028817,Gastrointestinal signs and symptoms,10017999,Gastrointestinal disorders,10017947,Gastrointestinal disorders,10017947,SEVERE,Y,DOSE NOT CHANGED,NOT RELATED,RECOVERING/RESOLVING,N,N,N,Y,N,N,TREATMENT,2024-05-18,2024-05-23,73,78,
GB001-ASTHMA-201,AE,GB001-ASTHMA-201-SITE001-0103,1,AE1,COUGH,Cough,,Cough,10011224,Coughing and associated symptoms,10011228,Respiratory tract signs and symptoms,10038734,"Respiratory, thoracic and mediastinal disorders",10038738,"Respiratory, thoracic and mediastinal disorders",10038738,MILD,N,DOSE NOT CHANGED,UNLIKELY RELATED,RECOVERED/RESOLVED,N,N,N,N,N,N,TREATMENT,2024-03-22,2024-03-28,36,42,
GB001-ASTHMA-201,AE,GB001-ASTHMA-201-SITE001-0103,2,AE2,ASTHMA,Asthma,,Asthma,10003553,Bronchospasm and obstruction,10006482,Lower respiratory tract conditions (excl obstruction and infection),10063481,"Respiratory, thoracic and mediastinal disorders",10038738,"Respiratory, thoracic and mediastinal disorders",10038738,MODERATE,N,DOSE NOT CHANGED,NOT RELATED,RECOVERED/RESOLVED,N,N,N,N,N,N,TREATMENT,2024-04-10,2024-04-12,55,57,
GB001-ASTHMA-201,AE,GB001-ASTHMA-201-SITE001-0103,3,AE3,COUGH,Cough,,Cough,10011224,Coughing and associated symptoms,10011228,Respiratory tract signs and symptoms,10038734,"Respiratory, thoracic and mediastinal disorders",10038738,"Respiratory, thoracic and mediastinal disorders",10038738,MILD,N,DOSE NOT CHANGED,NOT RELATED,RECOVERING/RESOLVING,N,N,N,N,N,N,TREATMENT,2024-04-21,2024-05-02,66,77,
GB001-ASTHMA-201,AE,GB001-ASTHMA-201-SITE001-0103,4,AE4,NASOPHARYNGITIS,Nasopharyngitis,,Nasopharyngitis,10028810,Upper respiratory tract infections,10046309,Upper respiratory tract infections,10046309,Infections and infestations,10021881,Infections and infestations,10021881,SEVERE,Y,DOSE NOT CHANGED,NOT RELATED,RECOVERED/RESOLVED,N,N,N,N,N,Y,TREATMENT,2024-04-27,2024-05-22,72,97,
GB001-ASTHMA-201,AE,GB001-ASTHMA-201-SITE001-0106,1,AE1,COUGH,Cough,,Cough,10011224,Coughing and associated symptoms,10011228,Respiratory tract signs and symptoms,10038734,"Respiratory, thoracic and mediastinal disorders",10038738,"Respiratory, thoracic and mediastinal disorders",10038738,MILD,N,DOSE NOT CHANGED,NOT RELATED,RECOVERED/RESOLVED,N,N,N,N,N,N,TREATMENT,2024-03-24,2024-04-06,13,26,
GB001-ASTHMA-201,AE,GB001-ASTHMA-201-SITE001-0112,1,AE1,FATIGUE,Fatigue,,Fatigue,10016256,Asthenic conditions,10003550,General system disorders NEC,10060892,General disorders and administration site conditions,10018065,General disorders and administration site conditions,10018065,MILD,N,DOSE NOT CHANGED,UNLIKELY RELATED,RECOVERED/RESOLVED,N,N,N,N,N,N,TREATMENT,2024-04-12,2024-04-22,2,12,
GB001-ASTHMA-201,AE,GB001-ASTHMA-201-SITE001-0115,1,AE1,HEADACHE,Headache,,Headache,10019211,Headaches NEC,10019233,Headaches,10019231,Nervous system disorders,10029205,Nervous system disorders,10029205,MILD,N,DOSE NOT CHANGED,NOT RELATED,RECOVERED/RESOLVED,N,N,N,N,N,N,TREATMENT,2024-02-21,2024-02-23,1,3,
GB001-ASTHMA-201,AE,GB001-ASTHMA-201-SITE001-0115,2,AE2,HEADACHE,Headache,,Headache,10019211,Headaches NEC,10019233,Headaches,10019231,Nervous system disorders,10029205,Nervous system disorders,10029205,MODERATE,N,DOSE NOT CHANGED,NOT RELATED,RECOVERED/RESOLVED,N,N,N,N,N,N,TREATMENT,2024-03-25,2024-03-28,34,37,
GB001-ASTHMA-201,AE,GB001-ASTHMA-201-SITE001-0115,3,AE3,COUGH,Cough,,Cough,10011224,Coughing and associated symptoms,10011228,Respiratory tract signs and symptoms,10038734,"Respiratory, thoracic and mediastinal disorders",10038738,"Respiratory, thoracic and mediastinal disorders",10038738,MODERATE,N,DOSE REDUCED,POSSIBLY RELATED,RECOVERED/RESOLVED,N,N,N,N,N,N,TREATMENT,2024-04-04,2024-04-19,44,59,
GB001-ASTHMA-201,AE,GB001-ASTHMA-201-SITE001-0115,4,AE4,UPPER RESPIRATORY TRACT INFECTION,Upper respiratory tract infection,,Upper respiratory tract infection,10046306,Upper respiratory tract infections,10046309,Upper respiratory tract infections,10046309,Infections and infestations,10021881,Infections and infestations,10021881,MODERATE,N,DRUG INTERRUPTED,POSSIBLY RELATED,RECOVERED/RESOLVED,N,N,N,N,N,N,TREATMENT,2024-04-16,2024-04-21,56,61,
GB001-ASTHMA-201,AE,GB001-ASTHMA-201-SITE001-0118,1,AE1,UPPER RESPIRATORY TRACT INFECTION,Upper respiratory tract infection,,Upper respiratory tract infection,10046306,Upper respiratory tract infections,10046309,Upper respiratory tract infections,10046309,Infections and infestations,10021881,Infections and infestations,10021881,MILD,N,DOSE NOT CHANGED,POSSIBLY RELATED,NOT RECOVERED/NOT RESOLVED,N,N,N,N,N,N,TREATMENT,2024-04-30,,31,,DURING/AFTER
GB001-ASTHMA-201,AE,GB001-ASTHMA-201-SITE001-0121,1,AE1,HEADACHE,Headache,,Headache,10019211,Headaches NEC,10019233,Headaches,10019231,Nervous system disorders,10029205,Nervous system disorders,10029205,SEVERE,Y,DOSE NOT CHANGED,NOT RELATED,RECOVERED/RESOLVED,N,N,N,Y,N,N,TREATMENT,2024-05-01,2024-05-05,68,72,
GB001-ASTHMA-201,AE,GB001-ASTHMA-201-SITE001-0136,1,AE1,UPPER RESPIRATORY TRACT INFECTION,Upper respiratory tract infection,,Upper respiratory tract infection,10046306,Upper respiratory tract infections,10046309,Upper respiratory tract infections,10046309,Infections and infestations,10021881,Infections and infestations,10021881,MILD,N,DOSE NOT CHANGED,NOT RELATED,RECOVERED/RESOLVED,N,N,N,N,N,N,TREATMENT,2024-04-24,2024-04-29,10,15,
GB001-ASTHMA-201,AE,GB001-ASTHMA-201-SITE001-0136,2,AE2,NAUSEA,Nausea,,Nausea,10028813,Nausea and vomiting symptoms,10028817,Gastrointestinal signs and symptoms,10017999,Gastrointestinal disorders,10017947,Gastrointestinal disorders,10017947,MILD,N,DOSE NOT CHANGED,NOT RELATED,RECOVERED/RESOLVED,N,N,N,N,N,N,TREATMENT,2024-05-10,2024-05-12,26,28,
GB001-ASTHMA-201,AE,GB001-ASTHMA-201-SITE001-0136,3,AE3,SINUSITIS,Sinusitis,,Sinusitis,10040753,Upper respiratory tract infections,10046309,Upper respiratory tract infections,10046309,Infections and infestations,10021881,Infections and infestations,10021881,MODERATE,N,DOSE NOT CHANGED,UNLIKELY RELATED,NOT RECOVERED/NOT RESOLVED,N,N,N,N,N,N,TREATMENT,2024-05-15,,31,,DURING/AFTER
GB001-ASTHMA-201,AE,GB001-ASTHMA-201-SITE001-0142,1,AE1,COUGH,Cough,,Cough,10011224,Coughing and associated symptoms,10011228,Respiratory tract signs and symptoms,10038734,"Respiratory, thoracic and mediastinal disorders",10038738,"Respiratory, thoracic and mediastinal disorders",10038738,MODERATE,N,DOSE NOT CHANGED,NOT RELATED,RECOVERED/RESOLVED,N,N,N,N,N,N,TREATMENT,2024-06-04,2024-06-05,45,46,
GB001-ASTHMA-201,AE,GB001-ASTHMA-201-SITE001-0142,2,AE2,SINUSITIS,Sinusitis,,Sinusitis,10040753,Upper respiratory tract infections,10046309,Upper respiratory tract infections,10046309,Infections and infestations,10021881,Infections and infestations,10021881,MODERATE,N,DOSE NOT CHANGED,NOT RELATED,RECOVERED/RESOLVED,N,N,N,N,N,N,TREATMENT,2024-06-05,2024-06-23,46,64,
GB001-ASTHMA-201,AE,GB001-ASTHMA-201-SITE001-0142,3,AE3,ASTHMA,Asthma,,Asthma,10003553,Bronchospasm and obstruction,10006482,Lower respiratory tract conditions (excl obstruction and infection),10063481,"Respiratory, thoracic and mediastinal disorders",10038738,"Respiratory, thoracic and mediastinal disorders",10038738,MILD,N,DOSE NOT CHANGED,NOT RELATED,RECOVERING/RESOLVING,N,N,N,N,N,N,TREATMENT,2024-06-15,2024-06-16,56,57,
GB001-ASTHMA-201,AE,GB001-ASTHMA-201-SITE001-0148,1,AE1,ASTHMA,Asthma,,Asthma,10003553,Bronchospasm and obstruction,10006482,Lower respiratory tract conditions (excl obstruction and infection),10063481,"Respiratory, thoracic and mediastinal disorders",10038738,"Respiratory, thoracic and mediastinal disorders",10038738,MODERATE,N,DOSE NOT CHANGED,NOT RELATED,RECOVERED/RESOLVED,N,N,N,N,N,N,TREATMENT,2024-05-21,2024-05-31,13,23,
GB001-ASTHMA-201,AE,GB001-ASTHMA-201-SITE001-0148,2,AE2,FATIGUE,Fatigue,,Fatigue,10016256,Asthenic conditions,10003550,General system disorders NEC,10060892,General disorders and administration site conditions,10018065,General disorders and administration site conditions,10018065,MODERATE,N,DOSE NOT CHANGED,NOT RELATED,RECOVERING/RESOLVING,N,N,N,N,N,N,TREATMENT,2024-05-22,2024-06-25,14,48,
GB001-ASTHMA-201,AE,GB001-ASTHMA-201-SITE001-0148,3,AE3,FATIGUE,Fatigue,,Fatigue,10016256,Asthenic conditions,10003550,General system disorders NEC,10060892,General disorders and administration site conditions,10018065,General disorders and administration site conditions,10018065,MILD,N,DOSE NOT CHANGED,NOT RELATED,RECOVERED/RESOLVED,N,N,N,N,N,N,TREATMENT,2024-05-25,2024-06-06,17,29,
GB001-ASTHMA-201,AE,GB001-ASTHMA-201-SITE001-0148,4,AE4,NASOPHARYNGITIS,Nasopharyngitis,,Nasopharyngitis,10028810,Upper respiratory tract infections,10046309,Upper respiratory tract infections,10046309,Infections and infestations,10021881,Infections and infestations,10021881,MODERATE,N,DOSE NOT CHANGED,NOT RELATED,RECOVERED/RESOLVED,N,N,N,N,N,N,TREATMENT,2024-05-28,2024-06-08,20,31,
GB001-ASTHMA-201,AE,GB001-ASTHMA-201-SITE001-0148,5,AE5,HEADACHE,Headache,,Headache,10019211,Headaches NEC,10019233,Headaches,10019231,Nervous system disorders,10029205,Nervous system disorders,10029205,MODERATE,N,DOSE NOT CHANGED,NOT RELATED,RECOVERED/RESOLVED,N,N,N,N,N,N,TREATMENT,2024-06-12,2024-06-19,35,42,
GB001-ASTHMA-201,AE,GB001-ASTHMA-201-SITE001-0148,6,AE6,FATIGUE,Fatigue,,Fatigue,10016256,Asthenic conditions,10003550,General system disorders NEC,10060892,General disorders and administration site conditions,10018065,General disorders and administration site conditions,10018065,MODERATE,N,DRUG INTERRUPTED,POSSIBLY RELATED,RECOVERED/RESOLVED,N,N,N,N,N,N,TREATMENT,2024-06-24,2024-07-18,47,71,
GB001-ASTHMA-201,AE,GB001-ASTHMA-201-SITE001-0154,1,AE1,NAUSEA,Nausea,,Nausea,10028813,Nausea and vomiting symptoms,10028817,Gastrointestinal signs and symptoms,10017999,Gastrointestinal disorders,10017947,Gastrointestinal disorders,10017947,SEVERE,Y,DOSE NOT CHANGED,UNLIKELY RELATED,RECOVERED/RESOLVED,N,N,N,Y,N,N,TREATMENT,2024-04-22,2024-05-03,19,30,
GB001-ASTHMA-201,AE,GB001-ASTHMA-201-SITE001-0154,2,AE2,NASOPHARYNGITIS,Nasopharyngitis,,Nasopharyngitis,10028810,Upper respiratory tract infections,10046309,Upper respiratory tract infections,10046309,Infections and infestations,10021881,Infections and infestations,10021881,MILD,N,DOSE NOT CHANGED,POSSIBLY RELATED,RECOVERED/RESOLVED,N,N,N,N,N,N,TREATMENT,2024-05-19,2024-05-28,46,55,
GB001-ASTHMA-201,AE,GB001-ASTHMA-201-SITE001-0154,3,AE3,UPPER RESPIRATORY TRACT INFECTION,Upper respiratory tract infection,,Upper respiratory tract infection,10046306,Upper respiratory tract infections,10046309,Upper respiratory tract infections,10046309,Infections and infestations,10021881,Infections and infestations,10021881,SEVERE,Y,DOSE NOT CHANGED,NOT RELATED,RECOVERED/RESOLVED,N,N,N,Y,N,N,TREATMENT,2024-06-02,2024-07-10,60,98,
GB001-ASTHMA-201,AE,GB001-ASTHMA-201-SITE001-0154,4,AE4,ASTHMA,Asthma,,Asthma,10003553,Bronchospasm and obstruction,10006482,Lower respiratory tract conditions (excl obstruction and infection),10063481,"Respiratory, thoracic and mediastinal disorders",10038738,"Respiratory, thoracic and mediastinal disorders",10038738,MILD,N,DOSE NOT CHANGED,PROBABLY RELATED,RECOVERED/RESOLVED,N,N,N,N,N,N,TREATMENT,2024-06-14,2024-06-15,72,73,
GB001-ASTHMA-201,AE,GB001-ASTHMA-201-SITE001-0154,5,AE5,COUGH,Cough,,Cough,10011224,Coughing and associated symptoms,10011228,Respiratory tract signs and symptoms,10038734,"Respiratory, thoracic and mediastinal disorders",10038738,"Respiratory, thoracic and mediastinal disorders",10038738,MILD,N,DOSE NOT CHANGED,POSSIBLY RELATED,RECOVERED/RESOLVED,N,N,N,N,N,N,TREATMENT,2024-06-23,2024-06-28,81,86,
GB001-ASTHMA-201,AE,GB001-ASTHMA-201-SITE001-0154,6,AE6,UPPER RESPIRATORY TRACT INFECTION,Upper respiratory tract infection,,Upper respiratory tract infection,10046306,Upper respiratory tract infections,10046309,Upper respiratory tract infections,10046309,Infections and infestations,10021881,Infections and infestations,10021881,MILD,N,DOSE NOT CHANGED,POSSIBLY RELATED,RECOVERING/RESOLVING,N,N,N,N,N,N,TREATMENT,2024-06-24,2024-07-05,82,93,
GB001-ASTHMA-201,AE,GB001-ASTHMA-201-SITE001-0163,1,AE1,UPPER RESPIRATORY TRACT INFECTION,Upper respiratory tract infection,,Upper respiratory tract infection,10046306,Upper respiratory tract infections,10046309,Upper respiratory tract infections,10046309,Infections and infestations,10021881,Infections and infestations,10021881,MILD,N,DOSE NOT CHANGED,NOT RELATED,RECOVERED/RESOLVED,N,N,N,N,N,N,TREATMENT,2024-03-03,2024-03-05,1,3,
GB001-ASTHMA-201,AE,GB001-ASTHMA-201-SITE001-0163,2,AE2,UPPER RESPIRATORY TRACT INFECTION,Upper respiratory tract infection,,Upper respiratory tract infection,10046306,Upper respiratory tract infections,10046309,Upper respiratory tract infections,10046309,Infections and infestations,10021881,Infections and infestations,10021881,SEVERE,Y,DOSE NOT CHANGED,NOT RELATED,RECOVERED/RESOLVED,N,N,N,Y,N,N,TREATMENT,2024-03-09,2024-03-22,7,20,
GB001-ASTHMA-201,AE,GB001-ASTHMA-201-SITE001-0163,3,AE3,HEADACHE,Headache,,Headache,10019211,Headaches NEC,10019233,Headaches,10019231,Nervous system disorders,10029205,Nervous system disorders,10029205,MODERATE,N,DOSE NOT CHANGED,NOT RELATED,RECOVERING/RESOLVING,N,N,N,N,N,N,TREATMENT,2024-03-17,2024-03-21,15,19,
GB001-ASTHMA-201,AE,GB001-ASTHMA-201-SITE001-0163,4,AE4,ASTHMA,Asthma,,Asthma,10003553,Bronchospasm and obstruction,10006482,Lower respiratory tract conditions (excl obstruction and infection),10063481,"Respiratory, thoracic and mediastinal disorders",10038738,"Respiratory, thoracic and mediastinal disorders",10038738,MODERATE,N,DOSE NOT CHANGED,NOT RELATED,RECOVERED/RESOLVED,N,N,N,N,N,N,TREATMENT,2024-03-19,2024-03-28,17,26,
GB001-ASTHMA-201,AE,GB001-ASTHMA-201-SITE001-0163,5,AE5,NASOPHARYNGITIS,Nasopharyngitis,,Nasopharyngitis,10028810,Upper respiratory tract infections,10046309,Upper respiratory tract infections,10046309,Infections and infestations,10021881,Infections and infestations,10021881,MILD,N,DOSE NOT CHANGED,NOT RELATED,RECOVERED/RESOLVED,N,N,N,N,N,N,TREATMENT,2024-03-20,2024-03-28,18,26,
GB001-ASTHMA-201,AE,GB001-ASTHMA-201-SITE001-0163,6,AE6,HEADACHE,Headache,,Headache,10019211,Headaches NEC,10019233,Headaches,10019231,Nervous system disorders,10029205,Nervous system disorders,10029205,SEVERE,Y,DOSE NOT CHANGED,NOT RELATED,RECOVERED/RESOLVED,N,N,N,Y,N,N,TREATMENT,2024-04-12,2024-04-25,41,54,
GB001-ASTHMA-201,AE,GB001-ASTHMA-201-SITE001-0163,7,AE7,HEADACHE,Headache,,Headache,10019211,Headaches NEC,10019233,Headaches,10019231,Nervous system disorders,10029205,Nervous system disorders,10029205,MILD,N,DOSE NOT CHANGED,NOT RELATED,RECOVERING/RESOLVING,N,N,N,N,N,N,TREATMENT,2024-04-21,2024-04-24,50,53,
GB001-ASTHMA-201,AE,GB001-ASTHMA-201-SITE001-0163,8,AE8,HEADACHE,Headache,,Headache,10019211,Headaches NEC,10019233,Headaches,10019231,Nervous system disorders,10029205,Nervous system disorders,10029205,SEVERE,Y,DOSE NOT CHANGED,NOT RELATED,RECOVERED/RESOLVED,N,N,N,Y,N,N,TREATMENT,2024-04-27,2024-05-08,56,67,
GB001-ASTHMA-201,AE,GB001-ASTHMA-201-SITE001-0169,1,AE1,ASTHMA,Asthma,,Asthma,10003553,Bronchospasm and obstruction,10006482,Lower respiratory tract conditions (excl obstruction and infection),10063481,"Respiratory, thoracic and mediastinal disorders",10038738,"Respiratory, thoracic and mediastinal disorders",10038738,MILD,N,DOSE NOT CHANGED,NOT RELATED,RECOVERED/RESOLVED,N,N,N,N,N,N,TREATMENT,2024-07-02,2024-07-09,84,91,
GB001-ASTHMA-201,AE,GB001-ASTHMA-201-SITE001-0172,1,AE1,NASOPHARYNGITIS,Nasopharyngitis,,Nasopharyngitis,10028810,Upper respiratory tract infections,10046309,Upper respiratory tract infections,10046309,Infections and infestations,10021881,Infections and infestations,10021881,MODERATE,N,DOSE NOT CHANGED,NOT RELATED,RECOVERED/RESOLVED,N,N,N,N,N,N,TREATMENT,2024-04-07,2024-04-15,3,11,
GB001-ASTHMA-201,AE,GB001-ASTHMA-201-SITE001-0172,2,AE2,NAUSEA,Nausea,,Nausea,10028813,Nausea and vomiting symptoms,10028817,Gastrointestinal signs and symptoms,10017999,Gastrointestinal disorders,10017947,Gastrointestinal disorders,10017947,MODERATE,N,DRUG INTERRUPTED,POSSIBLY RELATED,RECOVERED/RESOLVED,N,N,N,N,N,N,TREATMENT,2024-04-14,2024-04-15,10,11,
GB001-ASTHMA-201,AE,GB001-ASTHMA-201-SITE001-0172,3,AE3,COUGH,Cough,,Cough,10011224,Coughing and associated symptoms,10011228,Respiratory tract signs and symptoms,10038734,"Respiratory, thoracic and mediastinal disorders",10038738,"Respiratory, thoracic and mediastinal disorders",10038738,SEVERE,Y,DRUG WITHDRAWN,PROBABLY RELATED,RECOVERING/RESOLVING,N,N,N,Y,N,N,TREATMENT,2024-04-15,2024-04-15,11,11,
GB001-ASTHMA-201,AE,GB001-ASTHMA-201-SITE001-0175,1,AE1,HEADACHE,Headache,,Headache,10019211,Headaches NEC,10019233,Headaches,10019231,Nervous system disorders,10029205,Nervous system disorders,10029205,MODERATE,N,DOSE NOT CHANGED,NOT RELATED,RECOVERING/RESOLVING,N,N,N,N,N,N,TREATMENT,2024-04-30,2024-05-07,38,45,
GB001-ASTHMA-201,AE,GB001-ASTHMA-201-SITE001-0178,1,AE1,HEADACHE,Headache,,Headache,10019211,Headaches NEC,10019233,Headaches,10019231,Nervous system disorders,10029205,Nervous system disorders,10029205,SEVERE,Y,DOSE NOT CHANGED,NOT RELATED,RECOVERED/RESOLVED,N,N,N,Y,N,N,TREATMENT,2024-02-12,2024-02-15,2,5,
GB001-ASTHMA-201,AE,GB001-ASTHMA-201-SITE001-0178,2,AE2,FATIGUE,Fatigue,,Fatigue,10016256,Asthenic conditions,10003550,General system disorders NEC,10060892,General disorders and administration site conditions,10018065,General disorders and administration site conditions,10018065,MODERATE,N,DOSE NOT CHANGED,NOT RELATED,RECOVERED/RESOLVED,N,N,N,N,N,N,TREATMENT,2024-02-22,2024-03-21,12,40,
GB001-ASTHMA-201,AE,GB001-ASTHMA-201-SITE001-0178,3,AE3,OROPHARYNGEAL PAIN,Oropharyngeal pain,,Oropharyngeal pain,10068319,Oral soft tissue conditions NEC,10068876,Oral soft tissue conditions,10061998,Gastrointestinal disorders,10017947,Gastrointestinal disorders,10017947,MILD,N,DOSE NOT CHANGED,UNLIKELY RELATED,RECOVERED/RESOLVED,N,N,N,N,N,N,TREATMENT,2024-04-05,2024-04-10,55,60,
GB001-ASTHMA-201,AE,GB001-ASTHMA-201-SITE001-0178,4,AE4,COUGH,Cough,,Cough,10011224,Coughing and associated symptoms,10011228,Respiratory tract signs and symptoms,10038734,"Respiratory, thoracic and mediastinal disorders",10038738,"Respiratory, thoracic and mediastinal disorders",10038738,MODERATE,N,DOSE NOT CHANGED,NOT RELATED,RECOVERED/RESOLVED,N,N,N,N,N,N,TREATMENT,2024-04-18,2024-05-10,68,90,
GB001-ASTHMA-201,AE,GB001-ASTHMA-201-SITE001-0178,5,AE5,ASTHMA,Asthma,,Asthma,10003553,Bronchospasm and obstruction,10006482,Lower respiratory tract conditions (excl obstruction and infection),10063481,"Respiratory, thoracic and mediastinal disorders",10038738,"Respiratory, thoracic and mediastinal disorders",10038738,MILD,N,DOSE NOT CHANGED,NOT RELATED,NOT RECOVERED/NOT RESOLVED,N,N,N,N,N,N,TREATMENT,2024-04-24,,74,,DURING/AFTER
GB001-ASTHMA-201,AE,GB001-ASTHMA-201-SITE001-0181,1,AE1,UPPER RESPIRATORY TRACT INFECTION,Upper respiratory tract infection,,Upper respiratory tract infection,10046306,Upper respiratory tract infections,10046309,Upper respiratory tract infections,10046309,Infections and infestations,10021881,Infections and infestations,10021881,MILD,N,DOSE NOT CHANGED,RELATED,RECOVERING/RESOLVING,N,N,N,N,N,N,TREATMENT,2024-03-03,2024-03-12,8,17,
GB001-ASTHMA-201,AE,GB001-ASTHMA-201-SITE001-0181,2,AE2,COUGH,Cough,,Cough,10011224,Coughing and associated symptoms,10011228,Respiratory tract signs and symptoms,10038734,"Respiratory, thoracic and mediastinal disorders",10038738,"Respiratory, thoracic and mediastinal disorders",10038738,MILD,N,DOSE NOT CHANGED,UNLIKELY RELATED,RECOVERED/RESOLVED,N,N,N,N,N,N,TREATMENT,2024-03-04,2024-03-06,9,11,
GB001-ASTHMA-201,AE,GB001-ASTHMA-201-SITE001-0181,3,AE3,ASTHMA,Asthma,,Asthma,10003553,Bronchospasm and obstruction,10006482,Lower respiratory tract conditions (excl obstruction and infection),10063481,"Respiratory, thoracic and mediastinal disorders",10038738,"Respiratory, thoracic and mediastinal disorders",10038738,MILD,N,DOSE NOT CHANGED,UNLIKELY RELATED,RECOVERED/RESOLVED,N,N,N,N,N,N,TREATMENT,2024-05-12,2024-05-26,78,92,
GB001-ASTHMA-201,AE,GB001-ASTHMA-201-SITE001-0187,1,AE1,NAUSEA,Nausea,,Nausea,10028813,Nausea and vomiting symptoms,10028817,Gastrointestinal signs and symptoms,10017999,Gastrointestinal disorders,10017947,Gastrointestinal disorders,10017947,MILD,N,DOSE NOT CHANGED,UNLIKELY RELATED,RECOVERED/RESOLVED,N,N,N,N,N,N,TREATMENT,2024-02-29,2024-03-01,1,2,
GB001-ASTHMA-201,AE,GB001-ASTHMA-201-SITE001-0190,1,AE1,FATIGUE,Fatigue,,Fatigue,10016256,Asthenic conditions,10003550,General system disorders NEC,10060892,General disorders and administration site conditions,10018065,General disorders and administration site conditions,10018065,MILD,N,DOSE NOT CHANGED,NOT RELATED,RECOVERED/RESOLVED,N,N,N,N,N,N,TREATMENT,2024-03-12,2024-03-18,20,26,
GB001-ASTHMA-201,AE,GB001-ASTHMA-201-SITE001-0190,2,AE2,HEADACHE,Headache,,Headache,10019211,Headaches NEC,10019233,Headaches,10019231,Nervous system disorders,10029205,Nervous system disorders,10029205,MILD,N,DOSE NOT CHANGED,NOT RELATED,NOT RECOVERED/NOT RESOLVED,N,N,N,N,N,N,TREATMENT,2024-04-20,,59,,DURING/AFTER
GB001-ASTHMA-201,AE,GB001-ASTHMA-201-SITE001-0190,3,AE3,UPPER RESPIRATORY TRACT INFECTION,Upper respiratory tract infection,,Upper respiratory tract infection,10046306,Upper respiratory tract infections,10046309,Upper respiratory tract infections,10046309,Infections and infestations,10021881,Infections and infestations,10021881,SEVERE,Y,DOSE NOT CHANGED,NOT RELATED,RECOVERED/RESOLVED,N,N,N,Y,N,N,TREATMENT,2024-04-21,2024-04-24,60,63,
GB001-ASTHMA-201,AE,GB001-ASTHMA-201-SITE001-0190,4,AE4,NASOPHARYNGITIS,Nasopharyngitis,,Nasopharyngitis,10028810,Upper respiratory tract infections,10046309,Upper respiratory tract infections,10046309,Infections and infestations,10021881,Infections and infestations,10021881,MILD,N,DOSE NOT CHANGED,UNLIKELY RELATED,RECOVERED/RESOLVED,N,N,N,N,N,N,TREATMENT,2024-05-01,2024-05-15,70,84,
GB001-ASTHMA-201,AE,GB001-ASTHMA-201-SITE001-0199,1,AE1,NASOPHARYNGITIS,Nasopharyngitis,,Nasopharyngitis,10028810,Upper respiratory tract infections,10046309,Upper respiratory tract infections,10046309,Infections and infestations,10021881,Infections and infestations,10021881,MODERATE,N,DOSE NOT CHANGED,NOT RELATED,RECOVERED/RESOLVED,N,N,N,N,N,N,TREATMENT,2024-05-09,2024-06-03,64,89,
GB001-ASTHMA-201,AE,GB001-ASTHMA-201-SITE001-0202,1,AE1,COUGH,Cough,,Cough,10011224,Coughing and associated symptoms,10011228,Respiratory tract signs and symptoms,10038734,"Respiratory, thoracic and mediastinal disorders",10038738,"Respiratory, thoracic and mediastinal disorders",10038738,SEVERE,Y,DOSE NOT CHANGED,NOT RELATED,NOT RECOVERED/NOT RESOLVED,N,N,N,Y,N,N,TREATMENT,2024-03-29,,47,,DURING/AFTER
GB001-ASTHMA-201,AE,GB001-ASTHMA-201-SITE001-0202,2,AE2,ASTHMA,Asthma,,Asthma,10003553,Bronchospasm and obstruction,10006482,Lower respiratory tract conditions (excl obstruction and infection),10063481,"Respiratory, thoracic and mediastinal disorders",10038738,"Respiratory, thoracic and mediastinal disorders",10038738,MODERATE,N,DOSE NOT CHANGED,UNLIKELY RELATED,RECOVERED/RESOLVED,N,N,N,N,N,N,TREATMENT,2024-04-18,2024-04-28,67,77,
GB001-ASTHMA-201,AE,GB001-ASTHMA-201-SITE001-0211,1,AE1,OROPHARYNGEAL PAIN,Oropharyngeal pain,,Oropharyngeal pain,10068319,Oral soft tissue conditions NEC,10068876,Oral soft tissue conditions,10061998,Gastrointestinal disorders,10017947,Gastrointestinal disorders,10017947,MILD,N,DOSE NOT CHANGED,NOT RELATED,RECOVERED/RESOLVED,N,N,N,N,N,N,TREATMENT,2024-04-14,2024-04-21,23,30,
GB001-ASTHMA-201,AE,GB001-ASTHMA-201-SITE001-0214,1,AE1,PNEUMONIA,Pneumonia,,Pneumonia,10035664,Lower respiratory and lung infections,10024968,Infections NEC,10021902,Infections and infestations,10021881,Infections and infestations,10021881,MILD,N,DOSE NOT CHANGED,NOT RELATED,RECOVERING/RESOLVING,N,N,N,N,N,N,TREATMENT,2024-04-21,2024-04-27,52,58,
GB001-ASTHMA-201,AE,GB001-ASTHMA-201-SITE001-0214,2,AE2,NAUSEA,Nausea,,Nausea,10028813,Nausea and vomiting symptoms,10028817,Gastrointestinal signs and symptoms,10017999,Gastrointestinal disorders,10017947,Gastrointestinal disorders,10017947,MILD,N,DOSE NOT CHANGED,NOT RELATED,RECOVERING/RESOLVING,N,N,N,N,N,N,TREATMENT,2024-05-18,2024-05-20,79,81,
GB001-ASTHMA-201,AE,GB001-ASTHMA-201-SITE001-0217,1,AE1,HEADACHE,Headache,,Headache,10019211,Headaches NEC,10019233,Headaches,10019231,Nervous system disorders,10029205,Nervous system disorders,10029205,MODERATE,N,DOSE NOT CHANGED,NOT RELATED,RECOVERED/RESOLVED,N,N,N,N,N,N,TREATMENT,2024-05-04,2024-05-07,45,48,
GB001-ASTHMA-201,AE,GB001-ASTHMA-201-SITE001-0217,2,AE2,COUGH,Cough,,Cough,10011224,Coughing and associated symptoms,10011228,Respiratory tract signs and symptoms,10038734,"Respiratory, thoracic and mediastinal disorders",10038738,"Respiratory, thoracic and mediastinal disorders",10038738,MILD,N,DOSE NOT CHANGED,NOT RELATED,RECOVERED/RESOLVED,N,N,N,N,N,N,TREATMENT,2024-05-04,2024-05-11,45,52,
GB001-ASTHMA-201,AE,GB001-ASTHMA-201-SITE001-0217,3,AE3,NASOPHARYNGITIS,Nasopharyngitis,,Nasopharyngitis,10028810,Upper respiratory tract infections,10046309,Upper respiratory tract infections,10046309,Infections and infestations,10021881,Infections and infestations,10021881,MODERATE,N,DOSE REDUCED,PROBABLY RELATED,RECOVERED/RESOLVED,N,N,N,N,N,N,TREATMENT,2024-05-22,2024-06-17,63,89,
GB001-ASTHMA-201,AE,GB001-ASTHMA-201-SITE001-0217,4,AE4,OROPHARYNGEAL PAIN,Oropharyngeal pain,,Oropharyngeal pain,10068319,Oral soft tissue conditions NEC,10068876,Oral soft tissue conditions,10061998,Gastrointestinal disorders,10017947,Gastrointestinal disorders,10017947,SEVERE,Y,DOSE NOT CHANGED,NOT RELATED,RECOVERED/RESOLVED,N,N,N,Y,N,N,TREATMENT,2024-06-03,2024-08-01,75,134,
GB001-ASTHMA-201,AE,GB001-ASTHMA-201-SITE001-0220,1,AE1,NASOPHARYNGITIS,Nasopharyngitis,,Nasopharyngitis,10028810,Upper respiratory tract infections,10046309,Upper respiratory tract infections,10046309,Infections and infestations,10021881,Infections and infestations,10021881,MODERATE,N,DOSE NOT CHANGED,NOT RELATED,RECOVERING/RESOLVING,N,N,N,N,N,N,TREATMENT,2024-03-24,2024-03-31,14,21,
GB001-ASTHMA-201,AE,GB001-ASTHMA-201-SITE001-0220,2,AE2,COUGH,Cough,,Cough,10011224,Coughing and associated symptoms,10011228,Respiratory tract signs and symptoms,10038734,"Respiratory, thoracic and mediastinal disorders",10038738,"Respiratory, thoracic and mediastinal disorders",10038738,MILD,N,DOSE NOT CHANGED,NOT RELATED,RECOVERED/RESOLVED,N,N,N,N,N,N,TREATMENT,2024-04-09,2024-04-20,30,41,
GB001-ASTHMA-201,AE,GB001-ASTHMA-201-SITE001-0220,3,AE3,COUGH,Cough,,Cough,10011224,Coughing and associated symptoms,10011228,Respiratory tract signs and symptoms,10038734,"Respiratory, thoracic and mediastinal disorders",10038738,"Respiratory, thoracic and mediastinal disorders",10038738,SEVERE,Y,DOSE NOT CHANGED,NOT RELATED,UNKNOWN,N,N,N,Y,N,N,TREATMENT,2024-05-08,2024-07-07,59,119,
GB001-ASTHMA-201,AE,GB001-ASTHMA-201-SITE001-0220,4,AE4,HEADACHE,Headache,,Headache,10019211,Headaches NEC,10019233,Headaches,10019231,Nervous system disorders,10029205,Nervous system disorders,10029205,MODERATE,N,DOSE NOT CHANGED,UNLIKELY RELATED,RECOVERED/RESOLVED,N,N,N,N,N,N,TREATMENT,2024-05-31,2024-06-02,82,84,
GB001-ASTHMA-201,AE,GB001-ASTHMA-201-SITE001-0223,1,AE1,UPPER RESPIRATORY TRACT INFECTION,Upper respiratory tract infection,,Upper respiratory tract infection,10046306,Upper respiratory tract infections,10046309,Upper respiratory tract infections,10046309,Infections and infestations,10021881,Infections and infestations,10021881,MILD,N,DOSE NOT CHANGED,NOT RELATED,NOT RECOVERED/NOT RESOLVED,N,N,N,N,N,N,TREATMENT,2024-02-12,,14,,DURING/AFTER
GB001-ASTHMA-201,AE,GB001-ASTHMA-201-SITE001-0226,1,AE1,BRONCHITIS,Bronchitis,,Bronchitis,10006451,Lower respiratory tract and lung infections,10024968,Infections NEC,10021902,Infections and infestations,10021881,Infections and infestations,10021881,MILD,N,DOSE NOT CHANGED,PROBABLY RELATED,RECOVERED/RESOLVED,N,N,N,N,N,N,TREATMENT,2024-03-08,2024-03-16,29,37,
GB001-ASTHMA-201,AE,GB001-ASTHMA-201-SITE001-0226,2,AE2,NASOPHARYNGITIS,Nasopharyngitis,,Nasopharyngitis,10028810,Upper respiratory tract infections,10046309,Upper respiratory tract infections,10046309,Infections and infestations,10021881,Infections and infestations,10021881,MILD,N,DOSE NOT CHANGED,POSSIBLY RELATED,RECOVERED/RESOLVED,N,N,N,N,N,N,TREATMENT,2024-03-22,2024-03-27,43,48,
GB001-ASTHMA-201,AE,GB001-ASTHMA-201-SITE001-0226,3,AE3,HEADACHE,Headache,,Headache,10019211,Headaches NEC,10019233,Headaches,10019231,Nervous system disorders,10029205,Nervous system disorders,10029205,MILD,N,DOSE NOT CHANGED,UNLIKELY RELATED,RECOVERING/RESOLVING,N,N,N,N,N,N,TREATMENT,2024-04-06,2024-04-09,58,61,
GB001-ASTHMA-201,AE,GB001-ASTHMA-201-SITE001-0226,4,AE4,BACK PAIN,Back pain,,Back pain,10003988,Spinal column and cord signs and symptoms,10041367,Musculoskeletal and connective tissue signs and symptoms NEC,10063536,Musculoskeletal and connective tissue disorders,10028395,Musculoskeletal and connective tissue disorders,10028395,MILD,N,DOSE NOT CHANGED,RELATED,RECOVERED/RESOLVED,N,N,N,N,N,N,TREATMENT,2024-04-21,2024-05-02,73,84,
GB001-ASTHMA-201,AE,GB001-ASTHMA-201-SITE001-0232,1,AE1,NASOPHARYNGITIS,Nasopharyngitis,,Nasopharyngitis,10028810,Upper respiratory tract infections,10046309,Upper respiratory tract infections,10046309,Infections and infestations,10021881,Infections and infestations,10021881,MILD,N,DOSE NOT CHANGED,NOT RELATED,RECOVERING/RESOLVING,N,N,N,N,N,N,TREATMENT,2024-04-03,2024-04-05,6,8,
GB001-ASTHMA-201,AE,GB001-ASTHMA-201-SITE001-0232,2,AE2,FATIGUE,Fatigue,,Fatigue,10016256,Asthenic conditions,10003550,General system disorders NEC,10060892,General disorders and administration site conditions,10018065,General disorders and administration site conditions,10018065,MODERATE,N,DOSE NOT CHANGED,UNLIKELY RELATED,RECOVERED/RESOLVED,N,N,N,N,N,N,TREATMENT,2024-04-22,2024-05-16,25,49,
GB001-ASTHMA-201,AE,GB001-ASTHMA-201-SITE001-0232,3,AE3,SINUSITIS,Sinusitis,,Sinusitis,10040753,Upper respiratory tract infections,10046309,Upper respiratory tract infections,10046309,Infections and infestations,10021881,Infections and infestations,10021881,SEVERE,Y,DRUG WITHDRAWN,POSSIBLY RELATED,RECOVERED/RESOLVED,N,N,N,Y,N,N,TREATMENT,2024-05-17,2024-05-17,50,50,
GB001-ASTHMA-201,AE,GB001-ASTHMA-201-SITE001-0238,1,AE1,UPPER RESPIRATORY TRACT INFECTION,Upper respiratory tract infection,,Upper respiratory tract infection,10046306,Upper respiratory tract infections,10046309,Upper respiratory tract infections,10046309,Infections and infestations,10021881,Infections and infestations,10021881,SEVERE,Y,DOSE NOT CHANGED,NOT RELATED,RECOVERED/RESOLVED,N,N,N,Y,N,N,TREATMENT,2024-02-15,2024-02-28,7,20,
GB001-ASTHMA-201,AE,GB001-ASTHMA-201-SITE001-0238,2,AE2,FATIGUE,Fatigue,,Fatigue,10016256,Asthenic conditions,10003550,General system disorders NEC,10060892,General disorders and administration site conditions,10018065,General disorders and administration site conditions,10018065,MILD,N,DOSE NOT CHANGED,NOT RELATED,RECOVERED/RESOLVED,N,N,N,N,N,N,TREATMENT,2024-02-19,2024-02-22,11,14,
GB001-ASTHMA-201,AE,GB001-ASTHMA-201-SITE001-0238,3,AE3,SINUSITIS,Sinusitis,,Sinusitis,10040753,Upper respiratory tract infections,10046309,Upper respiratory tract infections,10046309,Infections and infestations,10021881,Infections and infestations,10021881,SEVERE,Y,DOSE NOT CHANGED,NOT RELATED,RECOVERED/RESOLVED,N,N,N,Y,N,N,TREATMENT,2024-03-17,2024-04-05,38,57,
GB001-ASTHMA-201,AE,GB001-ASTHMA-201-SITE001-0238,4,AE4,NASOPHARYNGITIS,Nasopharyngitis,,Nasopharyngitis,10028810,Upper respiratory tract infections,10046309,Upper respiratory tract infections,10046309,Infections and infestations,10021881,Infections and infestations,10021881,MILD,N,DOSE NOT CHANGED,NOT RELATED,RECOVERED/RESOLVED,N,N,N,N,N,N,TREATMENT,2024-03-20,2024-03-26,41,47,
GB001-ASTHMA-201,AE,GB001-ASTHMA-201-SITE001-0238,5,AE5,BRONCHITIS,Bronchitis,,Bronchitis,10006451,Lower respiratory tract and lung infections,10024968,Infections NEC,10021902,Infections and infestations,10021881,Infections and infestations,10021881,MILD,N,DOSE NOT CHANGED,UNLIKELY RELATED,RECOVERED/RESOLVED,N,N,N,N,N,N,TREATMENT,2024-03-26,2024-04-03,47,55,
GB001-ASTHMA-201,AE,GB001-ASTHMA-201-SITE001-0238,6,AE6,UPPER RESPIRATORY TRACT INFECTION,Upper respiratory tract infection,,Upper respiratory tract infection,10046306,Upper respiratory tract infections,10046309,Upper respiratory tract infections,10046309,Infections and infestations,10021881,Infections and infestations,10021881,MILD,N,DOSE NOT CHANGED,NOT RELATED,NOT RECOVERED/NOT RESOLVED,N,N,N,N,N,N,TREATMENT,2024-03-31,,52,,DURING/AFTER
GB001-ASTHMA-201,AE,GB001-ASTHMA-201-SITE001-0238,7,AE7,NAUSEA,Nausea,,Nausea,10028813,Nausea and vomiting symptoms,10028817,Gastrointestinal signs and symptoms,10017999,Gastrointestinal disorders,10017947,Gastrointestinal disorders,10017947,MILD,N,DOSE NOT CHANGED,NOT RELATED,NOT RECOVERED/NOT RESOLVED,N,N,N,N,N,N,TREATMENT,2024-04-27,,79,,DURING/AFTER
GB001-ASTHMA-201,AE,GB001-ASTHMA-201-SITE001-0241,1,AE1,FATIGUE,Fatigue,,Fatigue,10016256,Asthenic conditions,10003550,General system disorders NEC,10060892,General disorders and administration site conditions,10018065,General disorders and administration site conditions,10018065,MODERATE,N,DOSE NOT CHANGED,NOT RELATED,RECOVERED/RESOLVED,N,N,N,N,N,N,TREATMENT,2024-04-19,2024-05-09,33,53,
GB001-ASTHMA-201,AE,GB001-ASTHMA-201-SITE001-0241,2,AE2,NAUSEA,Nausea,,Nausea,10028813,Nausea and vomiting symptoms,10028817,Gastrointestinal signs and symptoms,10017999,Gastrointestinal disorders,10017947,Gastrointestinal disorders,10017947,SEVERE,Y,DOSE REDUCED,POSSIBLY RELATED,RECOVERED/RESOLVED,N,N,N,Y,N,N,TREATMENT,2024-04-28,2024-05-13,42,57,
GB001-ASTHMA-201,AE,GB001-ASTHMA-201-SITE001-0244,1,AE1,NAUSEA,Nausea,,Nausea,10028813,Nausea and vomiting symptoms,10028817,Gastrointestinal signs and symptoms,10017999,Gastrointestinal disorders,10017947,Gastrointestinal disorders,10017947,MILD,N,DOSE NOT CHANGED,NOT RELATED,RECOVERED/RESOLVED,N,N,N,N,N,N,TREATMENT,2024-04-15,2024-04-16,8,9,
GB001-ASTHMA-201,AE,GB001-ASTHMA-201-SITE001-0244,2,AE2,SINUSITIS,Sinusitis,,Sinusitis,10040753,Upper respiratory tract infections,10046309,Upper respiratory tract infections,10046309,Infections and infestations,10021881,Infections and infestations,10021881,SEVERE,Y,DOSE NOT CHANGED,NOT RELATED,RECOVERED/RESOLVED,N,N,N,N,N,Y,TREATMENT,2024-05-15,2024-06-07,38,61,
GB001-ASTHMA-201,AE,GB001-ASTHMA-201-SITE001-0244,3,AE3,ASTHMA,Asthma,,Asthma,10003553,Bronchospasm and obstruction,10006482,Lower respiratory tract conditions (excl obstruction and infection),10063481,"Respiratory, thoracic and mediastinal disorders",10038738,"Respiratory, thoracic and mediastinal disorders",10038738,MODERATE,N,DRUG INTERRUPTED,POSSIBLY RELATED,RECOVERED/RESOLVED,N,N,N,N,N,N,TREATMENT,2024-06-04,2024-06-18,58,72,
GB001-ASTHMA-201,AE,GB001-ASTHMA-201-SITE001-0247,1,AE1,COUGH,Cough,,Cough,10011224,Coughing and associated symptoms,10011228,Respiratory tract signs and symptoms,10038734,"Respiratory, thoracic and mediastinal disorders",10038738,"Respiratory, thoracic and mediastinal disorders",10038738,MILD,N,DOSE NOT CHANGED,POSSIBLY RELATED,RECOVERED/RESOLVED WITH SEQUELAE,N,N,N,N,N,N,TREATMENT,2024-03-02,2024-03-10,3,11,
GB001-ASTHMA-201,AE,GB001-ASTHMA-201-SITE001-0247,2,AE2,HEADACHE,Headache,,Headache,10019211,Headaches NEC,10019233,Headaches,10019231,Nervous system disorders,10029205,Nervous system disorders,10029205,MODERATE,N,DOSE NOT CHANGED,NOT RELATED,RECOVERING/RESOLVING,N,N,N,N,N,N,TREATMENT,2024-03-04,2024-03-08,5,9,
GB001-ASTHMA-201,AE,GB001-ASTHMA-201-SITE001-0247,3,AE3,HEADACHE,Headache,,Headache,10019211,Headaches NEC,10019233,Headaches,10019231,Nervous system disorders,10029205,Nervous system disorders,10029205,MILD,N,DOSE NOT CHANGED,RELATED,RECOVERED/RESOLVED,N,N,N,N,N,N,TREATMENT,2024-03-12,2024-03-14,13,15,
GB001-ASTHMA-201,AE,GB001-ASTHMA-201-SITE001-0247,4,AE4,UPPER RESPIRATORY TRACT INFECTION,Upper respiratory tract infection,,Upper respiratory tract infection,10046306,Upper respiratory tract infections,10046309,Upper respiratory tract infections,10046309,Infections and infestations,10021881,Infections and infestations,10021881,SEVERE,Y,DRUG INTERRUPTED,PROBABLY RELATED,RECOVERED/RESOLVED,N,N,N,Y,N,N,TREATMENT,2024-04-07,2024-06-01,39,94,
GB001-ASTHMA-201,AE,GB001-ASTHMA-201-SITE001-0247,5,AE5,OROPHARYNGEAL PAIN,Oropharyngeal pain,,Oropharyngeal pain,10068319,Oral soft tissue conditions NEC,10068876,Oral soft tissue conditions,10061998,Gastrointestinal disorders,10017947,Gastrointestinal disorders,10017947,MODERATE,N,DOSE NOT CHANGED,NOT RELATED,RECOVERED/RESOLVED,N,N,N,N,N,N,TREATMENT,2024-04-10,2024-05-08,42,70,
GB001-ASTHMA-201,AE,GB001-ASTHMA-201-SITE001-0250,1,AE1,UPPER RESPIRATORY TRACT INFECTION,Upper respiratory tract infection,,Upper respiratory tract infection,10046306,Upper respiratory tract infections,10046309,Upper respiratory tract infections,10046309,Infections and infestations,10021881,Infections and infestations,10021881,MODERATE,N,DRUG INTERRUPTED,POSSIBLY RELATED,RECOVERING/RESOLVING,N,N,N,N,N,N,TREATMENT,2024-03-25,2024-04-23,8,37,
GB001-ASTHMA-201,AE,GB001-ASTHMA-201-SITE001-0250,2,AE2,HEADACHE,Headache,,Headache,10019211,Headaches NEC,10019233,Headaches,10019231,Nervous system disorders,10029205,Nervous system disorders,10029205,SEVERE,Y,DOSE NOT CHANGED,NOT RELATED,RECOVERED/RESOLVED,N,N,N,Y,N,N,TREATMENT,2024-04-07,2024-04-23,21,37,
GB001-ASTHMA-201,AE,GB001-ASTHMA-201-SITE001-0250,3,AE3,BRONCHITIS,Bronchitis,,Bronchitis,10006451,Lower respiratory tract and lung infections,10024968,Infections NEC,10021902,Infections and infestations,10021881,Infections and infestations,10021881,MODERATE,N,DOSE NOT CHANGED,NOT RELATED,NOT RECOVERED/NOT RESOLVED,N,N,N,N,N,N,TREATMENT,2024-06-09,,84,,DURING/AFTER
GB001-ASTHMA-201,AE,GB001-ASTHMA-201-SITE001-0253,1,AE1,COUGH,Cough,,Cough,10011224,Coughing and associated symptoms,10011228,Respiratory tract signs and symptoms,10038734,"Respiratory, thoracic and mediastinal disorders",10038738,"Respiratory, thoracic and mediastinal disorders",10038738,MILD,N,DOSE NOT CHANGED,POSSIBLY RELATED,RECOVERING/RESOLVING,N,N,N,N,N,N,TREATMENT,2024-05-15,2024-05-21,33,39,
GB001-ASTHMA-201,AE,GB001-ASTHMA-201-SITE001-0253,2,AE2,BACK PAIN,Back pain,,Back pain,10003988,Spinal column and cord signs and symptoms,10041367,Musculoskeletal and connective tissue signs and symptoms NEC,10063536,Musculoskeletal and connective tissue disorders,10028395,Musculoskeletal and connective tissue disorders,10028395,MODERATE,N,DOSE NOT CHANGED,NOT RELATED,NOT RECOVERED/NOT RESOLVED,N,N,N,N,N,N,TREATMENT,2024-05-18,,36,,DURING/AFTER
GB001-ASTHMA-201,AE,GB001-ASTHMA-201-SITE001-0253,3,AE3,HEADACHE,Headache,,Headache,10019211,Headaches NEC,10019233,Headaches,10019231,Nervous system disorders,10029205,Nervous system disorders,10029205,SEVERE,Y,DOSE REDUCED,POSSIBLY RELATED,RECOVERED/RESOLVED WITH SEQUELAE,N,N,N,N,N,Y,TREATMENT,2024-06-19,2024-07-01,68,80,
GB001-ASTHMA-201,AE,GB001-ASTHMA-201-SITE001-0253,4,AE4,ASTHMA,Asthma,,Asthma,10003553,Bronchospasm and obstruction,10006482,Lower respiratory tract conditions (excl obstruction and infection),10063481,"Respiratory, thoracic and mediastinal disorders",10038738,"Respiratory, thoracic and mediastinal disorders",10038738,MODERATE,N,DOSE NOT CHANGED,NOT RELATED,RECOVERING/RESOLVING,N,N,N,N,N,N,TREATMENT,2024-06-20,2024-06-23,69,72,
GB001-ASTHMA-201,AE,GB001-ASTHMA-201-SITE001-0256,1,AE1,SINUSITIS,Sinusitis,,Sinusitis,10040753,Upper respiratory tract infections,10046309,Upper respiratory tract infections,10046309,Infections and infestations,10021881,Infections and infestations,10021881,MODERATE,N,DOSE NOT CHANGED,UNLIKELY RELATED,RECOVERED/RESOLVED,N,N,N,N,N,N,TREATMENT,2024-04-17,2024-04-17,2,2,
GB001-ASTHMA-201,AE,GB001-ASTHMA-201-SITE001-0262,1,AE1,NAUSEA,Nausea,,Nausea,10028813,Nausea and vomiting symptoms,10028817,Gastrointestinal signs and symptoms,10017999,Gastrointestinal disorders,10017947,Gastrointestinal disorders,10017947,MODERATE,N,DOSE NOT CHANGED,UNLIKELY RELATED,RECOVERING/RESOLVING,N,N,N,N,N,N,TREATMENT,2024-03-21,2024-03-22,3,4,
GB001-ASTHMA-201,AE,GB001-ASTHMA-201-SITE001-0262,2,AE2,BRONCHITIS,Bronchitis,,Bronchitis,10006451,Lower respiratory tract and lung infections,10024968,Infections NEC,10021902,Infections and infestations,10021881,Infections and infestations,10021881,MILD,N,DOSE NOT CHANGED,NOT RELATED,RECOVERED/RESOLVED,N,N,N,N,N,N,TREATMENT,2024-05-12,2024-05-15,55,58,
GB001-ASTHMA-201,AE,GB001-ASTHMA-201-SITE001-0262,3,AE3,NAUSEA,Nausea,,Nausea,10028813,Nausea and vomiting symptoms,10028817,Gastrointestinal signs and symptoms,10017999,Gastrointestinal disorders,10017947,Gastrointestinal disorders,10017947,MODERATE,N,DOSE NOT CHANGED,NOT RELATED,RECOVERING/RESOLVING,N,N,N,N,N,N,TREATMENT,2024-05-24,2024-05-28,67,71,
GB001-ASTHMA-201,AE,GB001-ASTHMA-201-SITE001-0274,1,AE1,BRONCHITIS,Bronchitis,,Bronchitis,10006451,Lower respiratory tract and lung infections,10024968,Infections NEC,10021902,Infections and infestations,10021881,Infections and infestations,10021881,MODERATE,N,DRUG INTERRUPTED,POSSIBLY RELATED,RECOVERED/RESOLVED,N,N,N,N,N,N,TREATMENT,2024-02-09,2024-02-26,13,30,
GB001-ASTHMA-201,AE,GB001-ASTHMA-201-SITE001-0274,2,AE2,FATIGUE,Fatigue,,Fatigue,10016256,Asthenic conditions,10003550,General system disorders NEC,10060892,General disorders and administration site conditions,10018065,General disorders and administration site conditions,10018065,MODERATE,N,DOSE NOT CHANGED,NOT RELATED,RECOVERING/RESOLVING,N,N,N,N,N,N,TREATMENT,2024-02-29,2024-03-22,33,55,
GB001-ASTHMA-201,AE,GB001-ASTHMA-201-SITE001-0274,3,AE3,HEADACHE,Headache,,Headache,10019211,Headaches NEC,10019233,Headaches,10019231,Nervous system disorders,10029205,Nervous system disorders,10029205,MODERATE,N,DOSE NOT CHANGED,UNLIKELY RELATED,RECOVERED/RESOLVED,N,N,N,N,N,N,TREATMENT,2024-04-06,2024-04-10,70,74,
GB001-ASTHMA-201,AE,GB001-ASTHMA-201-SITE001-0277,1,AE1,COUGH,Cough,,Cough,10011224,Coughing and associated symptoms,10011228,Respiratory tract signs and symptoms,10038734,"Respiratory, thoracic and mediastinal disorders",10038738,"Respiratory, thoracic and mediastinal disorders",10038738,MILD,N,DOSE NOT CHANGED,NOT RELATED,RECOVERING/RESOLVING,N,N,N,N,N,N,TREATMENT,2024-03-17,2024-03-23,2,8,
GB001-ASTHMA-201,AE,GB001-ASTHMA-201-SITE001-0277,2,AE2,NASOPHARYNGITIS,Nasopharyngitis,,Nasopharyngitis,10028810,Upper respiratory tract infections,10046309,Upper respiratory tract infections,10046309,Infections and infestations,10021881,Infections and infestations,10021881,MILD,N,DOSE NOT CHANGED,NOT RELATED,RECOVERED/RESOLVED,N,N,N,N,N,N,TREATMENT,2024-03-19,2024-04-02,4,18,
GB001-ASTHMA-201,AE,GB001-ASTHMA-201-SITE001-0277,3,AE3,SINUSITIS,Sinusitis,,Sinusitis,10040753,Upper respiratory tract infections,10046309,Upper respiratory tract infections,10046309,Infections and infestations,10021881,Infections and infestations,10021881,MILD,N,DOSE NOT CHANGED,UNLIKELY RELATED,RECOVERED/RESOLVED,N,N,N,N,N,N,TREATMENT,2024-04-10,2024-04-23,26,39,
GB001-ASTHMA-201,AE,GB001-ASTHMA-201-SITE001-0283,1,AE1,UPPER RESPIRATORY TRACT INFECTION,Upper respiratory tract infection,,Upper respiratory tract infection,10046306,Upper respiratory tract infections,10046309,Upper respiratory tract infections,10046309,Infections and infestations,10021881,Infections and infestations,10021881,MILD,N,DOSE NOT CHANGED,NOT RELATED,RECOVERING/RESOLVING,N,N,N,N,N,N,TREATMENT,2024-04-03,2024-04-06,2,5,
GB001-ASTHMA-201,AE,GB001-ASTHMA-201-SITE001-0283,2,AE2,UPPER RESPIRATORY TRACT INFECTION,Upper respiratory tract infection,,Upper respiratory tract infection,10046306,Upper respiratory tract infections,10046309,Upper respiratory tract infections,10046309,Infections and infestations,10021881,Infections and infestations,10021881,MILD,N,DOSE NOT CHANGED,NOT RELATED,NOT RECOVERED/NOT RESOLVED,N,N,N,N,N,N,TREATMENT,2024-04-06,,5,,DURING/AFTER
GB001-ASTHMA-201,AE,GB001-ASTHMA-201-SITE001-0283,3,AE3,HEADACHE,Headache,,Headache,10019211,Headaches NEC,10019233,Headaches,10019231,Nervous system disorders,10029205,Nervous system disorders,10029205,MILD,N,DOSE NOT CHANGED,NOT RELATED,RECOVERED/RESOLVED,N,N,N,N,N,N,TREATMENT,2024-04-09,2024-04-10,8,9,
GB001-ASTHMA-201,AE,GB001-ASTHMA-201-SITE001-0283,4,AE4,HEADACHE,Headache,,Headache,10019211,Headaches NEC,10019233,Headaches,10019231,Nervous system disorders,10029205,Nervous system disorders,10029205,MODERATE,N,DOSE NOT CHANGED,NOT RELATED,RECOVERING/RESOLVING,N,N,N,N,N,N,TREATMENT,2024-04-21,2024-04-25,20,24,
GB001-ASTHMA-201,AE,GB001-ASTHMA-201-SITE001-0283,5,AE5,ASTHMA,Asthma,,Asthma,10003553,Bronchospasm and obstruction,10006482,Lower respiratory tract conditions (excl obstruction and infection),10063481,"Respiratory, thoracic and mediastinal disorders",10038738,"Respiratory, thoracic and mediastinal disorders",10038738,MODERATE,N,DOSE NOT CHANGED,POSSIBLY RELATED,RECOVERED/RESOLVED WITH SEQUELAE,N,N,N,N,N,N,TREATMENT,2024-04-30,2024-05-07,29,36,
GB001-ASTHMA-201,AE,GB001-ASTHMA-201-SITE001-0283,6,AE6,SINUSITIS,Sinusitis,,Sinusitis,10040753,Upper respiratory tract infections,10046309,Upper respiratory tract infections,10046309,Infections and infestations,10021881,Infections and infestations,10021881,MODERATE,N,DOSE NOT CHANGED,POSSIBLY RELATED,RECOVERED/RESOLVED,N,N,N,N,N,N,TREATMENT,2024-05-18,2024-05-26,47,55,
GB001-ASTHMA-201,AE,GB001-ASTHMA-201-SITE001-0289,1,AE1,COUGH,Cough,,Cough,10011224,Coughing and associated symptoms,10011228,Respiratory tract signs and symptoms,10038734,"Respiratory, thoracic and mediastinal disorders",10038738,"Respiratory, thoracic and mediastinal disorders",10038738,MILD,N,DOSE NOT CHANGED,NOT RELATED,RECOVERED/RESOLVED,N,N,N,N,N,N,TREATMENT,2024-05-23,2024-05-29,44,50,
GB001-ASTHMA-201,AE,GB001-ASTHMA-201-SITE001-0289,2,AE2,COUGH,Cough,,Cough,10011224,Coughing and associated symptoms,10011228,Respiratory tract signs and symptoms,10038734,"Respiratory, thoracic and mediastinal disorders",10038738,"Respiratory, thoracic and mediastinal disorders",10038738,MODERATE,N,DOSE NOT CHANGED,NOT RELATED,RECOVERED/RESOLVED,N,N,N,N,N,N,TREATMENT,2024-06-05,2024-06-14,57,66,
GB001-ASTHMA-201,AE,GB001-ASTHMA-201-SITE001-0292,1,AE1,BACK PAIN,Back pain,,Back pain,10003988,Spinal column and cord signs and symptoms,10041367,Musculoskeletal and connective tissue signs and symptoms NEC,10063536,Musculoskeletal and connective tissue disorders,10028395,Musculoskeletal and connective tissue disorders,10028395,MILD,N,DOSE NOT CHANGED,NOT RELATED,RECOVERED/RESOLVED,N,N,N,N,N,N,TREATMENT,2024-03-29,2024-04-08,29,39,
GB001-ASTHMA-201,AE,GB001-ASTHMA-201-SITE001-0292,2,AE2,NAUSEA,Nausea,,Nausea,10028813,Nausea and vomiting symptoms,10028817,Gastrointestinal signs and symptoms,10017999,Gastrointestinal disorders,10017947,Gastrointestinal disorders,10017947,MILD,N,DOSE NOT CHANGED,NOT RELATED,RECOVERING/RESOLVING,N,N,N,N,N,N,TREATMENT,2024-05-02,2024-05-03,63,64,
GB001-ASTHMA-201,AE,GB001-ASTHMA-201-SITE001-0292,3,AE3,HEADACHE,Headache,,Headache,10019211,Headaches NEC,10019233,Headaches,10019231,Nervous system disorders,10029205,Nervous system disorders,10029205,MODERATE,N,DOSE NOT CHANGED,NOT RELATED,RECOVERED/RESOLVED,N,N,N,N,N,N,TREATMENT,2024-05-13,2024-05-19,74,80,
GB001-ASTHMA-201,AE,GB001-ASTHMA-201-SITE001-0295,1,AE1,BRONCHITIS,Bronchitis,,Bronchitis,10006451,Lower respiratory tract and lung infections,10024968,Infections NEC,10021902,Infections and infestations,10021881,Infections and infestations,10021881,MILD,N,DOSE NOT CHANGED,NOT RELATED,RECOVERED/RESOLVED,N,N,N,N,N,N,TREATMENT,2024-05-06,2024-05-11,21,26,
GB001-ASTHMA-201,AE,GB001-ASTHMA-201-SITE001-0298,1,AE1,UPPER RESPIRATORY TRACT INFECTION,Upper respiratory tract infection,,Upper respiratory tract infection,10046306,Upper respiratory tract infections,10046309,Upper respiratory tract infections,10046309,Infections and infestations,10021881,Infections and infestations,10021881,MILD,N,DOSE NOT CHANGED,UNLIKELY RELATED,RECOVERED/RESOLVED,N,N,N,N,N,N,TREATMENT,2024-05-08,2024-05-09,39,40,
GB001-ASTHMA-201,AE,GB001-ASTHMA-201-SITE001-0298,2,AE2,SINUSITIS,Sinusitis,,Sinusitis,10040753,Upper respiratory tract infections,10046309,Upper respiratory tract infections,10046309,Infections and infestations,10021881,Infections and infestations,10021881,SEVERE,Y,DOSE NOT CHANGED,NOT RELATED,RECOVERED/RESOLVED,N,N,N,Y,N,N,TREATMENT,2024-05-24,2024-06-28,55,90,
GB001-ASTHMA-201,AE,GB001-ASTHMA-201-SITE001-0298,3,AE3,SINUSITIS,Sinusitis,,Sinusitis,10040753,Upper respiratory tract infections,10046309,Upper respiratory tract infections,10046309,Infections and infestations,10021881,Infections and infestations,10021881,MODERATE,N,DOSE NOT CHANGED,NOT RELATED,NOT RECOVERED/NOT RESOLVED,N,N,N,N,N,N,TREATMENT,2024-05-25,,56,,DURING/AFTER
GB001-ASTHMA-201,AE,GB001-ASTHMA-201-SITE001-0298,4,AE4,UPPER RESPIRATORY TRACT INFECTION,Upper respiratory tract infection,,Upper respiratory tract infection,10046306,Upper respiratory tract infections,10046309,Upper respiratory tract infections,10046309,Infections and infestations,10021881,Infections and infestations,10021881,MODERATE,N,DOSE NOT CHANGED,UNLIKELY RELATED,RECOVERED/RESOLVED,N,N,N,N,N,N,TREATMENT,2024-06-04,2024-07-03,66,95,
GB001-ASTHMA-201,AE,GB001-ASTHMA-201-SITE001-0301,1,AE1,NAUSEA,Nausea,,Nausea,10028813,Nausea and vomiting symptoms,10028817,Gastrointestinal signs and symptoms,10017999,Gastrointestinal disorders,10017947,Gastrointestinal disorders,10017947,MILD,N,DOSE NOT CHANGED,NOT RELATED,RECOVERED/RESOLVED,N,N,N,N,N,N,TREATMENT,2024-06-20,2024-06-22,65,67,
GB001-ASTHMA-201,AE,GB001-ASTHMA-201-SITE001-0301,2,AE2,NASOPHARYNGITIS,Nasopharyngitis,,Nasopharyngitis,10028810,Upper respiratory tract infections,10046309,Upper respiratory tract infections,10046309,Infections and infestations,10021881,Infections and infestations,10021881,MILD,N,DOSE NOT CHANGED,NOT RELATED,RECOVERED/RESOLVED,N,N,N,N,N,N,TREATMENT,2024-06-25,2024-07-01,70,76,
GB001-ASTHMA-201,AE,GB001-ASTHMA-201-SITE001-0304,1,AE1,UPPER RESPIRATORY TRACT INFECTION,Upper respiratory tract infection,,Upper respiratory tract infection,10046306,Upper respiratory tract infections,10046309,Upper respiratory tract infections,10046309,Infections and infestations,10021881,Infections and infestations,10021881,MILD,N,DOSE NOT CHANGED,RELATED,RECOVERED/RESOLVED,N,N,N,N,N,N,TREATMENT,2024-02-23,2024-03-08,1,15,
GB001-ASTHMA-201,AE,GB001-ASTHMA-201-SITE001-0304,2,AE2,SEPSIS,Sepsis,,Sepsis,10040047,"Sepsis, bacteraemia, viraemia and fungaemia NEC",10040062,Infections NEC,10021902,Infections and infestations,10021881,Infections and infestations,10021881,MODERATE,N,DOSE NOT CHANGED,UNLIKELY RELATED,RECOVERED/RESOLVED,N,N,N,N,N,N,TREATMENT,2024-02-24,2024-03-04,2,11,
GB001-ASTHMA-201,AE,GB001-ASTHMA-201-SITE001-0304,3,AE3,UPPER RESPIRATORY TRACT INFECTION,Upper respiratory tract infection,,Upper respiratory tract infection,10046306,Upper respiratory tract infections,10046309,Upper respiratory tract infections,10046309,Infections and infestations,10021881,Infections and infestations,10021881,MILD,N,DOSE NOT CHANGED,UNLIKELY RELATED,RECOVERED/RESOLVED,N,N,N,N,N,N,TREATMENT,2024-02-29,2024-03-02,7,9,
GB001-ASTHMA-201,AE,GB001-ASTHMA-201-SITE001-0304,4,AE4,UPPER RESPIRATORY TRACT INFECTION,Upper respiratory tract infection,,Upper respiratory tract infection,10046306,Upper respiratory tract infections,10046309,Upper respiratory tract infections,10046309,Infections and infestations,10021881,Infections and infestations,10021881,MILD,N,DOSE NOT CHANGED,NOT RELATED,RECOVERING/RESOLVING,N,N,N,N,N,N,TREATMENT,2024-03-13,2024-03-26,20,33,
GB001-ASTHMA-201,AE,GB001-ASTHMA-201-SITE001-0304,5,AE5,BRONCHITIS,Bronchitis,,Bronchitis,10006451,Lower respiratory tract and lung infections,10024968,Infections NEC,10021902,Infections and infestations,10021881,Infections and infestations,10021881,MILD,N,DOSE NOT CHANGED,NOT RELATED,RECOVERING/RESOLVING,N,N,N,N,N,N,TREATMENT,2024-03-16,2024-03-24,23,31,
GB001-ASTHMA-201,AE,GB001-ASTHMA-201-SITE001-0304,6,AE6,OROPHARYNGEAL PAIN,Oropharyngeal pain,,Oropharyngeal pain,10068319,Oral soft tissue conditions NEC,10068876,Oral soft tissue conditions,10061998,Gastrointestinal disorders,10017947,Gastrointestinal disorders,10017947,SEVERE,Y,DRUG INTERRUPTED,POSSIBLY RELATED,RECOVERED/RESOLVED,N,N,N,Y,N,N,TREATMENT,2024-03-17,2024-04-18,24,56,
GB001-ASTHMA-201,AE,GB001-ASTHMA-201-SITE001-0304,7,AE7,FATIGUE,Fatigue,,Fatigue,10016256,Asthenic conditions,10003550,General system disorders NEC,10060892,General disorders and administration site conditions,10018065,General disorders and administration site conditions,10018065,MILD,N,DOSE NOT CHANGED,RELATED,RECOVERED/RESOLVED,N,N,N,N,N,N,TREATMENT,2024-03-20,2024-03-23,27,30,
GB001-ASTHMA-201,AE,GB001-ASTHMA-201-SITE001-0304,8,AE8,SINUSITIS,Sinusitis,,Sinusitis,10040753,Upper respiratory tract infections,10046309,Upper respiratory tract infections,10046309,Infections and infestations,10021881,Infections and infestations,10021881,MODERATE,N,DOSE NOT CHANGED,NOT RELATED,RECOVERED/RESOLVED,N,N,N,N,N,N,TREATMENT,2024-04-13,2024-04-30,51,68,
GB001-ASTHMA-201,AE,GB001-ASTHMA-201-SITE001-0304,9,AE9,FATIGUE,Fatigue,,Fatigue,10016256,Asthenic conditions,10003550,General system disorders NEC,10060892,General disorders and administration site conditions,10018065,General disorders and administration site conditions,10018065,MODERATE,N,DOSE NOT CHANGED,UNLIKELY RELATED,RECOVERED/RESOLVED,N,N,N,N,N,N,TREATMENT,2024-04-16,2024-04-23,54,61,
GB001-ASTHMA-201,AE,GB001-ASTHMA-201-SITE001-0310,1,AE1,BACK PAIN,Back pain,,Back pain,10003988,Spinal column and cord signs and symptoms,10041367,Musculoskeletal and connective tissue signs and symptoms NEC,10063536,Musculoskeletal and connective tissue disorders,10028395,Musculoskeletal and connective tissue disorders,10028395,MILD,N,DOSE NOT CHANGED,NOT RELATED,RECOVERED/RESOLVED,N,N,N,N,N,N,TREATMENT,2024-04-27,2024-05-11,29,43,
GB001-ASTHMA-201,AE,GB001-ASTHMA-201-SITE001-0316,1,AE1,OROPHARYNGEAL PAIN,Oropharyngeal pain,,Oropharyngeal pain,10068319,Oral soft tissue conditions NEC,10068876,Oral soft tissue conditions,10061998,Gastrointestinal disorders,10017947,Gastrointestinal disorders,10017947,MODERATE,N,DOSE REDUCED,PROBABLY RELATED,NOT RECOVERED/NOT RESOLVED,N,N,N,N,N,N,TREATMENT,2024-03-20,,10,,DURING/AFTER
GB001-ASTHMA-201,AE,GB001-ASTHMA-201-SITE001-0319,1,AE1,BACK PAIN,Back pain,,Back pain,10003988,Spinal column and cord signs and symptoms,10041367,Musculoskeletal and connective tissue signs and symptoms NEC,10063536,Musculoskeletal and connective tissue disorders,10028395,Musculoskeletal and connective tissue disorders,10028395,MILD,N,DOSE NOT CHANGED,UNLIKELY RELATED,RECOVERED/RESOLVED,N,N,N,N,N,N,TREATMENT,2024-02-19,2024-02-23,17,21,
GB001-ASTHMA-201,AE,GB001-ASTHMA-201-SITE001-0319,2,AE2,UPPER RESPIRATORY TRACT INFECTION,Upper respiratory tract infection,,Upper respiratory tract infection,10046306,Upper respiratory tract infections,10046309,Upper respiratory tract infections,10046309,Infections and infestations,10021881,Infections and infestations,10021881,MILD,N,DOSE NOT CHANGED,UNLIKELY RELATED,RECOVERED/RESOLVED,N,N,N,N,N,N,TREATMENT,2024-03-19,2024-04-01,46,59,
GB001-ASTHMA-201,AE,GB001-ASTHMA-201-SITE001-0319,3,AE3,BRONCHITIS,Bronchitis,,Bronchitis,10006451,Lower respiratory tract and lung infections,10024968,Infections NEC,10021902,Infections and infestations,10021881,Infections and infestations,10021881,MODERATE,N,DOSE NOT CHANGED,NOT RELATED,RECOVERED/RESOLVED,N,N,N,N,N,N,TREATMENT,2024-04-15,2024-04-16,73,74,
GB001-ASTHMA-201,AE,GB001-ASTHMA-201-SITE001-0322,1,AE1,ASTHMA,Asthma,,Asthma,10003553,Bronchospasm and obstruction,10006482,Lower respiratory tract conditions (excl obstruction and infection),10063481,"Respiratory, thoracic and mediastinal disorders",10038738,"Respiratory, thoracic and mediastinal disorders",10038738,SEVERE,Y,DOSE NOT CHANGED,UNLIKELY RELATED,RECOVERED/RESOLVED,N,N,N,N,N,Y,TREATMENT,2024-05-08,2024-06-26,18,67,
GB001-ASTHMA-201,AE,GB001-ASTHMA-201-SITE001-0322,2,AE2,BRONCHITIS,Bronchitis,,Bronchitis,10006451,Lower respiratory tract and lung infections,10024968,Infections NEC,10021902,Infections and infestations,10021881,Infections and infestations,10021881,SEVERE,Y,DOSE NOT CHANGED,NOT RELATED,RECOVERED/RESOLVED,N,N,N,N,N,Y,TREATMENT,2024-05-19,2024-05-24,29,34,
GB001-ASTHMA-201,AE,GB001-ASTHMA-201-SITE001-0322,3,AE3,NAUSEA,Nausea,,Nausea,10028813,Nausea and vomiting symptoms,10028817,Gastrointestinal signs and symptoms,10017999,Gastrointestinal disorders,10017947,Gastrointestinal disorders,10017947,MILD,N,DOSE NOT CHANGED,NOT RELATED,RECOVERED/RESOLVED,N,N,N,N,N,N,TREATMENT,2024-06-01,2024-06-03,42,44,
GB001-ASTHMA-201,AE,GB001-ASTHMA-201-SITE001-0322,4,AE4,UPPER RESPIRATORY TRACT INFECTION,Upper respiratory tract infection,,Upper respiratory tract infection,10046306,Upper respiratory tract infections,10046309,Upper respiratory tract infections,10046309,Infections and infestations,10021881,Infections and infestations,10021881,MODERATE,N,DOSE NOT CHANGED,NOT RELATED,RECOVERING/RESOLVING,N,N,N,N,N,N,TREATMENT,2024-06-27,2024-07-15,68,86,
GB001-ASTHMA-201,AE,GB001-ASTHMA-201-SITE001-0328,1,AE1,ASTHMA,Asthma,,Asthma,10003553,Bronchospasm and obstruction,10006482,Lower respiratory tract conditions (excl obstruction and infection),10063481,"Respiratory, thoracic and mediastinal disorders",10038738,"Respiratory, thoracic and mediastinal disorders",10038738,SEVERE,Y,DOSE NOT CHANGED,NOT RELATED,RECOVERING/RESOLVING,N,N,N,N,N,Y,TREATMENT,2024-04-03,2024-05-02,3,32,
GB001-ASTHMA-201,AE,GB001-ASTHMA-201-SITE001-0328,2,AE2,NASOPHARYNGITIS,Nasopharyngitis,,Nasopharyngitis,10028810,Upper respiratory tract infections,10046309,Upper respiratory tract infections,10046309,Infections and infestations,10021881,Infections and infestations,10021881,MILD,N,DOSE NOT CHANGED,UNLIKELY RELATED,RECOVERING/RESOLVING,N,N,N,N,N,N,TREATMENT,2024-04-17,2024-04-19,17,19,
GB001-ASTHMA-201,AE,GB001-ASTHMA-201-SITE001-0328,3,AE3,ASTHMA,Asthma,,Asthma,10003553,Bronchospasm and obstruction,10006482,Lower respiratory tract conditions (excl obstruction and infection),10063481,"Respiratory, thoracic and mediastinal disorders",10038738,"Respiratory, thoracic and mediastinal disorders",10038738,MILD,N,DOSE NOT CHANGED,UNLIKELY RELATED,RECOVERED/RESOLVED,N,N,N,N,N,N,TREATMENT,2024-04-28,2024-05-11,28,41,
GB001-ASTHMA-201,AE,GB001-ASTHMA-201-SITE001-0331,1,AE1,BRONCHITIS,Bronchitis,,Bronchitis,10006451,Lower respiratory tract and lung infections,10024968,Infections NEC,10021902,Infections and infestations,10021881,Infections and infestations,10021881,MODERATE,N,DOSE NOT CHANGED,NOT RELATED,RECOVERED/RESOLVED,N,N,N,N,N,N,TREATMENT,2024-05-16,2024-06-03,51,69,
GB001-ASTHMA-201,AE,GB001-ASTHMA-201-SITE001-0334,1,AE1,CYTOKINE RELEASE SYNDROME,Cytokine release syndrome,,Cytokine release syndrome,10052015,Immune and associated conditions NEC,10027682,Autoimmune disorders,10003815,Immune system disorders,10021428,Immune system disorders,10021428,MODERATE,N,DOSE NOT CHANGED,UNLIKELY RELATED,RECOVERED/RESOLVED,N,N,N,N,N,N,TREATMENT,2024-02-20,2024-02-29,7,16,
GB001-ASTHMA-201,AE,GB001-ASTHMA-201-SITE001-0334,2,AE2,COUGH,Cough,,Cough,10011224,Coughing and associated symptoms,10011228,Respiratory tract signs and symptoms,10038734,"Respiratory, thoracic and mediastinal disorders",10038738,"Respiratory, thoracic and mediastinal disorders",10038738,MODERATE,N,DRUG INTERRUPTED,POSSIBLY RELATED,NOT RECOVERED/NOT RESOLVED,N,N,N,N,N,N,TREATMENT,2024-03-07,,23,,DURING/AFTER
GB001-ASTHMA-201,AE,GB001-ASTHMA-201-SITE001-0334,3,AE3,HEADACHE,Headache,,Headache,10019211,Headaches NEC,10019233,Headaches,10019231,Nervous system disorders,10029205,Nervous system disorders,10029205,MODERATE,N,DOSE NOT CHANGED,NOT RELATED,NOT RECOVERED/NOT RESOLVED,N,N,N,N,N,N,TREATMENT,2024-03-25,,41,,DURING/AFTER
GB001-ASTHMA-201,AE,GB001-ASTHMA-201-SITE001-0334,4,AE4,NASOPHARYNGITIS,Nasopharyngitis,,Nasopharyngitis,10028810,Upper respiratory tract infections,10046309,Upper respiratory tract infections,10046309,Infections and infestations,10021881,Infections and infestations,10021881,MODERATE,N,DOSE NOT CHANGED,NOT RELATED,RECOVERED/RESOLVED,N,N,N,N,N,N,TREATMENT,2024-03-26,2024-04-07,42,54,
GB001-ASTHMA-201,AE,GB001-ASTHMA-201-SITE001-0334,5,AE5,BACK PAIN,Back pain,,Back pain,10003988,Spinal column and cord signs and symptoms,10041367,Musculoskeletal and connective tissue signs and symptoms NEC,10063536,Musculoskeletal and connective tissue disorders,10028395,Musculoskeletal and connective tissue disorders,10028395,MODERATE,N,DOSE NOT CHANGED,UNLIKELY RELATED,RECOVERED/RESOLVED,N,N,N,N,N,N,TREATMENT,2024-04-16,2024-04-21,63,68,
GB001-ASTHMA-201,AE,GB001-ASTHMA-201-SITE001-0337,1,AE1,FATIGUE,Fatigue,,Fatigue,10016256,Asthenic conditions,10003550,General system disorders NEC,10060892,General disorders and administration site conditions,10018065,General disorders and administration site conditions,10018065,MODERATE,N,DOSE NOT CHANGED,NOT RELATED,RECOVERING/RESOLVING,N,N,N,N,N,N,TREATMENT,2024-04-28,2024-05-17,21,40,
GB001-ASTHMA-201,AE,GB001-ASTHMA-201-SITE001-0337,2,AE2,ASTHMA,Asthma,,Asthma,10003553,Bronchospasm and obstruction,10006482,Lower respiratory tract conditions (excl obstruction and infection),10063481,"Respiratory, thoracic and mediastinal disorders",10038738,"Respiratory, thoracic and mediastinal disorders",10038738,MILD,N,DOSE NOT CHANGED,NOT RELATED,RECOVERING/RESOLVING,N,N,N,N,N,N,TREATMENT,2024-05-09,2024-05-10,32,33,
GB001-ASTHMA-201,AE,GB001-ASTHMA-201-SITE001-0340,1,AE1,NAUSEA,Nausea,,Nausea,10028813,Nausea and vomiting symptoms,10028817,Gastrointestinal signs and symptoms,10017999,Gastrointestinal disorders,10017947,Gastrointestinal disorders,10017947,MILD,N,DOSE NOT CHANGED,NOT RELATED,RECOVERED/RESOLVED,N,N,N,N,N,N,TREATMENT,2024-04-21,2024-04-22,11,12,
GB001-ASTHMA-201,AE,GB001-ASTHMA-201-SITE001-0340,2,AE2,UPPER RESPIRATORY TRACT INFECTION,Upper respiratory tract infection,,Upper respiratory tract infection,10046306,Upper respiratory tract infections,10046309,Upper respiratory tract infections,10046309,Infections and infestations,10021881,Infections and infestations,10021881,MODERATE,N,DOSE NOT CHANGED,NOT RELATED,RECOVERED/RESOLVED,N,N,N,N,N,N,TREATMENT,2024-04-23,2024-05-01,13,21,
GB001-ASTHMA-201,AE,GB001-ASTHMA-201-SITE001-0340,3,AE3,SINUSITIS,Sinusitis,,Sinusitis,10040753,Upper respiratory tract infections,10046309,Upper respiratory tract infections,10046309,Infections and infestations,10021881,Infections and infestations,10021881,SEVERE,Y,DOSE NOT CHANGED,NOT RELATED,RECOVERED/RESOLVED,N,N,N,Y,N,N,TREATMENT,2024-04-30,2024-06-17,20,68,
GB001-ASTHMA-201,AE,GB001-ASTHMA-201-SITE001-0340,4,AE4,OROPHARYNGEAL PAIN,Oropharyngeal pain,,Oropharyngeal pain,10068319,Oral soft tissue conditions NEC,10068876,Oral soft tissue conditions,10061998,Gastrointestinal disorders,10017947,Gastrointestinal disorders,10017947,MODERATE,N,DOSE NOT CHANGED,NOT RELATED,NOT RECOVERED/NOT RESOLVED,N,N,N,N,N,N,TREATMENT,2024-05-13,,33,,DURING/AFTER
GB001-ASTHMA-201,AE,GB001-ASTHMA-201-SITE001-0340,5,AE5,BRONCHITIS,Bronchitis,,Bronchitis,10006451,Lower respiratory tract and lung infections,10024968,Infections NEC,10021902,Infections and infestations,10021881,Infections and infestations,10021881,MODERATE,N,DOSE NOT CHANGED,NOT RELATED,RECOVERING/RESOLVING,N,N,N,N,N,N,TREATMENT,2024-05-30,2024-06-28,50,79,
GB001-ASTHMA-201,AE,GB001-ASTHMA-201-SITE001-0340,6,AE6,NASOPHARYNGITIS,Nasopharyngitis,,Nasopharyngitis,10028810,Upper respiratory tract infections,10046309,Upper respiratory tract infections,10046309,Infections and infestations,10021881,Infections and infestations,10021881,SEVERE,Y,DOSE NOT CHANGED,UNLIKELY RELATED,RECOVERED/RESOLVED,N,N,N,Y,N,N,TREATMENT,2024-06-01,2024-07-27,52,108,
GB001-ASTHMA-201,AE,GB001-ASTHMA-201-SITE001-0343,1,AE1,ASTHMA,Asthma,,Asthma,10003553,Bronchospasm and obstruction,10006482,Lower respiratory tract conditions (excl obstruction and infection),10063481,"Respiratory, thoracic and mediastinal disorders",10038738,"Respiratory, thoracic and mediastinal disorders",10038738,MODERATE,N,DRUG INTERRUPTED,POSSIBLY RELATED,RECOVERED/RESOLVED,N,N,N,N,N,N,TREATMENT,2024-03-18,2024-03-30,23,35,
GB001-ASTHMA-201,AE,GB001-ASTHMA-201-SITE001-0343,2,AE2,COUGH,Cough,,Cough,10011224,Coughing and associated symptoms,10011228,Respiratory tract signs and symptoms,10038734,"Respiratory, thoracic and mediastinal disorders",10038738,"Respiratory, thoracic and mediastinal disorders",10038738,SEVERE,Y,DOSE NOT CHANGED,NOT RELATED,RECOVERED/RESOLVED,N,N,N,Y,N,N,TREATMENT,2024-03-29,2024-05-06,34,72,
GB001-ASTHMA-201,AE,GB001-ASTHMA-201-SITE001-0343,3,AE3,HEADACHE,Headache,,Headache,10019211,Headaches NEC,10019233,Headaches,10019231,Nervous system disorders,10029205,Nervous system disorders,10029205,MILD,N,DOSE NOT CHANGED,NOT RELATED,RECOVERED/RESOLVED,N,N,N,N,N,N,TREATMENT,2024-04-09,2024-04-12,45,48,
GB001-ASTHMA-201,AE,GB001-ASTHMA-201-SITE001-0343,4,AE4,ASTHMA,Asthma,,Asthma,10003553,Bronchospasm and obstruction,10006482,Lower respiratory tract conditions (excl obstruction and infection),10063481,"Respiratory, thoracic and mediastinal disorders",10038738,"Respiratory, thoracic and mediastinal disorders",10038738,MILD,N,DOSE NOT CHANGED,NOT RELATED,NOT RECOVERED/NOT RESOLVED,N,N,N,N,N,N,TREATMENT,2024-05-02,,68,,DURING/AFTER
GB001-ASTHMA-201,AE,GB001-ASTHMA-201-SITE001-0346,1,AE1,NAUSEA,Nausea,,Nausea,10028813,Nausea and vomiting symptoms,10028817,Gastrointestinal signs and symptoms,10017999,Gastrointestinal disorders,10017947,Gastrointestinal disorders,10017947,MILD,N,DOSE NOT CHANGED,NOT RELATED,RECOVERED/RESOLVED,N,N,N,N,N,N,TREATMENT,2024-03-20,2024-03-23,27,30,
GB001-ASTHMA-201,AE,GB001-ASTHMA-201-SITE001-0349,1,AE1,BRONCHITIS,Bronchitis,,Bronchitis,10006451,Lower respiratory tract and lung infections,10024968,Infections NEC,10021902,Infections and infestations,10021881,Infections and infestations,10021881,MODERATE,N,DOSE NOT CHANGED,UNLIKELY RELATED,RECOVERED/RESOLVED,N,N,N,N,N,N,TREATMENT,2024-05-06,2024-05-30,22,46,
GB001-ASTHMA-201,AE,GB001-ASTHMA-201-SITE001-0349,2,AE2,SINUSITIS,Sinusitis,,Sinusitis,10040753,Upper respiratory tract infections,10046309,Upper respiratory tract infections,10046309,Infections and infestations,10021881,Infections and infestations,10021881,MILD,N,DOSE NOT CHANGED,POSSIBLY RELATED,RECOVERED/RESOLVED,N,N,N,N,N,N,TREATMENT,2024-05-28,2024-05-29,44,45,
GB001-ASTHMA-201,AE,GB001-ASTHMA-201-SITE001-0349,3,AE3,CYTOKINE RELEASE SYNDROME,Cytokine release syndrome,,Cytokine release syndrome,10052015,Immune and associated conditions NEC,10027682,Autoimmune disorders,10003815,Immune system disorders,10021428,Immune system disorders,10021428,MILD,N,DOSE REDUCED,PROBABLY RELATED,RECOVERED/RESOLVED,N,N,N,N,N,N,TREATMENT,2024-05-30,2024-06-04,46,51,
GB001-ASTHMA-201,AE,GB001-ASTHMA-201-SITE001-0349,4,AE4,NASOPHARYNGITIS,Nasopharyngitis,,Nasopharyngitis,10028810,Upper respiratory tract infections,10046309,Upper respiratory tract infections,10046309,Infections and infestations,10021881,Infections and infestations,10021881,MODERATE,N,DOSE NOT CHANGED,NOT RELATED,RECOVERED/RESOLVED,N,N,N,N,N,N,TREATMENT,2024-06-03,2024-06-08,50,55,
GB001-ASTHMA-201,AE,GB001-ASTHMA-201-SITE001-0349,5,AE5,HEADACHE,Headache,,Headache,10019211,Headaches NEC,10019233,Headaches,10019231,Nervous system disorders,10029205,Nervous system disorders,10029205,SEVERE,Y,DOSE NOT CHANGED,NOT RELATED,RECOVERED/RESOLVED,N,N,N,Y,N,N,TREATMENT,2024-06-03,2024-06-17,50,64,
GB001-ASTHMA-201,AE,GB001-ASTHMA-201-SITE001-0349,6,AE6,SINUSITIS,Sinusitis,,Sinusitis,10040753,Upper respiratory tract infections,10046309,Upper respiratory tract infections,10046309,Infections and infestations,10021881,Infections and infestations,10021881,MODERATE,N,DOSE NOT CHANGED,RELATED,RECOVERED/RESOLVED,N,N,N,N,N,N,TREATMENT,2024-06-21,2024-07-20,68,97,
GB001-ASTHMA-201,AE,GB001-ASTHMA-201-SITE001-0352,1,AE1,PNEUMONIA,Pneumonia,,Pneumonia,10035664,Lower respiratory and lung infections,10024968,Infections NEC,10021902,Infections and infestations,10021881,Infections and infestations,10021881,MODERATE,N,DOSE NOT CHANGED,PROBABLY RELATED,RECOVERED/RESOLVED,N,N,N,N,N,N,TREATMENT,2024-05-08,2024-05-24,25,41,
GB001-ASTHMA-201,AE,GB001-ASTHMA-201-SITE001-0355,1,AE1,FATIGUE,Fatigue,,Fatigue,10016256,Asthenic conditions,10003550,General system disorders NEC,10060892,General disorders and administration site conditions,10018065,General disorders and administration site conditions,10018065,MILD,N,DOSE NOT CHANGED,NOT RELATED,RECOVERING/RESOLVING,N,N,N,N,N,N,TREATMENT,2024-03-21,2024-04-01,15,26,
GB001-ASTHMA-201,AE,GB001-ASTHMA-201-SITE001-0355,2,AE2,SINUSITIS,Sinusitis,,Sinusitis,10040753,Upper respiratory tract infections,10046309,Upper respiratory tract infections,10046309,Infections and infestations,10021881,Infections and infestations,10021881,MILD,N,DOSE NOT CHANGED,NOT RELATED,RECOVERED/RESOLVED,N,N,N,N,N,N,TREATMENT,2024-04-12,2024-04-18,37,43,
GB001-ASTHMA-201,AE,GB001-ASTHMA-201-SITE001-0355,3,AE3,SINUSITIS,Sinusitis,,Sinusitis,10040753,Upper respiratory tract infections,10046309,Upper respiratory tract infections,10046309,Infections and infestations,10021881,Infections and infestations,10021881,SEVERE,Y,DOSE NOT CHANGED,NOT RELATED,RECOVERED/RESOLVED,N,N,N,Y,N,N,TREATMENT,2024-05-16,2024-06-12,71,98,
GB001-ASTHMA-201,AE,GB001-ASTHMA-201-SITE001-0361,1,AE1,HEADACHE,Headache,,Headache,10019211,Headaches NEC,10019233,Headaches,10019231,Nervous system disorders,10029205,Nervous system disorders,10029205,MILD,N,DOSE NOT CHANGED,NOT RELATED,RECOVERED/RESOLVED,N,N,N,N,N,N,TREATMENT,2024-06-06,2024-06-07,54,55,
GB001-ASTHMA-201,AE,GB001-ASTHMA-201-SITE001-0361,2,AE2,FATIGUE,Fatigue,,Fatigue,10016256,Asthenic conditions,10003550,General system disorders NEC,10060892,General disorders and administration site conditions,10018065,General disorders and administration site conditions,10018065,MODERATE,N,DOSE NOT CHANGED,NOT RELATED,RECOVERED/RESOLVED,N,N,N,N,N,N,TREATMENT,2024-06-19,2024-07-10,67,88,
GB001-ASTHMA-201,AE,GB001-ASTHMA-201-SITE001-0367,1,AE1,ASTHMA,Asthma,,Asthma,10003553,Bronchospasm and obstruction,10006482,Lower respiratory tract conditions (excl obstruction and infection),10063481,"Respiratory, thoracic and mediastinal disorders",10038738,"Respiratory, thoracic and mediastinal disorders",10038738,SEVERE,Y,DOSE NOT CHANGED,UNLIKELY RELATED,RECOVERED/RESOLVED,N,N,N,N,N,Y,TREATMENT,2024-05-16,2024-05-23,37,44,
GB001-ASTHMA-201,AE,GB001-ASTHMA-201-SITE001-0370,1,AE1,COUGH,Cough,,Cough,10011224,Coughing and associated symptoms,10011228,Respiratory tract signs and symptoms,10038734,"Respiratory, thoracic and mediastinal disorders",10038738,"Respiratory, thoracic and mediastinal disorders",10038738,MODERATE,N,DOSE NOT CHANGED,NOT RELATED,RECOVERED/RESOLVED,N,N,N,N,N,N,TREATMENT,2024-04-22,2024-05-16,29,53,
GB001-ASTHMA-201,AE,GB001-ASTHMA-201-SITE001-0370,2,AE2,OROPHARYNGEAL PAIN,Oropharyngeal pain,,Oropharyngeal pain,10068319,Oral soft tissue conditions NEC,10068876,Oral soft tissue conditions,10061998,Gastrointestinal disorders,10017947,Gastrointestinal disorders,10017947,MODERATE,N,DOSE NOT CHANGED,NOT RELATED,NOT RECOVERED/NOT RESOLVED,N,N,N,N,N,N,TREATMENT,2024-05-01,,38,,DURING/AFTER
GB001-ASTHMA-201,AE,GB001-ASTHMA-201-SITE001-0370,3,AE3,NASOPHARYNGITIS,Nasopharyngitis,,Nasopharyngitis,10028810,Upper respiratory tract infections,10046309,Upper respiratory tract infections,10046309,Infections and infestations,10021881,Infections and infestations,10021881,MODERATE,N,DOSE REDUCED,RELATED,RECOVERED/RESOLVED,N,N,N,N,N,N,TREATMENT,2024-05-05,2024-05-11,42,48,
GB001-ASTHMA-201,AE,GB001-ASTHMA-201-SITE001-0370,4,AE4,NASOPHARYNGITIS,Nasopharyngitis,,Nasopharyngitis,10028810,Upper respiratory tract infections,10046309,Upper respiratory tract infections,10046309,Infections and infestations,10021881,Infections and infestations,10021881,MILD,N,DOSE NOT CHANGED,NOT RELATED,RECOVERED/RESOLVED,N,N,N,N,N,N,TREATMENT,2024-05-14,2024-05-25,51,62,
GB001-ASTHMA-201,AE,GB001-ASTHMA-201-SITE001-0370,5,AE5,OROPHARYNGEAL PAIN,Oropharyngeal pain,,Oropharyngeal pain,10068319,Oral soft tissue conditions NEC,10068876,Oral soft tissue conditions,10061998,Gastrointestinal disorders,10017947,Gastrointestinal disorders,10017947,MODERATE,N,DOSE NOT CHANGED,RELATED,RECOVERED/RESOLVED,N,N,N,N,N,N,TREATMENT,2024-05-29,2024-06-11,66,79,
GB001-ASTHMA-201,AE,GB001-ASTHMA-201-SITE001-0373,1,AE1,ASTHMA,Asthma,,Asthma,10003553,Bronchospasm and obstruction,10006482,Lower respiratory tract conditions (excl obstruction and infection),10063481,"Respiratory, thoracic and mediastinal disorders",10038738,"Respiratory, thoracic and mediastinal disorders",10038738,MILD,N,DOSE NOT CHANGED,UNLIKELY RELATED,RECOVERED/RESOLVED,N,N,N,N,N,N,TREATMENT,2024-03-22,2024-03-29,3,10,
GB001-ASTHMA-201,AE,GB001-ASTHMA-201-SITE001-0373,2,AE2,HEADACHE,Headache,,Headache,10019211,Headaches NEC,10019233,Headaches,10019231,Nervous system disorders,10029205,Nervous system disorders,10029205,MODERATE,N,DOSE NOT CHANGED,UNLIKELY RELATED,RECOVERING/RESOLVING,N,N,N,N,N,N,TREATMENT,2024-05-22,2024-05-28,64,70,
GB001-ASTHMA-201,AE,GB001-ASTHMA-201-SITE001-0376,1,AE1,COUGH,Cough,,Cough,10011224,Coughing and associated symptoms,10011228,Respiratory tract signs and symptoms,10038734,"Respiratory, thoracic and mediastinal disorders",10038738,"Respiratory, thoracic and mediastinal disorders",10038738,MILD,N,DOSE NOT CHANGED,POSSIBLY RELATED,RECOVERED/RESOLVED,N,N,N,N,N,N,TREATMENT,2024-04-20,2024-05-02,19,31,
GB001-ASTHMA-201,AE,GB001-ASTHMA-201-SITE001-0379,1,AE1,BRONCHITIS,Bronchitis,,Bronchitis,10006451,Lower respiratory tract and lung infections,10024968,Infections NEC,10021902,Infections and infestations,10021881,Infections and infestations,10021881,MODERATE,N,DOSE NOT CHANGED,NOT RELATED,RECOVERED/RESOLVED,N,N,N,N,N,N,TREATMENT,2024-06-03,2024-06-24,30,51,
GB001-ASTHMA-201,AE,GB001-ASTHMA-201-SITE001-0379,2,AE2,UPPER RESPIRATORY TRACT INFECTION,Upper respiratory tract infection,,Upper respiratory tract infection,10046306,Upper respiratory tract infections,10046309,Upper respiratory tract infections,10046309,Infections and infestations,10021881,Infections and infestations,10021881,MODERATE,N,DOSE NOT CHANGED,NOT RELATED,RECOVERED/RESOLVED,N,N,N,N,N,N,TREATMENT,2024-06-09,2024-06-29,36,56,
GB001-ASTHMA-201,AE,GB001-ASTHMA-201-SITE001-0379,3,AE3,ASTHMA,Asthma,,Asthma,10003553,Bronchospasm and obstruction,10006482,Lower respiratory tract conditions (excl obstruction and infection),10063481,"Respiratory, thoracic and mediastinal disorders",10038738,"Respiratory, thoracic and mediastinal disorders",10038738,MILD,N,DOSE NOT CHANGED,NOT RELATED,RECOVERED/RESOLVED,N,N,N,N,N,N,TREATMENT,2024-07-27,2024-08-02,84,90,
GB001-ASTHMA-201,AE,GB001-ASTHMA-201-SITE001-0382,1,AE1,NASOPHARYNGITIS,Nasopharyngitis,,Nasopharyngitis,10028810,Upper respiratory tract infections,10046309,Upper respiratory tract infections,10046309,Infections and infestations,10021881,Infections and infestations,10021881,MILD,N,DOSE NOT CHANGED,POSSIBLY RELATED,RECOVERING/RESOLVING,N,N,N,N,N,N,TREATMENT,2024-05-16,2024-05-17,32,33,
GB001-ASTHMA-201,AE,GB001-ASTHMA-201-SITE001-0385,1,AE1,NASOPHARYNGITIS,Nasopharyngitis,,Nasopharyngitis,10028810,Upper respiratory tract infections,10046309,Upper respiratory tract infections,10046309,Infections and infestations,10021881,Infections and infestations,10021881,MODERATE,N,DOSE NOT CHANGED,UNLIKELY RELATED,RECOVERING/RESOLVING,N,N,N,N,N,N,TREATMENT,2024-03-19,2024-04-02,10,24,
GB001-ASTHMA-201,AE,GB001-ASTHMA-201-SITE001-0385,2,AE2,UPPER RESPIRATORY TRACT INFECTION,Upper respiratory tract infection,,Upper respiratory tract infection,10046306,Upper respiratory tract infections,10046309,Upper respiratory tract infections,10046309,Infections and infestations,10021881,Infections and infestations,10021881,MILD,N,DOSE NOT CHANGED,NOT RELATED,RECOVERING/RESOLVING,N,N,N,N,N,N,TREATMENT,2024-04-06,2024-04-12,28,34,
GB001-ASTHMA-201,AE,GB001-ASTHMA-201-SITE001-0385,3,AE3,NASOPHARYNGITIS,Nasopharyngitis,,Nasopharyngitis,10028810,Upper respiratory tract infections,10046309,Upper respiratory tract infections,10046309,Infections and infestations,10021881,Infections and infestations,10021881,MODERATE,N,DOSE NOT CHANGED,UNLIKELY RELATED,RECOVERING/RESOLVING,N,N,N,N,N,N,TREATMENT,2024-04-08,2024-05-06,30,58,
GB001-ASTHMA-201,AE,GB001-ASTHMA-201-SITE001-0388,1,AE1,NASOPHARYNGITIS,Nasopharyngitis,,Nasopharyngitis,10028810,Upper respiratory tract infections,10046309,Upper respiratory tract infections,10046309,Infections and infestations,10021881,Infections and infestations,10021881,MILD,N,DOSE NOT CHANGED,UNLIKELY RELATED,NOT RECOVERED/NOT RESOLVED,N,N,N,N,N,N,TREATMENT,2024-06-30,,52,,DURING/AFTER
GB001-ASTHMA-201,AE,GB001-ASTHMA-201-SITE001-0388,2,AE2,COUGH,Cough,,Cough,10011224,Coughing and associated symptoms,10011228,Respiratory tract signs and symptoms,10038734,"Respiratory, thoracic and mediastinal disorders",10038738,"Respiratory, thoracic and mediastinal disorders",10038738,MODERATE,N,DOSE NOT CHANGED,NOT RELATED,RECOVERED/RESOLVED,N,N,N,N,N,N,TREATMENT,2024-07-01,2024-07-26,53,78,
GB001-ASTHMA-201,AE,GB001-ASTHMA-201-SITE001-0388,3,AE3,COUGH,Cough,,Cough,10011224,Coughing and associated symptoms,10011228,Respiratory tract signs and symptoms,10038734,"Respiratory, thoracic and mediastinal disorders",10038738,"Respiratory, thoracic and mediastinal disorders",10038738,MILD,N,DOSE NOT CHANGED,RELATED,RECOVERED/RESOLVED,N,N,N,N,N,N,TREATMENT,2024-07-03,2024-07-13,55,65,
GB001-ASTHMA-201,AE,GB001-ASTHMA-201-SITE001-0394,1,AE1,NASOPHARYNGITIS,Nasopharyngitis,,Nasopharyngitis,10028810,Upper respiratory tract infections,10046309,Upper respiratory tract infections,10046309,Infections and infestations,10021881,Infections and infestations,10021881,MODERATE,N,DOSE REDUCED,POSSIBLY RELATED,RECOVERED/RESOLVED,N,N,N,N,N,N,TREATMENT,2024-06-17,2024-07-11,66,90,
GB001-ASTHMA-201,AE,GB001-ASTHMA-201-SITE001-0397,1,AE1,NASOPHARYNGITIS,Nasopharyngitis,,Nasopharyngitis,10028810,Upper respiratory tract infections,10046309,Upper respiratory tract infections,10046309,Infections and infestations,10021881,Infections and infestations,10021881,MODERATE,N,DOSE NOT CHANGED,NOT RELATED,RECOVERED/RESOLVED,N,N,N,N,N,N,TREATMENT,2024-04-11,2024-04-26,69,84,
GB001-ASTHMA-201,AE,GB001-ASTHMA-201-SITE001-0400,1,AE1,BRONCHITIS,Bronchitis,,Bronchitis,10006451,Lower respiratory tract and lung infections,10024968,Infections NEC,10021902,Infections and infestations,10021881,Infections and infestations,10021881,MILD,N,DOSE NOT CHANGED,NOT RELATED,RECOVERED/RESOLVED,N,N,N,N,N,N,TREATMENT,2024-05-24,2024-05-25,21,22,
GB001-ASTHMA-201,AE,GB001-ASTHMA-201-SITE001-0400,2,AE2,ASTHMA,Asthma,,Asthma,10003553,Bronchospasm and obstruction,10006482,Lower respiratory tract conditions (excl obstruction and infection),10063481,"Respiratory, thoracic and mediastinal disorders",10038738,"Respiratory, thoracic and mediastinal disorders",10038738,MODERATE,N,DOSE REDUCED,POSSIBLY RELATED,RECOVERED/RESOLVED,N,N,N,N,N,N,TREATMENT,2024-06-06,2024-07-03,34,61,
GB001-ASTHMA-201,AE,GB001-ASTHMA-201-SITE001-0400,3,AE3,MYOCARDIAL INFARCTION,Myocardial infarction,,Myocardial infarction,10028596,Ischaemic coronary artery disorders,10061218,Coronary artery disorders,10011078,Cardiac disorders,10007541,Cardiac disorders,10007541,MODERATE,N,DOSE NOT CHANGED,POSSIBLY RELATED,NOT RECOVERED/NOT RESOLVED,N,N,N,N,N,N,TREATMENT,2024-06-11,,39,,DURING/AFTER
GB001-ASTHMA-201,AE,GB001-ASTHMA-201-SITE001-0403,1,AE1,OROPHARYNGEAL PAIN,Oropharyngeal pain,,Oropharyngeal pain,10068319,Oral soft tissue conditions NEC,10068876,Oral soft tissue conditions,10061998,Gastrointestinal disorders,10017947,Gastrointestinal disorders,10017947,MODERATE,N,DOSE NOT CHANGED,POSSIBLY RELATED,RECOVERED/RESOLVED,N,N,N,N,N,N,TREATMENT,2024-03-11,2024-04-01,5,26,
GB001-ASTHMA-201,AE,GB001-ASTHMA-201-SITE001-0403,2,AE2,HEADACHE,Headache,,Headache,10019211,Headaches NEC,10019233,Headaches,10019231,Nervous system disorders,10029205,Nervous system disorders,10029205,SEVERE,Y,DOSE NOT CHANGED,NOT RELATED,RECOVERED/RESOLVED,N,N,N,Y,N,N,TREATMENT,2024-03-22,2024-03-26,16,20,
GB001-ASTHMA-201,AE,GB001-ASTHMA-201-SITE001-0403,3,AE3,PNEUMONIA,Pneumonia,,Pneumonia,10035664,Lower respiratory and lung infections,10024968,Infections NEC,10021902,Infections and infestations,10021881,Infections and infestations,10021881,MILD,N,DOSE NOT CHANGED,UNLIKELY RELATED,RECOVERED/RESOLVED,N,N,N,N,N,N,TREATMENT,2024-03-24,2024-04-03,18,28,
GB001-ASTHMA-201,AE,GB001-ASTHMA-201-SITE001-0403,4,AE4,SINUSITIS,Sinusitis,,Sinusitis,10040753,Upper respiratory tract infections,10046309,Upper respiratory tract infections,10046309,Infections and infestations,10021881,Infections and infestations,10021881,MILD,N,DOSE NOT CHANGED,UNLIKELY RELATED,RECOVERING/RESOLVING,N,N,N,N,N,N,TREATMENT,2024-03-24,2024-03-29,18,23,
GB001-ASTHMA-201,AE,GB001-ASTHMA-201-SITE001-0403,5,AE5,HEADACHE,Headache,,Headache,10019211,Headaches NEC,10019233,Headaches,10019231,Nervous system disorders,10029205,Nervous system disorders,10029205,MODERATE,N,DRUG INTERRUPTED,POSSIBLY RELATED,RECOVERED/RESOLVED,N,N,N,N,N,N,TREATMENT,2024-04-07,2024-04-08,32,33,
GB001-ASTHMA-201,AE,GB001-ASTHMA-201-SITE001-0403,6,AE6,NASOPHARYNGITIS,Nasopharyngitis,,Nasopharyngitis,10028810,Upper respiratory tract infections,10046309,Upper respiratory tract infections,10046309,Infections and infestations,10021881,Infections and infestations,10021881,SEVERE,Y,DOSE NOT CHANGED,UNLIKELY RELATED,RECOVERING/RESOLVING,N,N,N,Y,N,N,TREATMENT,2024-04-27,2024-04-29,52,54,
GB001-ASTHMA-201,AE,GB001-ASTHMA-201-SITE001-0403,7,AE7,SINUSITIS,Sinusitis,,Sinusitis,10040753,Upper respiratory tract infections,10046309,Upper respiratory tract infections,10046309,Infections and infestations,10021881,Infections and infestations,10021881,MILD,N,DOSE NOT CHANGED,POSSIBLY RELATED,RECOVERED/RESOLVED,N,N,N,N,N,N,TREATMENT,2024-04-29,2024-05-12,54,67,
GB001-ASTHMA-201,AE,GB001-ASTHMA-201-SITE001-0403,8,AE8,NASOPHARYNGITIS,Nasopharyngitis,,Nasopharyngitis,10028810,Upper respiratory tract infections,10046309,Upper respiratory tract infections,10046309,Infections and infestations,10021881,Infections and infestations,10021881,MILD,N,DOSE NOT CHANGED,NOT RELATED,RECOVERED/RESOLVED,N,N,N,N,N,N,TREATMENT,2024-05-10,2024-05-17,65,72,
GB001-ASTHMA-201,AE,GB001-ASTHMA-201-SITE001-0403,9,AE9,NASOPHARYNGITIS,Nasopharyngitis,,Nasopharyngitis,10028810,Upper respiratory tract infections,10046309,Upper respiratory tract infections,10046309,Infections and infestations,10021881,Infections and infestations,10021881,MILD,N,DOSE REDUCED,POSSIBLY RELATED,RECOVERED/RESOLVED,N,N,N,N,N,N,TREATMENT,2024-05-12,2024-05-25,67,80,
GB001-ASTHMA-201,AE,GB001-ASTHMA-201-SITE001-0406,1,AE1,BRONCHITIS,Bronchitis,,Bronchitis,10006451,Lower respiratory tract and lung infections,10024968,Infections NEC,10021902,Infections and infestations,10021881,Infections and infestations,10021881,SEVERE,Y,DOSE NOT CHANGED,UNLIKELY RELATED,RECOVERING/RESOLVING,N,N,N,Y,N,N,TREATMENT,2024-04-29,2024-05-18,19,38,
GB001-ASTHMA-201,AE,GB001-ASTHMA-201-SITE001-0409,1,AE1,NAUSEA,Nausea,,Nausea,10028813,Nausea and vomiting symptoms,10028817,Gastrointestinal signs and symptoms,10017999,Gastrointestinal disorders,10017947,Gastrointestinal disorders,10017947,MODERATE,N,DOSE NOT CHANGED,POSSIBLY RELATED,RECOVERED/RESOLVED,N,N,N,N,N,N,TREATMENT,2024-03-25,2024-03-31,18,24,
GB001-ASTHMA-201,AE,GB001-ASTHMA-201-SITE001-0409,2,AE2,SINUSITIS,Sinusitis,,Sinusitis,10040753,Upper respiratory tract infections,10046309,Upper respiratory tract infections,10046309,Infections and infestations,10021881,Infections and infestations,10021881,SEVERE,Y,DOSE NOT CHANGED,NOT RELATED,RECOVERED/RESOLVED,N,N,N,Y,N,N,TREATMENT,2024-03-27,2024-05-10,20,64,
GB001-ASTHMA-201,AE,GB001-ASTHMA-201-SITE001-0409,3,AE3,NASOPHARYNGITIS,Nasopharyngitis,,Nasopharyngitis,10028810,Upper respiratory tract infections,10046309,Upper respiratory tract infections,10046309,Infections and infestations,10021881,Infections and infestations,10021881,MODERATE,N,DOSE NOT CHANGED,NOT RELATED,RECOVERED/RESOLVED,N,N,N,N,N,N,TREATMENT,2024-03-30,2024-04-03,23,27,
GB001-ASTHMA-201,AE,GB001-ASTHMA-201-SITE001-0409,4,AE4,FATIGUE,Fatigue,,Fatigue,10016256,Asthenic conditions,10003550,General system disorders NEC,10060892,General disorders and administration site conditions,10018065,General disorders and administration site conditions,10018065,MILD,N,DOSE REDUCED,PROBABLY RELATED,RECOVERED/RESOLVED,N,N,N,N,N,N,TREATMENT,2024-04-08,2024-04-14,32,38,
GB001-ASTHMA-201,AE,GB001-ASTHMA-201-SITE001-0409,5,AE5,UPPER RESPIRATORY TRACT INFECTION,Upper respiratory tract infection,,Upper respiratory tract infection,10046306,Upper respiratory tract infections,10046309,Upper respiratory tract infections,10046309,Infections and infestations,10021881,Infections and infestations,10021881,MODERATE,N,DOSE NOT CHANGED,NOT RELATED,RECOVERED/RESOLVED,N,N,N,N,N,N,TREATMENT,2024-05-04,2024-05-10,58,64,
GB001-ASTHMA-201,AE,GB001-ASTHMA-201-SITE001-0409,6,AE6,NASOPHARYNGITIS,Nasopharyngitis,,Nasopharyngitis,10028810,Upper respiratory tract infections,10046309,Upper respiratory tract infections,10046309,Infections and infestations,10021881,Infections and infestations,10021881,SEVERE,Y,DRUG WITHDRAWN,PROBABLY RELATED,RECOVERING/RESOLVING,N,N,N,Y,N,N,TREATMENT,2024-05-10,2024-05-10,64,64,
GB001-ASTHMA-201,AE,GB001-ASTHMA-201-SITE001-0412,1,AE1,NASOPHARYNGITIS,Nasopharyngitis,,Nasopharyngitis,10028810,Upper respiratory tract infections,10046309,Upper respiratory tract infections,10046309,Infections and infestations,10021881,Infections and infestations,10021881,MILD,N,DOSE NOT CHANGED,NOT RELATED,RECOVERED/RESOLVED,N,N,N,N,N,N,TREATMENT,2024-02-26,2024-02-29,1,4,
GB001-ASTHMA-201,AE,GB001-ASTHMA-201-SITE001-0412,2,AE2,ASTHMA,Asthma,,Asthma,10003553,Bronchospasm and obstruction,10006482,Lower respiratory tract conditions (excl obstruction and infection),10063481,"Respiratory, thoracic and mediastinal disorders",10038738,"Respiratory, thoracic and mediastinal disorders",10038738,MILD,N,DOSE NOT CHANGED,NOT RELATED,RECOVERED/RESOLVED,N,N,N,N,N,N,TREATMENT,2024-03-22,2024-03-24,26,28,
GB001-ASTHMA-201,AE,GB001-ASTHMA-201-SITE001-0415,1,AE1,HEADACHE,Headache,,Headache,10019211,Headaches NEC,10019233,Headaches,10019231,Nervous system disorders,10029205,Nervous system disorders,10029205,SEVERE,Y,DOSE NOT CHANGED,UNLIKELY RELATED,RECOVERED/RESOLVED,N,N,N,N,N,Y,TREATMENT,2024-03-05,2024-03-19,4,18,
GB001-ASTHMA-201,AE,GB001-ASTHMA-201-SITE001-0415,2,AE2,COUGH,Cough,,Cough,10011224,Coughing and associated symptoms,10011228,Respiratory tract signs and symptoms,10038734,"Respiratory, thoracic and mediastinal disorders",10038738,"Respiratory, thoracic and mediastinal disorders",10038738,MODERATE,N,DOSE NOT CHANGED,RELATED,RECOVERED/RESOLVED,N,N,N,N,N,N,TREATMENT,2024-03-07,2024-03-26,6,25,
GB001-ASTHMA-201,AE,GB001-ASTHMA-201-SITE001-0415,3,AE3,NASOPHARYNGITIS,Nasopharyngitis,,Nasopharyngitis,10028810,Upper respiratory tract infections,10046309,Upper respiratory tract infections,10046309,Infections and infestations,10021881,Infections and infestations,10021881,MILD,N,DOSE REDUCED,POSSIBLY RELATED,RECOVERED/RESOLVED,N,N,N,N,N,N,TREATMENT,2024-03-17,2024-03-31,16,30,
GB001-ASTHMA-201,AE,GB001-ASTHMA-201-SITE001-0415,4,AE4,BRONCHITIS,Bronchitis,,Bronchitis,10006451,Lower respiratory tract and lung infections,10024968,Infections NEC,10021902,Infections and infestations,10021881,Infections and infestations,10021881,MODERATE,N,DOSE NOT CHANGED,NOT RELATED,RECOVERED/RESOLVED,N,N,N,N,N,N,TREATMENT,2024-04-20,2024-05-10,50,70,
GB001-ASTHMA-201,AE,GB001-ASTHMA-201-SITE001-0415,5,AE5,HEADACHE,Headache,,Headache,10019211,Headaches NEC,10019233,Headaches,10019231,Nervous system disorders,10029205,Nervous system disorders,10029205,SEVERE,Y,DOSE NOT CHANGED,NOT RELATED,RECOVERED/RESOLVED,N,N,N,N,N,Y,TREATMENT,2024-05-09,2024-05-18,69,78,
GB001-ASTHMA-201,AE,GB001-ASTHMA-201-SITE001-0415,6,AE6,ASTHMA,Asthma,,Asthma,10003553,Bronchospasm and obstruction,10006482,Lower respiratory tract conditions (excl obstruction and infection),10063481,"Respiratory, thoracic and mediastinal disorders",10038738,"Respiratory, thoracic and mediastinal disorders",10038738,MILD,N,DOSE NOT CHANGED,NOT RELATED,UNKNOWN,N,N,N,N,N,N,TREATMENT,2024-05-10,2024-05-13,70,73,
GB001-ASTHMA-201,AE,GB001-ASTHMA-201-SITE001-0418,1,AE1,SINUSITIS,Sinusitis,,Sinusitis,10040753,Upper respiratory tract infections,10046309,Upper respiratory tract infections,10046309,Infections and infestations,10021881,Infections and infestations,10021881,MILD,N,DOSE NOT CHANGED,NOT RELATED,RECOVERED/RESOLVED,N,N,N,N,N,N,TREATMENT,2024-03-16,2024-03-18,6,8,
GB001-ASTHMA-201,AE,GB001-ASTHMA-201-SITE001-0418,2,AE2,NASOPHARYNGITIS,Nasopharyngitis,,Nasopharyngitis,10028810,Upper respiratory tract infections,10046309,Upper respiratory tract infections,10046309,Infections and infestations,10021881,Infections and infestations,10021881,MODERATE,N,DOSE NOT CHANGED,UNLIKELY RELATED,RECOVERED/RESOLVED,N,N,N,N,N,N,TREATMENT,2024-04-17,2024-05-05,38,56,
GB001-ASTHMA-201,AE,GB001-ASTHMA-201-SITE001-0421,1,AE1,HEADACHE,Headache,,Headache,10019211,Headaches NEC,10019233,Headaches,10019231,Nervous system disorders,10029205,Nervous system disorders,10029205,MILD,N,DOSE REDUCED,PROBABLY RELATED,RECOVERED/RESOLVED,N,N,N,N,N,N,TREATMENT,2024-04-08,2024-04-10,24,26,
GB001-ASTHMA-201,AE,GB001-ASTHMA-201-SITE001-0421,2,AE2,ASTHMA,Asthma,,Asthma,10003553,Bronchospasm and obstruction,10006482,Lower respiratory tract conditions (excl obstruction and infection),10063481,"Respiratory, thoracic and mediastinal disorders",10038738,"Respiratory, thoracic and mediastinal disorders",10038738,MODERATE,N,DOSE NOT CHANGED,NOT RELATED,RECOVERED/RESOLVED,N,N,N,N,N,N,TREATMENT,2024-04-08,2024-04-17,24,33,
GB001-ASTHMA-201,AE,GB001-ASTHMA-201-SITE001-0421,3,AE3,UPPER RESPIRATORY TRACT INFECTION,Upper respiratory tract infection,,Upper respiratory tract infection,10046306,Upper respiratory tract infections,10046309,Upper respiratory tract infections,10046309,Infections and infestations,10021881,Infections and infestations,10021881,MILD,N,DOSE NOT CHANGED,UNLIKELY RELATED,RECOVERED/RESOLVED,N,N,N,N,N,N,TREATMENT,2024-04-19,2024-04-25,35,41,
GB001-ASTHMA-201,AE,GB001-ASTHMA-201-SITE001-0421,4,AE4,HEADACHE,Headache,,Headache,10019211,Headaches NEC,10019233,Headaches,10019231,Nervous system disorders,10029205,Nervous system disorders,10029205,MILD,N,DOSE NOT CHANGED,NOT RELATED,RECOVERED/RESOLVED,N,N,N,N,N,N,TREATMENT,2024-05-06,2024-05-09,52,55,
GB001-ASTHMA-201,AE,GB001-ASTHMA-201-SITE001-0427,1,AE1,NAUSEA,Nausea,,Nausea,10028813,Nausea and vomiting symptoms,10028817,Gastrointestinal signs and symptoms,10017999,Gastrointestinal disorders,10017947,Gastrointestinal disorders,10017947,MILD,N,DOSE NOT CHANGED,NOT RELATED,RECOVERED/RESOLVED,N,N,N,N,N,N,TREATMENT,2024-03-25,2024-03-27,5,7,
GB001-ASTHMA-201,AE,GB001-ASTHMA-201-SITE001-0427,2,AE2,BRONCHITIS,Bronchitis,,Bronchitis,10006451,Lower respiratory tract and lung infections,10024968,Infections NEC,10021902,Infections and infestations,10021881,Infections and infestations,10021881,SEVERE,Y,DRUG INTERRUPTED,PROBABLY RELATED,RECOVERED/RESOLVED,N,N,N,N,N,Y,TREATMENT,2024-06-02,2024-06-07,74,79,
GB001-ASTHMA-201,AE,GB001-ASTHMA-201-SITE001-0430,1,AE1,BRONCHITIS,Bronchitis,,Bronchitis,10006451,Lower respiratory tract and lung infections,10024968,Infections NEC,10021902,Infections and infestations,10021881,Infections and infestations,10021881,MILD,N,DOSE NOT CHANGED,NOT RELATED,RECOVERED/RESOLVED,N,N,N,N,N,N,TREATMENT,2024-04-20,2024-04-21,2,3,
GB001-ASTHMA-201,AE,GB001-ASTHMA-201-SITE001-0430,2,AE2,NASOPHARYNGITIS,Nasopharyngitis,,Nasopharyngitis,10028810,Upper respiratory tract infections,10046309,Upper respiratory tract infections,10046309,Infections and infestations,10021881,Infections and infestations,10021881,SEVERE,Y,DOSE NOT CHANGED,NOT RELATED,RECOVERED/RESOLVED,N,N,N,Y,N,N,TREATMENT,2024-04-22,2024-06-06,4,49,
GB001-ASTHMA-201,AE,GB001-ASTHMA-201-SITE001-0433,1,AE1,NASOPHARYNGITIS,Nasopharyngitis,,Nasopharyngitis,10028810,Upper respiratory tract infections,10046309,Upper respiratory tract infections,10046309,Infections and infestations,10021881,Infections and infestations,10021881,SEVERE,Y,DRUG WITHDRAWN,PROBABLY RELATED,RECOVERING/RESOLVING,N,N,N,Y,N,N,TREATMENT,2024-02-25,2024-02-25,1,1,
GB001-ASTHMA-201,AE,GB001-ASTHMA-201-SITE001-0436,1,AE1,NAUSEA,Nausea,,Nausea,10028813,Nausea and vomiting symptoms,10028817,Gastrointestinal signs and symptoms,10017999,Gastrointestinal disorders,10017947,Gastrointestinal disorders,10017947,MILD,N,DOSE NOT CHANGED,NOT RELATED,RECOVERING/RESOLVING,N,N,N,N,N,N,TREATMENT,2024-05-11,2024-05-14,58,61,
GB001-ASTHMA-201,AE,GB001-ASTHMA-201-SITE001-0436,2,AE2,SINUSITIS,Sinusitis,,Sinusitis,10040753,Upper respiratory tract infections,10046309,Upper respiratory tract infections,10046309,Infections and infestations,10021881,Infections and infestations,10021881,MILD,N,DOSE NOT CHANGED,UNLIKELY RELATED,UNKNOWN,N,N,N,N,N,N,TREATMENT,2024-05-13,2024-05-26,60,73,
GB001-ASTHMA-201,AE,GB001-ASTHMA-201-SITE001-0439,1,AE1,FATIGUE,Fatigue,,Fatigue,10016256,Asthenic conditions,10003550,General system disorders NEC,10060892,General disorders and administration site conditions,10018065,General disorders and administration site conditions,10018065,MILD,N,DOSE NOT CHANGED,UNLIKELY RELATED,RECOVERED/RESOLVED,N,N,N,N,N,N,TREATMENT,2024-07-05,2024-07-15,68,78,
GB001-ASTHMA-201,AE,GB001-ASTHMA-201-SITE001-0439,2,AE2,ASTHMA,Asthma,,Asthma,10003553,Bronchospasm and obstruction,10006482,Lower respiratory tract conditions (excl obstruction and infection),10063481,"Respiratory, thoracic and mediastinal disorders",10038738,"Respiratory, thoracic and mediastinal disorders",10038738,MILD,N,DOSE NOT CHANGED,NOT RELATED,RECOVERED/RESOLVED,N,N,N,N,N,N,TREATMENT,2024-07-14,2024-07-16,77,79,
GB001-ASTHMA-201,AE,GB001-ASTHMA-201-SITE001-0448,1,AE1,UPPER RESPIRATORY TRACT INFECTION,Upper respiratory tract infection,,Upper respiratory tract infection,10046306,Upper respiratory tract infections,10046309,Upper respiratory tract infections,10046309,Infections and infestations,10021881,Infections and infestations,10021881,MODERATE,N,DOSE REDUCED,POSSIBLY RELATED,RECOVERING/RESOLVING,N,N,N,N,N,N,TREATMENT,2024-06-07,2024-06-13,26,32,
GB001-ASTHMA-201,AE,GB001-ASTHMA-201-SITE001-0448,2,AE2,HEADACHE,Headache,,Headache,10019211,Headaches NEC,10019233,Headaches,10019231,Nervous system disorders,10029205,Nervous system disorders,10029205,MILD,N,DOSE NOT CHANGED,UNLIKELY RELATED,RECOVERED/RESOLVED,N,N,N,N,N,N,TREATMENT,2024-06-10,2024-06-12,29,31,
GB001-ASTHMA-201,AE,GB001-ASTHMA-201-SITE001-0448,3,AE3,OROPHARYNGEAL PAIN,Oropharyngeal pain,,Oropharyngeal pain,10068319,Oral soft tissue conditions NEC,10068876,Oral soft tissue conditions,10061998,Gastrointestinal disorders,10017947,Gastrointestinal disorders,10017947,SEVERE,Y,DRUG WITHDRAWN,POSSIBLY RELATED,RECOVERED/RESOLVED,N,N,N,Y,N,N,TREATMENT,2024-06-13,2024-06-13,32,32,
GB001-ASTHMA-201,AE,GB001-ASTHMA-201-SITE001-0451,1,AE1,OROPHARYNGEAL PAIN,Oropharyngeal pain,,Oropharyngeal pain,10068319,Oral soft tissue conditions NEC,10068876,Oral soft tissue conditions,10061998,Gastrointestinal disorders,10017947,Gastrointestinal disorders,10017947,MILD,N,DOSE NOT CHANGED,NOT RELATED,RECOVERED/RESOLVED,N,N,N,N,N,N,TREATMENT,2024-03-01,2024-03-04,16,19,
GB001-ASTHMA-201,AE,GB001-ASTHMA-201-SITE001-0451,2,AE2,SINUSITIS,Sinusitis,,Sinusitis,10040753,Upper respiratory tract infections,10046309,Upper respiratory tract infections,10046309,Infections and infestations,10021881,Infections and infestations,10021881,MILD,N,DOSE NOT CHANGED,NOT RELATED,RECOVERED/RESOLVED,N,N,N,N,N,N,TREATMENT,2024-03-11,2024-03-25,26,40,
GB001-ASTHMA-201,AE,GB001-ASTHMA-201-SITE001-0451,3,AE3,FATIGUE,Fatigue,,Fatigue,10016256,Asthenic conditions,10003550,General system disorders NEC,10060892,General disorders and administration site conditions,10018065,General disorders and administration site conditions,10018065,MILD,N,DOSE NOT CHANGED,POSSIBLY RELATED,RECOVERING/RESOLVING,N,N,N,N,N,N,TREATMENT,2024-04-02,2024-04-10,48,56,
GB001-ASTHMA-201,AE,GB001-ASTHMA-201-SITE001-0454,1,AE1,NASOPHARYNGITIS,Nasopharyngitis,,Nasopharyngitis,10028810,Upper respiratory tract infections,10046309,Upper respiratory tract infections,10046309,Infections and infestations,10021881,Infections and infestations,10021881,MODERATE,N,DRUG INTERRUPTED,PROBABLY RELATED,RECOVERED/RESOLVED,N,N,N,N,N,N,TREATMENT,2024-04-24,2024-05-06,30,42,
GB001-ASTHMA-201,AE,GB001-ASTHMA-201-SITE001-0454,2,AE2,NAUSEA,Nausea,,Nausea,10028813,Nausea and vomiting symptoms,10028817,Gastrointestinal signs and symptoms,10017999,Gastrointestinal disorders,10017947,Gastrointestinal disorders,10017947,MODERATE,N,DOSE NOT CHANGED,UNLIKELY RELATED,RECOVERED/RESOLVED,N,N,N,N,N,N,TREATMENT,2024-06-09,2024-06-13,76,80,
GB001-ASTHMA-201,AE,GB001-ASTHMA-201-SITE001-0457,1,AE1,MYOCARDIAL INFARCTION,Myocardial infarction,,Myocardial infarction,10028596,Ischaemic coronary artery disorders,10061218,Coronary artery disorders,10011078,Cardiac disorders,10007541,Cardiac disorders,10007541,MODERATE,N,DOSE NOT CHANGED,PROBABLY RELATED,RECOVERED/RESOLVED,N,N,N,N,N,N,TREATMENT,2024-06-18,2024-07-14,61,87,
GB001-ASTHMA-201,AE,GB001-ASTHMA-201-SITE001-0457,2,AE2,UPPER RESPIRATORY TRACT INFECTION,Upper respiratory tract infection,,Upper respiratory tract infection,10046306,Upper respiratory tract infections,10046309,Upper respiratory tract infections,10046309,Infections and infestations,10021881,Infections and infestations,10021881,MODERATE,N,DOSE NOT CHANGED,NOT RELATED,RECOVERED/RESOLVED,N,N,N,N,N,N,TREATMENT,2024-07-11,2024-07-22,84,95,
GB001-ASTHMA-201,AE,GB001-ASTHMA-201-SITE001-0460,1,AE1,NASOPHARYNGITIS,Nasopharyngitis,,Nasopharyngitis,10028810,Upper respiratory tract infections,10046309,Upper respiratory tract infections,10046309,Infections and infestations,10021881,Infections and infestations,10021881,MODERATE,N,DOSE NOT CHANGED,POSSIBLY RELATED,RECOVERED/RESOLVED,N,N,N,N,N,N,TREATMENT,2024-05-06,2024-05-13,55,62,
GB001-ASTHMA-201,AE,GB001-ASTHMA-201-SITE001-0460,2,AE2,FATIGUE,Fatigue,,Fatigue,10016256,Asthenic conditions,10003550,General system disorders NEC,10060892,General disorders and administration site conditions,10018065,General disorders and administration site conditions,10018065,SEVERE,Y,DRUG INTERRUPTED,POSSIBLY RELATED,RECOVERED/RESOLVED,N,N,N,N,N,Y,TREATMENT,2024-05-16,2024-07-08,65,118,
GB001-ASTHMA-201,AE,GB001-ASTHMA-201-SITE001-0466,1,AE1,HEADACHE,Headache,,Headache,10019211,Headaches NEC,10019233,Headaches,10019231,Nervous system disorders,10029205,Nervous system disorders,10029205,MILD,N,DOSE NOT CHANGED,RELATED,RECOVERED/RESOLVED,N,N,N,N,N,N,TREATMENT,2024-03-29,2024-04-01,14,17,
GB001-ASTHMA-201,AE,GB001-ASTHMA-201-SITE001-0466,2,AE2,HEADACHE,Headache,,Headache,10019211,Headaches NEC,10019233,Headaches,10019231,Nervous system disorders,10029205,Nervous system disorders,10029205,MILD,N,DOSE NOT CHANGED,UNLIKELY RELATED,RECOVERED/RESOLVED,N,N,N,N,N,N,TREATMENT,2024-05-02,2024-05-03,48,49,
GB001-ASTHMA-201,AE,GB001-ASTHMA-201-SITE001-0466,3,AE3,BACK PAIN,Back pain,,Back pain,10003988,Spinal column and cord signs and symptoms,10041367,Musculoskeletal and connective tissue signs and symptoms NEC,10063536,Musculoskeletal and connective tissue disorders,10028395,Musculoskeletal and connective tissue disorders,10028395,MODERATE,N,DOSE NOT CHANGED,UNLIKELY RELATED,RECOVERED/RESOLVED,N,N,N,N,N,N,TREATMENT,2024-05-17,2024-06-02,63,79,
GB001-ASTHMA-201,AE,GB001-ASTHMA-201-SITE001-0469,1,AE1,SINUSITIS,Sinusitis,,Sinusitis,10040753,Upper respiratory tract infections,10046309,Upper respiratory tract infections,10046309,Infections and infestations,10021881,Infections and infestations,10021881,SEVERE,Y,DOSE NOT CHANGED,NOT RELATED,RECOVERED/RESOLVED,N,N,N,N,N,Y,TREATMENT,2024-04-18,2024-05-09,78,99,
GB001-ASTHMA-201,AE,GB001-ASTHMA-201-SITE001-0472,1,AE1,NASOPHARYNGITIS,Nasopharyngitis,,Nasopharyngitis,10028810,Upper respiratory tract infections,10046309,Upper respiratory tract infections,10046309,Infections and infestations,10021881,Infections and infestations,10021881,MODERATE,N,DOSE NOT CHANGED,NOT RELATED,RECOVERED/RESOLVED,N,N,N,N,N,N,TREATMENT,2024-02-28,2024-03-27,5,33,
GB001-ASTHMA-201,AE,GB001-ASTHMA-201-SITE001-0472,2,AE2,NAUSEA,Nausea,,Nausea,10028813,Nausea and vomiting symptoms,10028817,Gastrointestinal signs and symptoms,10017999,Gastrointestinal disorders,10017947,Gastrointestinal disorders,10017947,MILD,N,DOSE NOT CHANGED,NOT RELATED,RECOVERED/RESOLVED,N,N,N,N,N,N,TREATMENT,2024-02-28,2024-03-01,5,7,
GB001-ASTHMA-201,AE,GB001-ASTHMA-201-SITE001-0472,3,AE3,COUGH,Cough,,Cough,10011224,Coughing and associated symptoms,10011228,Respiratory tract signs and symptoms,10038734,"Respiratory, thoracic and mediastinal disorders",10038738,"Respiratory, thoracic and mediastinal disorders",10038738,MILD,N,DOSE NOT CHANGED,PROBABLY RELATED,RECOVERED/RESOLVED,N,N,N,N,N,N,TREATMENT,2024-03-26,2024-04-02,32,39,
GB001-ASTHMA-201,AE,GB001-ASTHMA-201-SITE001-0472,4,AE4,HEADACHE,Headache,,Headache,10019211,Headaches NEC,10019233,Headaches,10019231,Nervous system disorders,10029205,Nervous system disorders,10029205,MILD,N,DOSE NOT CHANGED,UNLIKELY RELATED,RECOVERED/RESOLVED,N,N,N,N,N,N,TREATMENT,2024-04-01,2024-04-02,38,39,
GB001-ASTHMA-201,AE,GB001-ASTHMA-201-SITE001-0475,1,AE1,NASOPHARYNGITIS,Nasopharyngitis,,Nasopharyngitis,10028810,Upper respiratory tract infections,10046309,Upper respiratory tract infections,10046309,Infections and infestations,10021881,Infections and infestations,10021881,MODERATE,N,DOSE NOT CHANGED,NOT RELATED,RECOVERED/RESOLVED,N,N,N,N,N,N,TREATMENT,2024-04-25,2024-05-22,2,29,
GB001-ASTHMA-201,AE,GB001-ASTHMA-201-SITE001-0475,2,AE2,BACK PAIN,Back pain,,Back pain,10003988,Spinal column and cord signs and symptoms,10041367,Musculoskeletal and connective tissue signs and symptoms NEC,10063536,Musculoskeletal and connective tissue disorders,10028395,Musculoskeletal and connective tissue disorders,10028395,MODERATE,N,DOSE NOT CHANGED,NOT RELATED,RECOVERED/RESOLVED,N,N,N,N,N,N,TREATMENT,2024-07-07,2024-07-08,75,76,
GB001-ASTHMA-201,AE,GB001-ASTHMA-201-SITE001-0478,1,AE1,NAUSEA,Nausea,,Nausea,10028813,Nausea and vomiting symptoms,10028817,Gastrointestinal signs and symptoms,10017999,Gastrointestinal disorders,10017947,Gastrointestinal disorders,10017947,MILD,N,DOSE NOT CHANGED,NOT RELATED,RECOVERED/RESOLVED,N,N,N,N,N,N,TREATMENT,2024-02-20,2024-02-23,20,23,
GB001-ASTHMA-201,AE,GB001-ASTHMA-201-SITE001-0478,2,AE2,HEADACHE,Headache,,Headache,10019211,Headaches NEC,10019233,Headaches,10019231,Nervous system disorders,10029205,Nervous system disorders,10029205,SEVERE,Y,DOSE NOT CHANGED,NOT RELATED,RECOVERED/RESOLVED,N,N,N,N,N,Y,TREATMENT,2024-03-27,2024-04-05,56,65,
GB001-ASTHMA-201,AE,GB001-ASTHMA-201-SITE001-0478,3,AE3,NASOPHARYNGITIS,Nasopharyngitis,,Nasopharyngitis,10028810,Upper respiratory tract infections,10046309,Upper respiratory tract infections,10046309,Infections and infestations,10021881,Infections and infestations,10021881,SEVERE,Y,DRUG WITHDRAWN,POSSIBLY RELATED,RECOVERED/RESOLVED,N,N,N,Y,N,N,TREATMENT,2024-04-05,2024-04-05,65,65,
GB001-ASTHMA-201,AE,GB001-ASTHMA-201-SITE001-0481,1,AE1,NASOPHARYNGITIS,Nasopharyngitis,,Nasopharyngitis,10028810,Upper respiratory tract infections,10046309,Upper respiratory tract infections,10046309,Infections and infestations,10021881,Infections and infestations,10021881,MODERATE,N,DOSE NOT CHANGED,UNLIKELY RELATED,RECOVERED/RESOLVED,N,N,N,N,N,N,TREATMENT,2024-02-10,2024-03-09,2,30,
GB001-ASTHMA-201,AE,GB001-ASTHMA-201-SITE001-0481,2,AE2,OROPHARYNGEAL PAIN,Oropharyngeal pain,,Oropharyngeal pain,10068319,Oral soft tissue conditions NEC,10068876,Oral soft tissue conditions,10061998,Gastrointestinal disorders,10017947,Gastrointestinal disorders,10017947,MILD,N,DOSE NOT CHANGED,UNLIKELY RELATED,RECOVERED/RESOLVED,N,N,N,N,N,N,TREATMENT,2024-02-24,2024-03-04,16,25,
GB001-ASTHMA-201,AE,GB001-ASTHMA-201-SITE001-0481,3,AE3,OROPHARYNGEAL PAIN,Oropharyngeal pain,,Oropharyngeal pain,10068319,Oral soft tissue conditions NEC,10068876,Oral soft tissue conditions,10061998,Gastrointestinal disorders,10017947,Gastrointestinal disorders,10017947,MODERATE,N,DOSE NOT CHANGED,NOT RELATED,RECOVERED/RESOLVED,N,N,N,N,N,N,TREATMENT,2024-05-02,2024-05-16,84,98,
GB001-ASTHMA-201,AE,GB001-ASTHMA-201-SITE001-0481,4,AE4,NASOPHARYNGITIS,Nasopharyngitis,,Nasopharyngitis,10028810,Upper respiratory tract infections,10046309,Upper respiratory tract infections,10046309,Infections and infestations,10021881,Infections and infestations,10021881,MODERATE,N,DOSE NOT CHANGED,NOT RELATED,RECOVERED/RESOLVED,N,N,N,N,N,N,TREATMENT,2024-05-02,2024-05-08,84,90,
GB001-ASTHMA-201,AE,GB001-ASTHMA-201-SITE001-0484,1,AE1,UPPER RESPIRATORY TRACT INFECTION,Upper respiratory tract infection,,Upper respiratory tract infection,10046306,Upper respiratory tract infections,10046309,Upper respiratory tract infections,10046309,Infections and infestations,10021881,Infections and infestations,10021881,MILD,N,DOSE REDUCED,POSSIBLY RELATED,RECOVERED/RESOLVED,N,N,N,N,N,N,TREATMENT,2024-03-04,2024-03-13,1,10,
GB001-ASTHMA-201,AE,GB001-ASTHMA-201-SITE001-0484,2,AE2,NASOPHARYNGITIS,Nasopharyngitis,,Nasopharyngitis,10028810,Upper respiratory tract infections,10046309,Upper respiratory tract infections,10046309,Infections and infestations,10021881,Infections and infestations,10021881,MILD,N,DOSE REDUCED,RELATED,RECOVERED/RESOLVED,N,N,N,N,N,N,TREATMENT,2024-04-12,2024-04-20,40,48,
GB001-ASTHMA-201,AE,GB001-ASTHMA-201-SITE001-0484,3,AE3,OROPHARYNGEAL PAIN,Oropharyngeal pain,,Oropharyngeal pain,10068319,Oral soft tissue conditions NEC,10068876,Oral soft tissue conditions,10061998,Gastrointestinal disorders,10017947,Gastrointestinal disorders,10017947,MODERATE,N,DOSE REDUCED,POSSIBLY RELATED,RECOVERING/RESOLVING,N,N,N,N,N,N,TREATMENT,2024-04-15,2024-05-01,43,59,
GB001-ASTHMA-201,AE,GB001-ASTHMA-201-SITE001-0484,4,AE4,UPPER RESPIRATORY TRACT INFECTION,Upper respiratory tract infection,,Upper respiratory tract infection,10046306,Upper respiratory tract infections,10046309,Upper respiratory tract infections,10046309,Infections and infestations,10021881,Infections and infestations,10021881,MILD,N,DOSE NOT CHANGED,NOT RELATED,RECOVERED/RESOLVED,N,N,N,N,N,N,TREATMENT,2024-05-02,2024-05-04,60,62,
GB001-ASTHMA-201,AE,GB001-ASTHMA-201-SITE001-0487,1,AE1,NASOPHARYNGITIS,Nasopharyngitis,,Nasopharyngitis,10028810,Upper respiratory tract infections,10046309,Upper respiratory tract infections,10046309,Infections and infestations,10021881,Infections and infestations,10021881,MODERATE,N,DOSE NOT CHANGED,NOT RELATED,RECOVERING/RESOLVING,N,N,N,N,N,N,TREATMENT,2024-04-02,2024-04-08,19,25,
GB001-ASTHMA-201,AE,GB001-ASTHMA-201-SITE001-0487,2,AE2,SINUSITIS,Sinusitis,,Sinusitis,10040753,Upper respiratory tract infections,10046309,Upper respiratory tract infections,10046309,Infections and infestations,10021881,Infections and infestations,10021881,SEVERE,Y,DOSE NOT CHANGED,UNLIKELY RELATED,RECOVERED/RESOLVED,N,N,N,N,N,Y,TREATMENT,2024-04-08,2024-06-01,25,79,
GB001-ASTHMA-201,AE,GB001-ASTHMA-201-SITE001-0487,3,AE3,HEADACHE,Headache,,Headache,10019211,Headaches NEC,10019233,Headaches,10019231,Nervous system disorders,10029205,Nervous system disorders,10029205,MODERATE,N,DOSE NOT CHANGED,NOT RELATED,RECOVERED/RESOLVED,N,N,N,N,N,N,TREATMENT,2024-04-16,2024-04-19,33,36,
GB001-ASTHMA-201,AE,GB001-ASTHMA-201-SITE001-0487,4,AE4,HEADACHE,Headache,,Headache,10019211,Headaches NEC,10019233,Headaches,10019231,Nervous system disorders,10029205,Nervous system disorders,10029205,MODERATE,N,DOSE NOT CHANGED,UNLIKELY RELATED,RECOVERED/RESOLVED,N,N,N,N,N,N,TREATMENT,2024-05-02,2024-05-05,49,52,
GB001-ASTHMA-201,AE,GB001-ASTHMA-201-SITE001-0490,1,AE1,ASTHMA,Asthma,,Asthma,10003553,Bronchospasm and obstruction,10006482,Lower respiratory tract conditions (excl obstruction and infection),10063481,"Respiratory, thoracic and mediastinal disorders",10038738,"Respiratory, thoracic and mediastinal disorders",10038738,MODERATE,N,DOSE NOT CHANGED,NOT RELATED,RECOVERED/RESOLVED,N,N,N,N,N,N,TREATMENT,2024-02-16,2024-02-17,12,13,
GB001-ASTHMA-201,AE,GB001-ASTHMA-201-SITE001-0490,2,AE2,ASTHMA,Asthma,,Asthma,10003553,Bronchospasm and obstruction,10006482,Lower respiratory tract conditions (excl obstruction and infection),10063481,"Respiratory, thoracic and mediastinal disorders",10038738,"Respiratory, thoracic and mediastinal disorders",10038738,MODERATE,N,DOSE NOT CHANGED,UNLIKELY RELATED,RECOVERED/RESOLVED,N,N,N,N,N,N,TREATMENT,2024-03-22,2024-03-27,47,52,
GB001-ASTHMA-201,AE,GB001-ASTHMA-201-SITE001-0496,1,AE1,FATIGUE,Fatigue,,Fatigue,10016256,Asthenic conditions,10003550,General system disorders NEC,10060892,General disorders and administration site conditions,10018065,General disorders and administration site conditions,10018065,MILD,N,DOSE NOT CHANGED,NOT RELATED,RECOVERED/RESOLVED,N,N,N,N,N,N,TREATMENT,2024-03-15,2024-03-21,13,19,
GB001-ASTHMA-201,AE,GB001-ASTHMA-201-SITE001-0496,2,AE2,UPPER RESPIRATORY TRACT INFECTION,Upper respiratory tract infection,,Upper respiratory tract infection,10046306,Upper respiratory tract infections,10046309,Upper respiratory tract infections,10046309,Infections and infestations,10021881,Infections and infestations,10021881,SEVERE,Y,DOSE NOT CHANGED,UNLIKELY RELATED,RECOVERED/RESOLVED,N,N,N,Y,N,N,TREATMENT,2024-05-08,2024-06-22,67,112,
GB001-ASTHMA-201,AE,GB001-ASTHMA-201-SITE002-0002,1,AE1,ASTHMA,Asthma,,Asthma,10003553,Bronchospasm and obstruction,10006482,Lower respiratory tract conditions (excl obstruction and infection),10063481,"Respiratory, thoracic and mediastinal disorders",10038738,"Respiratory, thoracic and mediastinal disorders",10038738,MODERATE,N,DOSE NOT CHANGED,NOT RELATED,RECOVERED/RESOLVED,N,N,N,N,N,N,TREATMENT,2024-02-17,2024-03-14,13,39,
GB001-ASTHMA-201,AE,GB001-ASTHMA-201-SITE002-0002,2,AE2,SINUSITIS,Sinusitis,,Sinusitis,10040753,Upper respiratory tract infections,10046309,Upper respiratory tract infections,10046309,Infections and infestations,10021881,Infections and infestations,10021881,MILD,N,DOSE NOT CHANGED,NOT RELATED,RECOVERED/RESOLVED,N,N,N,N,N,N,TREATMENT,2024-03-12,2024-03-21,37,46,
GB001-ASTHMA-201,AE,GB001-ASTHMA-201-SITE002-0002,3,AE3,UPPER RESPIRATORY TRACT INFECTION,Upper respiratory tract infection,,Upper respiratory tract infection,10046306,Upper respiratory tract infections,10046309,Upper respiratory tract infections,10046309,Infections and infestations,10021881,Infections and infestations,10021881,MILD,N,DOSE NOT CHANGED,UNLIKELY RELATED,RECOVERED/RESOLVED WITH SEQUELAE,N,N,N,N,N,N,TREATMENT,2024-04-01,2024-04-09,57,65,
GB001-ASTHMA-201,AE,GB001-ASTHMA-201-SITE002-0005,1,AE1,BRONCHITIS,Bronchitis,,Bronchitis,10006451,Lower respiratory tract and lung infections,10024968,Infections NEC,10021902,Infections and infestations,10021881,Infections and infestations,10021881,MODERATE,N,DOSE NOT CHANGED,NOT RELATED,RECOVERED/RESOLVED,N,N,N,N,N,N,TREATMENT,2024-05-27,2024-06-06,18,28,
GB001-ASTHMA-201,AE,GB001-ASTHMA-201-SITE002-0005,2,AE2,NASOPHARYNGITIS,Nasopharyngitis,,Nasopharyngitis,10028810,Upper respiratory tract infections,10046309,Upper respiratory tract infections,10046309,Infections and infestations,10021881,Infections and infestations,10021881,MILD,N,DOSE NOT CHANGED,NOT RELATED,RECOVERED/RESOLVED,N,N,N,N,N,N,TREATMENT,2024-06-21,2024-07-04,43,56,
GB001-ASTHMA-201,AE,GB001-ASTHMA-201-SITE002-0005,3,AE3,NAUSEA,Nausea,,Nausea,10028813,Nausea and vomiting symptoms,10028817,Gastrointestinal signs and symptoms,10017999,Gastrointestinal disorders,10017947,Gastrointestinal disorders,10017947,SEVERE,Y,DOSE NOT CHANGED,UNLIKELY RELATED,RECOVERED/RESOLVED,N,N,N,N,N,Y,TREATMENT,2024-06-26,2024-06-30,48,52,
GB001-ASTHMA-201,AE,GB001-ASTHMA-201-SITE002-0008,1,AE1,HEADACHE,Headache,,Headache,10019211,Headaches NEC,10019233,Headaches,10019231,Nervous system disorders,10029205,Nervous system disorders,10029205,MILD,N,DOSE NOT CHANGED,UNLIKELY RELATED,NOT RECOVERED/NOT RESOLVED,N,N,N,N,N,N,TREATMENT,2024-04-13,,44,,DURING/AFTER
GB001-ASTHMA-201,AE,GB001-ASTHMA-201-SITE002-0014,1,AE1,COUGH,Cough,,Cough,10011224,Coughing and associated symptoms,10011228,Respiratory tract signs and symptoms,10038734,"Respiratory, thoracic and mediastinal disorders",10038738,"Respiratory, thoracic and mediastinal disorders",10038738,SEVERE,Y,DOSE NOT CHANGED,UNLIKELY RELATED,RECOVERED/RESOLVED,N,N,N,Y,N,N,TREATMENT,2024-06-19,2024-08-12,42,96,
GB001-ASTHMA-201,AE,GB001-ASTHMA-201-SITE002-0014,2,AE2,NASOPHARYNGITIS,Nasopharyngitis,,Nasopharyngitis,10028810,Upper respiratory tract infections,10046309,Upper respiratory tract infections,10046309,Infections and infestations,10021881,Infections and infestations,10021881,MILD,N,DOSE NOT CHANGED,UNLIKELY RELATED,RECOVERED/RESOLVED,N,N,N,N,N,N,TREATMENT,2024-07-15,2024-07-21,68,74,
GB001-ASTHMA-201,AE,GB001-ASTHMA-201-SITE002-0014,3,AE3,HEADACHE,Headache,,Headache,10019211,Headaches NEC,10019233,Headaches,10019231,Nervous system disorders,10029205,Nervous system disorders,10029205,MILD,N,DOSE NOT CHANGED,NOT RELATED,RECOVERED/RESOLVED,N,N,N,N,N,N,TREATMENT,2024-07-24,2024-07-27,77,80,
GB001-ASTHMA-201,AE,GB001-ASTHMA-201-SITE002-0020,1,AE1,UPPER RESPIRATORY TRACT INFECTION,Upper respiratory tract infection,,Upper respiratory tract infection,10046306,Upper respiratory tract infections,10046309,Upper respiratory tract infections,10046309,Infections and infestations,10021881,Infections and infestations,10021881,MILD,N,DOSE NOT CHANGED,UNLIKELY RELATED,RECOVERING/RESOLVING,N,N,N,N,N,N,TREATMENT,2024-03-08,2024-03-16,15,23,
GB001-ASTHMA-201,AE,GB001-ASTHMA-201-SITE002-0020,2,AE2,BRONCHITIS,Bronchitis,,Bronchitis,10006451,Lower respiratory tract and lung infections,10024968,Infections NEC,10021902,Infections and infestations,10021881,Infections and infestations,10021881,SEVERE,Y,DOSE NOT CHANGED,NOT RELATED,NOT RECOVERED/NOT RESOLVED,N,N,N,Y,N,N,TREATMENT,2024-04-06,,44,,DURING/AFTER
GB001-ASTHMA-201,AE,GB001-ASTHMA-201-SITE002-0023,1,AE1,UPPER RESPIRATORY TRACT INFECTION,Upper respiratory tract infection,,Upper respiratory tract infection,10046306,Upper respiratory tract infections,10046309,Upper respiratory tract infections,10046309,Infections and infestations,10021881,Infections and infestations,10021881,MODERATE,N,DOSE NOT CHANGED,UNLIKELY RELATED,RECOVERED/RESOLVED,N,N,N,N,N,N,TREATMENT,2024-06-08,2024-06-28,40,60,
GB001-ASTHMA-201,AE,GB001-ASTHMA-201-SITE002-0023,2,AE2,UPPER RESPIRATORY TRACT INFECTION,Upper respiratory tract infection,,Upper respiratory tract infection,10046306,Upper respiratory tract infections,10046309,Upper respiratory tract infections,10046309,Infections and infestations,10021881,Infections and infestations,10021881,MODERATE,N,DOSE NOT CHANGED,NOT RELATED,NOT RECOVERED/NOT RESOLVED,N,N,N,N,N,N,TREATMENT,2024-07-08,,70,,DURING/AFTER
GB001-ASTHMA-201,AE,GB001-ASTHMA-201-SITE002-0026,1,AE1,NAUSEA,Nausea,,Nausea,10028813,Nausea and vomiting symptoms,10028817,Gastrointestinal signs and symptoms,10017999,Gastrointestinal disorders,10017947,Gastrointestinal disorders,10017947,MILD,N,DOSE NOT CHANGED,NOT RELATED,RECOVERED/RESOLVED,N,N,N,N,N,N,TREATMENT,2024-02-28,2024-03-02,23,26,
GB001-ASTHMA-201,AE,GB001-ASTHMA-201-SITE002-0026,2,AE2,NASOPHARYNGITIS,Nasopharyngitis,,Nasopharyngitis,10028810,Upper respiratory tract infections,10046309,Upper respiratory tract infections,10046309,Infections and infestations,10021881,Infections and infestations,10021881,SEVERE,Y,DOSE NOT CHANGED,UNLIKELY RELATED,RECOVERED/RESOLVED,N,N,N,N,N,Y,TREATMENT,2024-03-27,2024-04-25,51,80,
GB001-ASTHMA-201,AE,GB001-ASTHMA-201-SITE002-0029,1,AE1,NASOPHARYNGITIS,Nasopharyngitis,,Nasopharyngitis,10028810,Upper respiratory tract infections,10046309,Upper respiratory tract infections,10046309,Infections and infestations,10021881,Infections and infestations,10021881,MILD,N,DOSE NOT CHANGED,UNLIKELY RELATED,RECOVERED/RESOLVED,N,N,N,N,N,N,TREATMENT,2024-04-01,2024-04-09,48,56,
GB001-ASTHMA-201,AE,GB001-ASTHMA-201-SITE002-0029,2,AE2,UPPER RESPIRATORY TRACT INFECTION,Upper respiratory tract infection,,Upper respiratory tract infection,10046306,Upper respiratory tract infections,10046309,Upper respiratory tract infections,10046309,Infections and infestations,10021881,Infections and infestations,10021881,MODERATE,N,DOSE NOT CHANGED,NOT RELATED,RECOVERED/RESOLVED,N,N,N,N,N,N,TREATMENT,2024-05-06,2024-05-11,83,88,
GB001-ASTHMA-201,AE,GB001-ASTHMA-201-SITE002-0029,3,AE3,UPPER RESPIRATORY TRACT INFECTION,Upper respiratory tract infection,,Upper respiratory tract infection,10046306,Upper respiratory tract infections,10046309,Upper respiratory tract infections,10046309,Infections and infestations,10021881,Infections and infestations,10021881,SEVERE,Y,DOSE NOT CHANGED,NOT RELATED,RECOVERED/RESOLVED,N,N,N,Y,N,N,TREATMENT,2024-05-07,2024-06-10,84,118,
GB001-ASTHMA-201,AE,GB001-ASTHMA-201-SITE002-0035,1,AE1,ASTHMA,Asthma,,Asthma,10003553,Bronchospasm and obstruction,10006482,Lower respiratory tract conditions (excl obstruction and infection),10063481,"Respiratory, thoracic and mediastinal disorders",10038738,"Respiratory, thoracic and mediastinal disorders",10038738,MILD,N,DOSE NOT CHANGED,UNLIKELY RELATED,RECOVERED/RESOLVED,N,N,N,N,N,N,TREATMENT,2024-03-29,2024-04-07,53,62,
GB001-ASTHMA-201,AE,GB001-ASTHMA-201-SITE002-0035,2,AE2,NAUSEA,Nausea,,Nausea,10028813,Nausea and vomiting symptoms,10028817,Gastrointestinal signs and symptoms,10017999,Gastrointestinal disorders,10017947,Gastrointestinal disorders,10017947,MODERATE,N,DOSE NOT CHANGED,NOT RELATED,RECOVERED/RESOLVED,N,N,N,N,N,N,TREATMENT,2024-04-23,2024-04-25,78,80,
GB001-ASTHMA-201,AE,GB001-ASTHMA-201-SITE002-0041,1,AE1,NASOPHARYNGITIS,Nasopharyngitis,,Nasopharyngitis,10028810,Upper respiratory tract infections,10046309,Upper respiratory tract infections,10046309,Infections and infestations,10021881,Infections and infestations,10021881,MODERATE,N,DOSE NOT CHANGED,NOT RELATED,RECOVERED/RESOLVED,N,N,N,N,N,N,TREATMENT,2024-04-29,2024-05-10,7,18,
GB001-ASTHMA-201,AE,GB001-ASTHMA-201-SITE002-0044,1,AE1,HEADACHE,Headache,,Headache,10019211,Headaches NEC,10019233,Headaches,10019231,Nervous system disorders,10029205,Nervous system disorders,10029205,MODERATE,N,DOSE NOT CHANGED,NOT RELATED,RECOVERED/RESOLVED,N,N,N,N,N,N,TREATMENT,2024-04-20,2024-04-26,6,12,
GB001-ASTHMA-201,AE,GB001-ASTHMA-201-SITE002-0044,2,AE2,NAUSEA,Nausea,,Nausea,10028813,Nausea and vomiting symptoms,10028817,Gastrointestinal signs and symptoms,10017999,Gastrointestinal disorders,10017947,Gastrointestinal disorders,10017947,MILD,N,DOSE NOT CHANGED,UNLIKELY RELATED,RECOVERED/RESOLVED,N,N,N,N,N,N,TREATMENT,2024-04-22,2024-04-24,8,10,
GB001-ASTHMA-201,AE,GB001-ASTHMA-201-SITE002-0044,3,AE3,NASOPHARYNGITIS,Nasopharyngitis,,Nasopharyngitis,10028810,Upper respiratory tract infections,10046309,Upper respiratory tract infections,10046309,Infections and infestations,10021881,Infections and infestations,10021881,MODERATE,N,DOSE NOT CHANGED,UNLIKELY RELATED,RECOVERED/RESOLVED,N,N,N,N,N,N,TREATMENT,2024-06-11,2024-06-14,58,61,
GB001-ASTHMA-201,AE,GB001-ASTHMA-201-SITE002-0050,1,AE1,ASTHMA,Asthma,,Asthma,10003553,Bronchospasm and obstruction,10006482,Lower respiratory tract conditions (excl obstruction and infection),10063481,"Respiratory, thoracic and mediastinal disorders",10038738,"Respiratory, thoracic and mediastinal disorders",10038738,MODERATE,N,DOSE NOT CHANGED,POSSIBLY RELATED,RECOVERING/RESOLVING,N,N,N,N,N,N,TREATMENT,2024-07-07,2024-08-03,61,88,
GB001-ASTHMA-201,AE,GB001-ASTHMA-201-SITE002-0050,2,AE2,BACK PAIN,Back pain,,Back pain,10003988,Spinal column and cord signs and symptoms,10041367,Musculoskeletal and connective tissue signs and symptoms NEC,10063536,Musculoskeletal and connective tissue disorders,10028395,Musculoskeletal and connective tissue disorders,10028395,MILD,N,DOSE NOT CHANGED,RELATED,RECOVERED/RESOLVED,N,N,N,N,N,N,TREATMENT,2024-07-25,2024-07-27,79,81,
GB001-ASTHMA-201,AE,GB001-ASTHMA-201-SITE002-0053,1,AE1,UPPER RESPIRATORY TRACT INFECTION,Upper respiratory tract infection,,Upper respiratory tract infection,10046306,Upper respiratory tract infections,10046309,Upper respiratory tract infections,10046309,Infections and infestations,10021881,Infections and infestations,10021881,MODERATE,N,DOSE NOT CHANGED,UNLIKELY RELATED,RECOVERED/RESOLVED,N,N,N,N,N,N,TREATMENT,2024-05-02,2024-05-15,28,41,
GB001-ASTHMA-201,AE,GB001-ASTHMA-201-SITE002-0053,2,AE2,FATIGUE,Fatigue,,Fatigue,10016256,Asthenic conditions,10003550,General system disorders NEC,10060892,General disorders and administration site conditions,10018065,General disorders and administration site conditions,10018065,MILD,N,DOSE NOT CHANGED,NOT RELATED,RECOVERED/RESOLVED,N,N,N,N,N,N,TREATMENT,2024-05-17,2024-05-27,43,53,
GB001-ASTHMA-201,AE,GB001-ASTHMA-201-SITE002-0053,3,AE3,CYTOKINE RELEASE SYNDROME,Cytokine release syndrome,,Cytokine release syndrome,10052015,Immune and associated conditions NEC,10027682,Autoimmune disorders,10003815,Immune system disorders,10021428,Immune system disorders,10021428,SEVERE,Y,DOSE NOT CHANGED,NOT RELATED,NOT RECOVERED/NOT RESOLVED,N,N,N,Y,N,N,TREATMENT,2024-06-05,,62,,DURING/AFTER
GB001-ASTHMA-201,AE,GB001-ASTHMA-201-SITE002-0053,4,AE4,ASTHMA,Asthma,,Asthma,10003553,Bronchospasm and obstruction,10006482,Lower respiratory tract conditions (excl obstruction and infection),10063481,"Respiratory, thoracic and mediastinal disorders",10038738,"Respiratory, thoracic and mediastinal disorders",10038738,MODERATE,N,DOSE NOT CHANGED,NOT RELATED,RECOVERED/RESOLVED,N,N,N,N,N,N,TREATMENT,2024-06-23,2024-07-17,80,104,
GB001-ASTHMA-201,AE,GB001-ASTHMA-201-SITE002-0056,1,AE1,SINUSITIS,Sinusitis,,Sinusitis,10040753,Upper respiratory tract infections,10046309,Upper respiratory tract infections,10046309,Infections and infestations,10021881,Infections and infestations,10021881,MODERATE,N,DOSE NOT CHANGED,NOT RELATED,RECOVERED/RESOLVED,N,N,N,N,N,N,TREATMENT,2024-07-05,2024-07-30,65,90,
GB001-ASTHMA-201,AE,GB001-ASTHMA-201-SITE002-0056,2,AE2,HEADACHE,Headache,,Headache,10019211,Headaches NEC,10019233,Headaches,10019231,Nervous system disorders,10029205,Nervous system disorders,10029205,MODERATE,N,DOSE NOT CHANGED,NOT RELATED,NOT RECOVERED/NOT RESOLVED,N,N,N,N,N,N,TREATMENT,2024-07-11,,71,,DURING/AFTER
GB001-ASTHMA-201,AE,GB001-ASTHMA-201-SITE002-0059,1,AE1,NASOPHARYNGITIS,Nasopharyngitis,,Nasopharyngitis,10028810,Upper respiratory tract infections,10046309,Upper respiratory tract infections,10046309,Infections and infestations,10021881,Infections and infestations,10021881,MODERATE,N,DRUG INTERRUPTED,POSSIBLY RELATED,RECOVERED/RESOLVED,N,N,N,N,N,N,TREATMENT,2024-04-06,2024-04-20,2,16,
GB001-ASTHMA-201,AE,GB001-ASTHMA-201-SITE002-0059,2,AE2,ASTHMA,Asthma,,Asthma,10003553,Bronchospasm and obstruction,10006482,Lower respiratory tract conditions (excl obstruction and infection),10063481,"Respiratory, thoracic and mediastinal disorders",10038738,"Respiratory, thoracic and mediastinal disorders",10038738,MODERATE,N,DRUG INTERRUPTED,POSSIBLY RELATED,RECOVERING/RESOLVING,N,N,N,N,N,N,TREATMENT,2024-05-26,2024-06-21,52,78,
GB001-ASTHMA-201,AE,GB001-ASTHMA-201-SITE002-0059,3,AE3,SINUSITIS,Sinusitis,,Sinusitis,10040753,Upper respiratory tract infections,10046309,Upper respiratory tract infections,10046309,Infections and infestations,10021881,Infections and infestations,10021881,SEVERE,Y,DOSE NOT CHANGED,NOT RELATED,NOT RECOVERED/NOT RESOLVED,N,N,N,Y,N,N,TREATMENT,2024-06-10,,67,,DURING/AFTER
GB001-ASTHMA-201,AE,GB001-ASTHMA-201-SITE002-0059,4,AE4,UPPER RESPIRATORY TRACT INFECTION,Upper respiratory tract infection,,Upper respiratory tract infection,10046306,Upper respiratory tract infections,10046309,Upper respiratory tract infections,10046309,Infections and infestations,10021881,Infections and infestations,10021881,SEVERE,Y,DOSE NOT CHANGED,NOT RELATED,RECOVERED/RESOLVED,N,N,N,N,N,Y,TREATMENT,2024-06-10,2024-08-08,67,126,
GB001-ASTHMA-201,AE,GB001-ASTHMA-201-SITE002-0059,5,AE5,HEADACHE,Headache,,Headache,10019211,Headaches NEC,10019233,Headaches,10019231,Nervous system disorders,10029205,Nervous system disorders,10029205,MODERATE,N,DOSE NOT CHANGED,POSSIBLY RELATED,RECOVERED/RESOLVED,N,N,N,N,N,N,TREATMENT,2024-06-19,2024-06-26,76,83,
GB001-ASTHMA-201,AE,GB001-ASTHMA-201-SITE002-0062,1,AE1,NASOPHARYNGITIS,Nasopharyngitis,,Nasopharyngitis,10028810,Upper respiratory tract infections,10046309,Upper respiratory tract infections,10046309,Infections and infestations,10021881,Infections and infestations,10021881,MODERATE,N,DOSE NOT CHANGED,NOT RELATED,RECOVERED/RESOLVED,N,N,N,N,N,N,TREATMENT,2024-02-29,2024-03-13,15,28,
GB001-ASTHMA-201,AE,GB001-ASTHMA-201-SITE002-0062,2,AE2,COUGH,Cough,,Cough,10011224,Coughing and associated symptoms,10011228,Respiratory tract signs and symptoms,10038734,"Respiratory, thoracic and mediastinal disorders",10038738,"Respiratory, thoracic and mediastinal disorders",10038738,MODERATE,N,DOSE NOT CHANGED,NOT RELATED,RECOVERING/RESOLVING,N,N,N,N,N,N,TREATMENT,2024-03-26,2024-04-19,41,65,
GB001-ASTHMA-201,AE,GB001-ASTHMA-201-SITE002-0062,3,AE3,NASOPHARYNGITIS,Nasopharyngitis,,Nasopharyngitis,10028810,Upper respiratory tract infections,10046309,Upper respiratory tract infections,10046309,Infections and infestations,10021881,Infections and infestations,10021881,MODERATE,N,DOSE NOT CHANGED,NOT RELATED,RECOVERED/RESOLVED WITH SEQUELAE,N,N,N,N,N,N,TREATMENT,2024-04-17,2024-05-11,63,87,
GB001-ASTHMA-201,AE,GB001-ASTHMA-201-SITE002-0062,4,AE4,NASOPHARYNGITIS,Nasopharyngitis,,Nasopharyngitis,10028810,Upper respiratory tract infections,10046309,Upper respiratory tract infections,10046309,Infections and infestations,10021881,Infections and infestations,10021881,MILD,N,DOSE NOT CHANGED,NOT RELATED,RECOVERED/RESOLVED,N,N,N,N,N,N,TREATMENT,2024-04-29,2024-05-11,75,87,
GB001-ASTHMA-201,AE,GB001-ASTHMA-201-SITE002-0065,1,AE1,UPPER RESPIRATORY TRACT INFECTION,Upper respiratory tract infection,,Upper respiratory tract infection,10046306,Upper respiratory tract infections,10046309,Upper respiratory tract infections,10046309,Infections and infestations,10021881,Infections and infestations,10021881,SEVERE,Y,DOSE NOT CHANGED,NOT RELATED,RECOVERING/RESOLVING,N,N,N,Y,N,N,TREATMENT,2024-03-08,2024-04-30,30,83,
GB001-ASTHMA-201,AE,GB001-ASTHMA-201-SITE002-0065,2,AE2,PNEUMONIA,Pneumonia,,Pneumonia,10035664,Lower respiratory and lung infections,10024968,Infections NEC,10021902,Infections and infestations,10021881,Infections and infestations,10021881,MILD,N,DOSE NOT CHANGED,RELATED,RECOVERED/RESOLVED,N,N,N,N,N,N,TREATMENT,2024-03-24,2024-04-05,46,58,
GB001-ASTHMA-201,AE,GB001-ASTHMA-201-SITE002-0065,3,AE3,BRONCHITIS,Bronchitis,,Bronchitis,10006451,Lower respiratory tract and lung infections,10024968,Infections NEC,10021902,Infections and infestations,10021881,Infections and infestations,10021881,MODERATE,N,DOSE NOT CHANGED,NOT RELATED,RECOVERED/RESOLVED,N,N,N,N,N,N,TREATMENT,2024-04-08,2024-05-05,61,88,
GB001-ASTHMA-201,AE,GB001-ASTHMA-201-SITE002-0068,1,AE1,ASTHMA,Asthma,,Asthma,10003553,Bronchospasm and obstruction,10006482,Lower respiratory tract conditions (excl obstruction and infection),10063481,"Respiratory, thoracic and mediastinal disorders",10038738,"Respiratory, thoracic and mediastinal disorders",10038738,SEVERE,Y,DOSE NOT CHANGED,NOT RELATED,RECOVERED/RESOLVED,N,N,N,Y,N,N,TREATMENT,2024-03-27,2024-05-02,32,68,
GB001-ASTHMA-201,AE,GB001-ASTHMA-201-SITE002-0068,2,AE2,BRONCHITIS,Bronchitis,,Bronchitis,10006451,Lower respiratory tract and lung infections,10024968,Infections NEC,10021902,Infections and infestations,10021881,Infections and infestations,10021881,MODERATE,N,DOSE NOT CHANGED,UNLIKELY RELATED,RECOVERED/RESOLVED,N,N,N,N,N,N,TREATMENT,2024-04-26,2024-05-10,62,76,
GB001-ASTHMA-201,AE,GB001-ASTHMA-201-SITE002-0071,1,AE1,HEADACHE,Headache,,Headache,10019211,Headaches NEC,10019233,Headaches,10019231,Nervous system disorders,10029205,Nervous system disorders,10029205,MODERATE,N,DOSE NOT CHANGED,NOT RELATED,RECOVERED/RESOLVED,N,N,N,N,N,N,TREATMENT,2024-03-26,2024-04-02,11,18,
GB001-ASTHMA-201,AE,GB001-ASTHMA-201-SITE002-0071,2,AE2,OROPHARYNGEAL PAIN,Oropharyngeal pain,,Oropharyngeal pain,10068319,Oral soft tissue conditions NEC,10068876,Oral soft tissue conditions,10061998,Gastrointestinal disorders,10017947,Gastrointestinal disorders,10017947,MODERATE,N,DOSE NOT CHANGED,NOT RELATED,RECOVERED/RESOLVED,N,N,N,N,N,N,TREATMENT,2024-06-05,2024-07-04,82,111,
GB001-ASTHMA-201,AE,GB001-ASTHMA-201-SITE002-0074,1,AE1,BRONCHITIS,Bronchitis,,Bronchitis,10006451,Lower respiratory tract and lung infections,10024968,Infections NEC,10021902,Infections and infestations,10021881,Infections and infestations,10021881,MILD,N,DOSE NOT CHANGED,PROBABLY RELATED,RECOVERED/RESOLVED,N,N,N,N,N,N,TREATMENT,2024-05-07,2024-05-20,72,85,
GB001-ASTHMA-201,AE,GB001-ASTHMA-201-SITE002-0080,1,AE1,HEADACHE,Headache,,Headache,10019211,Headaches NEC,10019233,Headaches,10019231,Nervous system disorders,10029205,Nervous system disorders,10029205,SEVERE,Y,DOSE NOT CHANGED,UNLIKELY RELATED,RECOVERED/RESOLVED,N,N,N,Y,N,N,TREATMENT,2024-06-12,2024-06-28,36,52,
GB001-ASTHMA-201,AE,GB001-ASTHMA-201-SITE002-0080,2,AE2,FATIGUE,Fatigue,,Fatigue,10016256,Asthenic conditions,10003550,General system disorders NEC,10060892,General disorders and administration site conditions,10018065,General disorders and administration site conditions,10018065,MODERATE,N,DRUG INTERRUPTED,POSSIBLY RELATED,RECOVERED/RESOLVED,N,N,N,N,N,N,TREATMENT,2024-07-13,2024-08-10,67,95,
GB001-ASTHMA-201,AE,GB001-ASTHMA-201-SITE002-0083,1,AE1,COUGH,Cough,,Cough,10011224,Coughing and associated symptoms,10011228,Respiratory tract signs and symptoms,10038734,"Respiratory, thoracic and mediastinal disorders",10038738,"Respiratory, thoracic and mediastinal disorders",10038738,SEVERE,Y,DOSE NOT CHANGED,NOT RELATED,RECOVERED/RESOLVED,N,N,N,Y,N,N,TREATMENT,2024-05-29,2024-07-23,42,97,
GB001-ASTHMA-201,AE,GB001-ASTHMA-201-SITE002-0083,2,AE2,UPPER RESPIRATORY TRACT INFECTION,Upper respiratory tract infection,,Upper respiratory tract infection,10046306,Upper respiratory tract infections,10046309,Upper respiratory tract infections,10046309,Infections and infestations,10021881,Infections and infestations,10021881,SEVERE,Y,DOSE NOT CHANGED,UNLIKELY RELATED,RECOVERED/RESOLVED,N,N,N,Y,N,N,TREATMENT,2024-07-06,2024-08-26,80,131,
GB001-ASTHMA-201,AE,GB001-ASTHMA-201-SITE002-0086,1,AE1,COUGH,Cough,,Cough,10011224,Coughing and associated symptoms,10011228,Respiratory tract signs and symptoms,10038734,"Respiratory, thoracic and mediastinal disorders",10038738,"Respiratory, thoracic and mediastinal disorders",10038738,MODERATE,N,DOSE NOT CHANGED,NOT RELATED,RECOVERED/RESOLVED,N,N,N,N,N,N,TREATMENT,2024-03-15,2024-04-11,23,50,
GB001-ASTHMA-201,AE,GB001-ASTHMA-201-SITE002-0086,2,AE2,ASTHMA,Asthma,,Asthma,10003553,Bronchospasm and obstruction,10006482,Lower respiratory tract conditions (excl obstruction and infection),10063481,"Respiratory, thoracic and mediastinal disorders",10038738,"Respiratory, thoracic and mediastinal disorders",10038738,MODERATE,N,DOSE NOT CHANGED,NOT RELATED,RECOVERED/RESOLVED,N,N,N,N,N,N,TREATMENT,2024-03-23,2024-04-22,31,61,
GB001-ASTHMA-201,AE,GB001-ASTHMA-201-SITE002-0086,3,AE3,SINUSITIS,Sinusitis,,Sinusitis,10040753,Upper respiratory tract infections,10046309,Upper respiratory tract infections,10046309,Infections and infestations,10021881,Infections and infestations,10021881,MILD,N,DOSE NOT CHANGED,POSSIBLY RELATED,RECOVERED/RESOLVED,N,N,N,N,N,N,TREATMENT,2024-04-24,2024-05-04,63,73,
GB001-ASTHMA-201,AE,GB001-ASTHMA-201-SITE002-0089,1,AE1,OROPHARYNGEAL PAIN,Oropharyngeal pain,,Oropharyngeal pain,10068319,Oral soft tissue conditions NEC,10068876,Oral soft tissue conditions,10061998,Gastrointestinal disorders,10017947,Gastrointestinal disorders,10017947,MILD,N,DOSE NOT CHANGED,NOT RELATED,RECOVERED/RESOLVED,N,N,N,N,N,N,TREATMENT,2024-03-18,2024-03-27,18,27,
GB001-ASTHMA-201,AE,GB001-ASTHMA-201-SITE002-0089,2,AE2,BACK PAIN,Back pain,,Back pain,10003988,Spinal column and cord signs and symptoms,10041367,Musculoskeletal and connective tissue signs and symptoms NEC,10063536,Musculoskeletal and connective tissue disorders,10028395,Musculoskeletal and connective tissue disorders,10028395,MILD,N,DOSE NOT CHANGED,UNLIKELY RELATED,RECOVERED/RESOLVED,N,N,N,N,N,N,TREATMENT,2024-03-21,2024-04-01,21,32,
GB001-ASTHMA-201,AE,GB001-ASTHMA-201-SITE002-0089,3,AE3,ASTHMA,Asthma,,Asthma,10003553,Bronchospasm and obstruction,10006482,Lower respiratory tract conditions (excl obstruction and infection),10063481,"Respiratory, thoracic and mediastinal disorders",10038738,"Respiratory, thoracic and mediastinal disorders",10038738,MODERATE,N,DRUG INTERRUPTED,PROBABLY RELATED,RECOVERED/RESOLVED,N,N,N,N,N,N,TREATMENT,2024-04-11,2024-05-01,42,62,
GB001-ASTHMA-201,AE,GB001-ASTHMA-201-SITE002-0089,4,AE4,UPPER RESPIRATORY TRACT INFECTION,Upper respiratory tract infection,,Upper respiratory tract infection,10046306,Upper respiratory tract infections,10046309,Upper respiratory tract infections,10046309,Infections and infestations,10021881,Infections and infestations,10021881,SEVERE,Y,DRUG INTERRUPTED,POSSIBLY RELATED,RECOVERED/RESOLVED,N,N,N,Y,N,N,TREATMENT,2024-05-10,2024-05-14,71,75,
GB001-ASTHMA-201,AE,GB001-ASTHMA-201-SITE002-0092,1,AE1,COUGH,Cough,,Cough,10011224,Coughing and associated symptoms,10011228,Respiratory tract signs and symptoms,10038734,"Respiratory, thoracic and mediastinal disorders",10038738,"Respiratory, thoracic and mediastinal disorders",10038738,MODERATE,N,DOSE NOT CHANGED,POSSIBLY RELATED,NOT RECOVERED/NOT RESOLVED,N,N,N,N,N,N,TREATMENT,2024-03-04,,16,,DURING/AFTER
GB001-ASTHMA-201,AE,GB001-ASTHMA-201-SITE002-0092,2,AE2,COUGH,Cough,,Cough,10011224,Coughing and associated symptoms,10011228,Respiratory tract signs and symptoms,10038734,"Respiratory, thoracic and mediastinal disorders",10038738,"Respiratory, thoracic and mediastinal disorders",10038738,MILD,N,DOSE NOT CHANGED,NOT RELATED,RECOVERED/RESOLVED,N,N,N,N,N,N,TREATMENT,2024-03-24,2024-03-26,36,38,
GB001-ASTHMA-201,AE,GB001-ASTHMA-201-SITE002-0098,1,AE1,NASOPHARYNGITIS,Nasopharyngitis,,Nasopharyngitis,10028810,Upper respiratory tract infections,10046309,Upper respiratory tract infections,10046309,Infections and infestations,10021881,Infections and infestations,10021881,SEVERE,Y,DOSE NOT CHANGED,NOT RELATED,RECOVERED/RESOLVED,N,N,N,Y,N,N,TREATMENT,2024-05-19,2024-07-05,26,73,
GB001-ASTHMA-201,AE,GB001-ASTHMA-201-SITE002-0098,2,AE2,ASTHMA,Asthma,,Asthma,10003553,Bronchospasm and obstruction,10006482,Lower respiratory tract conditions (excl obstruction and infection),10063481,"Respiratory, thoracic and mediastinal disorders",10038738,"Respiratory, thoracic and mediastinal disorders",10038738,MODERATE,N,DRUG INTERRUPTED,POSSIBLY RELATED,RECOVERED/RESOLVED,N,N,N,N,N,N,TREATMENT,2024-05-21,2024-06-02,28,40,
GB001-ASTHMA-201,AE,GB001-ASTHMA-201-SITE002-0098,3,AE3,NASOPHARYNGITIS,Nasopharyngitis,,Nasopharyngitis,10028810,Upper respiratory tract infections,10046309,Upper respiratory tract infections,10046309,Infections and infestations,10021881,Infections and infestations,10021881,MILD,N,DOSE NOT CHANGED,POSSIBLY RELATED,RECOVERING/RESOLVING,N,N,N,N,N,N,TREATMENT,2024-05-31,2024-06-06,38,44,
GB001-ASTHMA-201,AE,GB001-ASTHMA-201-SITE002-0098,4,AE4,SINUSITIS,Sinusitis,,Sinusitis,10040753,Upper respiratory tract infections,10046309,Upper respiratory tract infections,10046309,Infections and infestations,10021881,Infections and infestations,10021881,SEVERE,Y,DRUG WITHDRAWN,POSSIBLY RELATED,RECOVERED/RESOLVED,N,N,N,N,N,Y,TREATMENT,2024-07-05,2024-07-05,73,73,
GB001-ASTHMA-201,AE,GB001-ASTHMA-201-SITE002-0104,1,AE1,UPPER RESPIRATORY TRACT INFECTION,Upper respiratory tract infection,,Upper respiratory tract infection,10046306,Upper respiratory tract infections,10046309,Upper respiratory tract infections,10046309,Infections and infestations,10021881,Infections and infestations,10021881,MILD,N,DOSE NOT CHANGED,UNLIKELY RELATED,RECOVERED/RESOLVED,N,N,N,N,N,N,TREATMENT,2024-04-23,2024-04-26,27,30,
GB001-ASTHMA-201,AE,GB001-ASTHMA-201-SITE002-0104,2,AE2,SINUSITIS,Sinusitis,,Sinusitis,10040753,Upper respiratory tract infections,10046309,Upper respiratory tract infections,10046309,Infections and infestations,10021881,Infections and infestations,10021881,MODERATE,N,DOSE NOT CHANGED,NOT RELATED,RECOVERED/RESOLVED,N,N,N,N,N,N,TREATMENT,2024-05-27,2024-06-03,61,68,
GB001-ASTHMA-201,AE,GB001-ASTHMA-201-SITE002-0104,3,AE3,SINUSITIS,Sinusitis,,Sinusitis,10040753,Upper respiratory tract infections,10046309,Upper respiratory tract infections,10046309,Infections and infestations,10021881,Infections and infestations,10021881,MILD,N,DOSE NOT CHANGED,NOT RELATED,RECOVERING/RESOLVING,N,N,N,N,N,N,TREATMENT,2024-06-15,2024-06-27,80,92,
GB001-ASTHMA-201,AE,GB001-ASTHMA-201-SITE002-0104,4,AE4,ASTHMA,Asthma,,Asthma,10003553,Bronchospasm and obstruction,10006482,Lower respiratory tract conditions (excl obstruction and infection),10063481,"Respiratory, thoracic and mediastinal disorders",10038738,"Respiratory, thoracic and mediastinal disorders",10038738,MODERATE,N,DOSE NOT CHANGED,UNLIKELY RELATED,RECOVERED/RESOLVED,N,N,N,N,N,N,TREATMENT,2024-06-18,2024-07-13,83,108,
GB001-ASTHMA-201,AE,GB001-ASTHMA-201-SITE002-0107,1,AE1,BACK PAIN,Back pain,,Back pain,10003988,Spinal column and cord signs and symptoms,10041367,Musculoskeletal and connective tissue signs and symptoms NEC,10063536,Musculoskeletal and connective tissue disorders,10028395,Musculoskeletal and connective tissue disorders,10028395,MILD,N,DOSE NOT CHANGED,NOT RELATED,RECOVERED/RESOLVED,N,N,N,N,N,N,TREATMENT,2024-05-28,2024-05-29,46,47,
GB001-ASTHMA-201,AE,GB001-ASTHMA-201-SITE002-0107,2,AE2,COUGH,Cough,,Cough,10011224,Coughing and associated symptoms,10011228,Respiratory tract signs and symptoms,10038734,"Respiratory, thoracic and mediastinal disorders",10038738,"Respiratory, thoracic and mediastinal disorders",10038738,MODERATE,N,DOSE NOT CHANGED,NOT RELATED,RECOVERED/RESOLVED,N,N,N,N,N,N,TREATMENT,2024-06-07,2024-06-09,56,58,
GB001-ASTHMA-201,AE,GB001-ASTHMA-201-SITE002-0110,1,AE1,NAUSEA,Nausea,,Nausea,10028813,Nausea and vomiting symptoms,10028817,Gastrointestinal signs and symptoms,10017999,Gastrointestinal disorders,10017947,Gastrointestinal disorders,10017947,MILD,N,DOSE NOT CHANGED,NOT RELATED,RECOVERED/RESOLVED,N,N,N,N,N,N,TREATMENT,2024-03-05,2024-03-07,7,9,
GB001-ASTHMA-201,AE,GB001-ASTHMA-201-SITE002-0110,2,AE2,SINUSITIS,Sinusitis,,Sinusitis,10040753,Upper respiratory tract infections,10046309,Upper respiratory tract infections,10046309,Infections and infestations,10021881,Infections and infestations,10021881,MILD,N,DOSE NOT CHANGED,UNLIKELY RELATED,RECOVERED/RESOLVED,N,N,N,N,N,N,TREATMENT,2024-03-31,2024-04-02,33,35,
GB001-ASTHMA-201,AE,GB001-ASTHMA-201-SITE002-0110,3,AE3,HEADACHE,Headache,,Headache,10019211,Headaches NEC,10019233,Headaches,10019231,Nervous system disorders,10029205,Nervous system disorders,10029205,MILD,N,DOSE NOT CHANGED,NOT RELATED,RECOVERED/RESOLVED,N,N,N,N,N,N,TREATMENT,2024-05-09,2024-05-12,72,75,
GB001-ASTHMA-201,AE,GB001-ASTHMA-201-SITE002-0116,1,AE1,NASOPHARYNGITIS,Nasopharyngitis,,Nasopharyngitis,10028810,Upper respiratory tract infections,10046309,Upper respiratory tract infections,10046309,Infections and infestations,10021881,Infections and infestations,10021881,MODERATE,N,DRUG INTERRUPTED,RELATED,RECOVERED/RESOLVED,N,N,N,N,N,N,TREATMENT,2024-04-26,2024-05-26,38,68,
GB001-ASTHMA-201,AE,GB001-ASTHMA-201-SITE002-0116,2,AE2,BACK PAIN,Back pain,,Back pain,10003988,Spinal column and cord signs and symptoms,10041367,Musculoskeletal and connective tissue signs and symptoms NEC,10063536,Musculoskeletal and connective tissue disorders,10028395,Musculoskeletal and connective tissue disorders,10028395,MODERATE,N,DOSE NOT CHANGED,NOT RELATED,NOT RECOVERED/NOT RESOLVED,N,N,N,N,N,N,TREATMENT,2024-04-27,,39,,DURING/AFTER
GB001-ASTHMA-201,AE,GB001-ASTHMA-201-SITE002-0116,3,AE3,ASTHMA,Asthma,,Asthma,10003553,Bronchospasm and obstruction,10006482,Lower respiratory tract conditions (excl obstruction and infection),10063481,"Respiratory, thoracic and mediastinal disorders",10038738,"Respiratory, thoracic and mediastinal disorders",10038738,MILD,N,DOSE NOT CHANGED,POSSIBLY RELATED,RECOVERING/RESOLVING,N,N,N,N,N,N,TREATMENT,2024-05-30,2024-06-01,72,74,
GB001-ASTHMA-201,AE,GB001-ASTHMA-201-SITE002-0116,4,AE4,OROPHARYNGEAL PAIN,Oropharyngeal pain,,Oropharyngeal pain,10068319,Oral soft tissue conditions NEC,10068876,Oral soft tissue conditions,10061998,Gastrointestinal disorders,10017947,Gastrointestinal disorders,10017947,MILD,N,DOSE REDUCED,RELATED,RECOVERING/RESOLVING,N,N,N,N,N,N,TREATMENT,2024-06-01,2024-06-08,74,81,
GB001-ASTHMA-201,AE,GB001-ASTHMA-201-SITE002-0116,5,AE5,HEADACHE,Headache,,Headache,10019211,Headaches NEC,10019233,Headaches,10019231,Nervous system disorders,10029205,Nervous system disorders,10029205,MODERATE,N,DOSE NOT CHANGED,NOT RELATED,RECOVERED/RESOLVED,N,N,N,N,N,N,TREATMENT,2024-06-09,2024-06-11,82,84,
GB001-ASTHMA-201,AE,GB001-ASTHMA-201-SITE002-0119,1,AE1,HEADACHE,Headache,,Headache,10019211,Headaches NEC,10019233,Headaches,10019231,Nervous system disorders,10029205,Nervous system disorders,10029205,MILD,N,DOSE NOT CHANGED,UNLIKELY RELATED,RECOVERED/RESOLVED,N,N,N,N,N,N,TREATMENT,2024-04-01,2024-04-02,24,25,
GB001-ASTHMA-201,AE,GB001-ASTHMA-201-SITE002-0119,2,AE2,BRONCHITIS,Bronchitis,,Bronchitis,10006451,Lower respiratory tract and lung infections,10024968,Infections NEC,10021902,Infections and infestations,10021881,Infections and infestations,10021881,MILD,N,DOSE NOT CHANGED,POSSIBLY RELATED,RECOVERED/RESOLVED,N,N,N,N,N,N,TREATMENT,2024-05-27,2024-06-03,80,87,
GB001-ASTHMA-201,AE,GB001-ASTHMA-201-SITE002-0128,1,AE1,OROPHARYNGEAL PAIN,Oropharyngeal pain,,Oropharyngeal pain,10068319,Oral soft tissue conditions NEC,10068876,Oral soft tissue conditions,10061998,Gastrointestinal disorders,10017947,Gastrointestinal disorders,10017947,MILD,N,DOSE NOT CHANGED,PROBABLY RELATED,RECOVERING/RESOLVING,N,N,N,N,N,N,TREATMENT,2024-05-02,2024-05-11,13,22,
GB001-ASTHMA-201,AE,GB001-ASTHMA-201-SITE002-0128,2,AE2,UPPER RESPIRATORY TRACT INFECTION,Upper respiratory tract infection,,Upper respiratory tract infection,10046306,Upper respiratory tract infections,10046309,Upper respiratory tract infections,10046309,Infections and infestations,10021881,Infections and infestations,10021881,MODERATE,N,DOSE NOT CHANGED,NOT RELATED,RECOVERED/RESOLVED,N,N,N,N,N,N,TREATMENT,2024-05-05,2024-05-25,16,36,
GB001-ASTHMA-201,AE,GB001-ASTHMA-201-SITE002-0128,3,AE3,UPPER RESPIRATORY TRACT INFECTION,Upper respiratory tract infection,,Upper respiratory tract infection,10046306,Upper respiratory tract infections,10046309,Upper respiratory tract infections,10046309,Infections and infestations,10021881,Infections and infestations,10021881,SEVERE,Y,DOSE REDUCED,POSSIBLY RELATED,RECOVERED/RESOLVED,N,N,N,Y,N,N,TREATMENT,2024-05-12,2024-06-17,23,59,
GB001-ASTHMA-201,AE,GB001-ASTHMA-201-SITE002-0128,4,AE4,NASOPHARYNGITIS,Nasopharyngitis,,Nasopharyngitis,10028810,Upper respiratory tract infections,10046309,Upper respiratory tract infections,10046309,Infections and infestations,10021881,Infections and infestations,10021881,MILD,N,DOSE NOT CHANGED,UNLIKELY RELATED,RECOVERED/RESOLVED,N,N,N,N,N,N,TREATMENT,2024-06-10,2024-06-13,52,55,
GB001-ASTHMA-201,AE,GB001-ASTHMA-201-SITE002-0134,1,AE1,OROPHARYNGEAL PAIN,Oropharyngeal pain,,Oropharyngeal pain,10068319,Oral soft tissue conditions NEC,10068876,Oral soft tissue conditions,10061998,Gastrointestinal disorders,10017947,Gastrointestinal disorders,10017947,MODERATE,N,DOSE NOT CHANGED,NOT RELATED,RECOVERED/RESOLVED,N,N,N,N,N,N,TREATMENT,2024-05-11,2024-06-01,45,66,
GB001-ASTHMA-201,AE,GB001-ASTHMA-201-SITE002-0134,2,AE2,UPPER RESPIRATORY TRACT INFECTION,Upper respiratory tract infection,,Upper respiratory tract infection,10046306,Upper respiratory tract infections,10046309,Upper respiratory tract infections,10046309,Infections and infestations,10021881,Infections and infestations,10021881,MILD,N,DOSE NOT CHANGED,NOT RELATED,RECOVERED/RESOLVED,N,N,N,N,N,N,TREATMENT,2024-05-23,2024-05-25,57,59,
GB001-ASTHMA-201,AE,GB001-ASTHMA-201-SITE002-0134,3,AE3,NASOPHARYNGITIS,Nasopharyngitis,,Nasopharyngitis,10028810,Upper respiratory tract infections,10046309,Upper respiratory tract infections,10046309,Infections and infestations,10021881,Infections and infestations,10021881,SEVERE,Y,DOSE NOT CHANGED,NOT RELATED,RECOVERED/RESOLVED,N,N,N,N,N,Y,TREATMENT,2024-06-17,2024-07-28,82,123,
GB001-ASTHMA-201,AE,GB001-ASTHMA-201-SITE002-0140,1,AE1,FATIGUE,Fatigue,,Fatigue,10016256,Asthenic conditions,10003550,General system disorders NEC,10060892,General disorders and administration site conditions,10018065,General disorders and administration site conditions,10018065,MILD,N,DOSE NOT CHANGED,UNLIKELY RELATED,NOT RECOVERED/NOT RESOLVED,N,N,N,N,N,N,TREATMENT,2024-03-12,,9,,DURING/AFTER
GB001-ASTHMA-201,AE,GB001-ASTHMA-201-SITE002-0140,2,AE2,BACK PAIN,Back pain,,Back pain,10003988,Spinal column and cord signs and symptoms,10041367,Musculoskeletal and connective tissue signs and symptoms NEC,10063536,Musculoskeletal and connective tissue disorders,10028395,Musculoskeletal and connective tissue disorders,10028395,MILD,N,DOSE NOT CHANGED,NOT RELATED,NOT RECOVERED/NOT RESOLVED,N,N,N,N,N,N,TREATMENT,2024-05-20,,78,,DURING/AFTER
GB001-ASTHMA-201,AE,GB001-ASTHMA-201-SITE002-0140,3,AE3,UPPER RESPIRATORY TRACT INFECTION,Upper respiratory tract infection,,Upper respiratory tract infection,10046306,Upper respiratory tract infections,10046309,Upper respiratory tract infections,10046309,Infections and infestations,10021881,Infections and infestations,10021881,SEVERE,Y,DOSE NOT CHANGED,NOT RELATED,RECOVERED/RESOLVED,N,N,N,Y,N,N,TREATMENT,2024-05-23,2024-06-06,81,95,
GB001-ASTHMA-201,AE,GB001-ASTHMA-201-SITE002-0143,1,AE1,COUGH,Cough,,Cough,10011224,Coughing and associated symptoms,10011228,Respiratory tract signs and symptoms,10038734,"Respiratory, thoracic and mediastinal disorders",10038738,"Respiratory, thoracic and mediastinal disorders",10038738,SEVERE,Y,DOSE NOT CHANGED,UNLIKELY RELATED,RECOVERED/RESOLVED WITH SEQUELAE,N,N,N,Y,N,N,TREATMENT,2024-06-11,2024-06-16,42,47,
GB001-ASTHMA-201,AE,GB001-ASTHMA-201-SITE002-0143,2,AE2,UPPER RESPIRATORY TRACT INFECTION,Upper respiratory tract infection,,Upper respiratory tract infection,10046306,Upper respiratory tract infections,10046309,Upper respiratory tract infections,10046309,Infections and infestations,10021881,Infections and infestations,10021881,MILD,N,DOSE NOT CHANGED,NOT RELATED,RECOVERED/RESOLVED,N,N,N,N,N,N,TREATMENT,2024-06-27,2024-07-07,58,68,
GB001-ASTHMA-201,AE,GB001-ASTHMA-201-SITE002-0146,1,AE1,BACK PAIN,Back pain,,Back pain,10003988,Spinal column and cord signs and symptoms,10041367,Musculoskeletal and connective tissue signs and symptoms NEC,10063536,Musculoskeletal and connective tissue disorders,10028395,Musculoskeletal and connective tissue disorders,10028395,MODERATE,N,DOSE NOT CHANGED,UNLIKELY RELATED,RECOVERED/RESOLVED,N,N,N,N,N,N,TREATMENT,2024-06-01,2024-06-26,17,42,
GB001-ASTHMA-201,AE,GB001-ASTHMA-201-SITE002-0146,2,AE2,ASTHMA,Asthma,,Asthma,10003553,Bronchospasm and obstruction,10006482,Lower respiratory tract conditions (excl obstruction and infection),10063481,"Respiratory, thoracic and mediastinal disorders",10038738,"Respiratory, thoracic and mediastinal disorders",10038738,SEVERE,Y,DOSE NOT CHANGED,NOT RELATED,RECOVERED/RESOLVED,N,N,N,N,N,Y,TREATMENT,2024-06-02,2024-07-15,18,61,
GB001-ASTHMA-201,AE,GB001-ASTHMA-201-SITE002-0146,3,AE3,BRONCHITIS,Bronchitis,,Bronchitis,10006451,Lower respiratory tract and lung infections,10024968,Infections NEC,10021902,Infections and infestations,10021881,Infections and infestations,10021881,MILD,N,DOSE NOT CHANGED,NOT RELATED,RECOVERING/RESOLVING,N,N,N,N,N,N,TREATMENT,2024-06-15,2024-06-20,31,36,
GB001-ASTHMA-201,AE,GB001-ASTHMA-201-SITE002-0146,4,AE4,COUGH,Cough,,Cough,10011224,Coughing and associated symptoms,10011228,Respiratory tract signs and symptoms,10038734,"Respiratory, thoracic and mediastinal disorders",10038738,"Respiratory, thoracic and mediastinal disorders",10038738,SEVERE,Y,DOSE NOT CHANGED,NOT RELATED,RECOVERED/RESOLVED,N,N,N,Y,N,N,TREATMENT,2024-06-28,2024-08-12,44,89,
GB001-ASTHMA-201,AE,GB001-ASTHMA-201-SITE002-0152,1,AE1,NASOPHARYNGITIS,Nasopharyngitis,,Nasopharyngitis,10028810,Upper respiratory tract infections,10046309,Upper respiratory tract infections,10046309,Infections and infestations,10021881,Infections and infestations,10021881,MILD,N,DOSE NOT CHANGED,NOT RELATED,RECOVERED/RESOLVED,N,N,N,N,N,N,TREATMENT,2024-04-26,2024-04-28,54,56,
GB001-ASTHMA-201,AE,GB001-ASTHMA-201-SITE002-0158,1,AE1,UPPER RESPIRATORY TRACT INFECTION,Upper respiratory tract infection,,Upper respiratory tract infection,10046306,Upper respiratory tract infections,10046309,Upper respiratory tract infections,10046309,Infections and infestations,10021881,Infections and infestations,10021881,SEVERE,Y,DOSE NOT CHANGED,UNLIKELY RELATED,RECOVERED/RESOLVED,N,N,N,N,N,Y,TREATMENT,2024-05-11,2024-07-10,20,80,
GB001-ASTHMA-201,AE,GB001-ASTHMA-201-SITE002-0158,2,AE2,SINUSITIS,Sinusitis,,Sinusitis,10040753,Upper respiratory tract infections,10046309,Upper respiratory tract infections,10046309,Infections and infestations,10021881,Infections and infestations,10021881,MODERATE,N,DOSE NOT CHANGED,NOT RELATED,RECOVERED/RESOLVED,N,N,N,N,N,N,TREATMENT,2024-05-15,2024-06-06,24,46,
GB001-ASTHMA-201,AE,GB001-ASTHMA-201-SITE002-0161,1,AE1,UPPER RESPIRATORY TRACT INFECTION,Upper respiratory tract infection,,Upper respiratory tract infection,10046306,Upper respiratory tract infections,10046309,Upper respiratory tract infections,10046309,Infections and infestations,10021881,Infections and infestations,10021881,MODERATE,N,DOSE NOT CHANGED,UNLIKELY RELATED,RECOVERING/RESOLVING,N,N,N,N,N,N,TREATMENT,2024-04-02,2024-05-01,18,47,
GB001-ASTHMA-201,AE,GB001-ASTHMA-201-SITE002-0161,2,AE2,BRONCHITIS,Bronchitis,,Bronchitis,10006451,Lower respiratory tract and lung infections,10024968,Infections NEC,10021902,Infections and infestations,10021881,Infections and infestations,10021881,MODERATE,N,DOSE NOT CHANGED,UNLIKELY RELATED,RECOVERED/RESOLVED,N,N,N,N,N,N,TREATMENT,2024-04-05,2024-04-18,21,34,
GB001-ASTHMA-201,AE,GB001-ASTHMA-201-SITE002-0161,3,AE3,HEADACHE,Headache,,Headache,10019211,Headaches NEC,10019233,Headaches,10019231,Nervous system disorders,10029205,Nervous system disorders,10029205,MILD,N,DOSE NOT CHANGED,NOT RELATED,RECOVERED/RESOLVED,N,N,N,N,N,N,TREATMENT,2024-04-16,2024-04-19,32,35,
GB001-ASTHMA-201,AE,GB001-ASTHMA-201-SITE002-0161,4,AE4,FATIGUE,Fatigue,,Fatigue,10016256,Asthenic conditions,10003550,General system disorders NEC,10060892,General disorders and administration site conditions,10018065,General disorders and administration site conditions,10018065,MODERATE,N,DOSE NOT CHANGED,NOT RELATED,RECOVERED/RESOLVED,N,N,N,N,N,N,TREATMENT,2024-05-04,2024-05-28,50,74,
GB001-ASTHMA-201,AE,GB001-ASTHMA-201-SITE002-0161,5,AE5,NASOPHARYNGITIS,Nasopharyngitis,,Nasopharyngitis,10028810,Upper respiratory tract infections,10046309,Upper respiratory tract infections,10046309,Infections and infestations,10021881,Infections and infestations,10021881,MODERATE,N,DOSE NOT CHANGED,UNLIKELY RELATED,RECOVERING/RESOLVING,N,N,N,N,N,N,TREATMENT,2024-05-21,2024-06-01,67,78,
GB001-ASTHMA-201,AE,GB001-ASTHMA-201-SITE002-0164,1,AE1,SEPSIS,Sepsis,,Sepsis,10040047,"Sepsis, bacteraemia, viraemia and fungaemia NEC",10040062,Infections NEC,10021902,Infections and infestations,10021881,Infections and infestations,10021881,MODERATE,N,DOSE NOT CHANGED,UNLIKELY RELATED,RECOVERED/RESOLVED,N,N,N,N,N,N,TREATMENT,2024-04-30,2024-05-30,16,46,
GB001-ASTHMA-201,AE,GB001-ASTHMA-201-SITE002-0164,2,AE2,HEADACHE,Headache,,Headache,10019211,Headaches NEC,10019233,Headaches,10019231,Nervous system disorders,10029205,Nervous system disorders,10029205,SEVERE,Y,DOSE NOT CHANGED,NOT RELATED,RECOVERED/RESOLVED,N,N,N,N,N,Y,TREATMENT,2024-06-26,2024-07-05,73,82,
GB001-ASTHMA-201,AE,GB001-ASTHMA-201-SITE002-0167,1,AE1,ASTHMA,Asthma,,Asthma,10003553,Bronchospasm and obstruction,10006482,Lower respiratory tract conditions (excl obstruction and infection),10063481,"Respiratory, thoracic and mediastinal disorders",10038738,"Respiratory, thoracic and mediastinal disorders",10038738,SEVERE,Y,DOSE NOT CHANGED,NOT RELATED,RECOVERING/RESOLVING,N,N,N,Y,N,N,TREATMENT,2024-03-17,2024-05-09,9,62,
GB001-ASTHMA-201,AE,GB001-ASTHMA-201-SITE002-0167,2,AE2,COUGH,Cough,,Cough,10011224,Coughing and associated symptoms,10011228,Respiratory tract signs and symptoms,10038734,"Respiratory, thoracic and mediastinal disorders",10038738,"Respiratory, thoracic and mediastinal disorders",10038738,MILD,N,DOSE NOT CHANGED,NOT RELATED,RECOVERED/RESOLVED,N,N,N,N,N,N,TREATMENT,2024-05-02,2024-05-05,55,58,
GB001-ASTHMA-201,AE,GB001-ASTHMA-201-SITE002-0167,3,AE3,HEADACHE,Headache,,Headache,10019211,Headaches NEC,10019233,Headaches,10019231,Nervous system disorders,10029205,Nervous system disorders,10029205,MILD,N,DOSE NOT CHANGED,UNLIKELY RELATED,RECOVERED/RESOLVED,N,N,N,N,N,N,TREATMENT,2024-05-11,2024-05-13,64,66,
GB001-ASTHMA-201,AE,GB001-ASTHMA-201-SITE002-0170,1,AE1,FATIGUE,Fatigue,,Fatigue,10016256,Asthenic conditions,10003550,General system disorders NEC,10060892,General disorders and administration site conditions,10018065,General disorders and administration site conditions,10018065,MILD,N,DOSE NOT CHANGED,PROBABLY RELATED,RECOVERED/RESOLVED,N,N,N,N,N,N,TREATMENT,2024-03-11,2024-03-19,1,9,
GB001-ASTHMA-201,AE,GB001-ASTHMA-201-SITE002-0173,1,AE1,UPPER RESPIRATORY TRACT INFECTION,Upper respiratory tract infection,,Upper respiratory tract infection,10046306,Upper respiratory tract infections,10046309,Upper respiratory tract infections,10046309,Infections and infestations,10021881,Infections and infestations,10021881,SEVERE,Y,DOSE NOT CHANGED,UNLIKELY RELATED,RECOVERING/RESOLVING,N,N,N,Y,N,N,TREATMENT,2024-03-14,2024-03-21,10,17,
GB001-ASTHMA-201,AE,GB001-ASTHMA-201-SITE002-0173,2,AE2,BACK PAIN,Back pain,,Back pain,10003988,Spinal column and cord signs and symptoms,10041367,Musculoskeletal and connective tissue signs and symptoms NEC,10063536,Musculoskeletal and connective tissue disorders,10028395,Musculoskeletal and connective tissue disorders,10028395,SEVERE,Y,DOSE NOT CHANGED,NOT RELATED,RECOVERED/RESOLVED,N,N,N,Y,N,N,TREATMENT,2024-04-11,2024-05-12,38,69,
GB001-ASTHMA-201,AE,GB001-ASTHMA-201-SITE002-0173,3,AE3,UPPER RESPIRATORY TRACT INFECTION,Upper respiratory tract infection,,Upper respiratory tract infection,10046306,Upper respiratory tract infections,10046309,Upper respiratory tract infections,10046309,Infections and infestations,10021881,Infections and infestations,10021881,SEVERE,Y,DOSE NOT CHANGED,UNLIKELY RELATED,RECOVERED/RESOLVED,N,N,N,N,N,Y,TREATMENT,2024-05-07,2024-06-04,64,92,
GB001-ASTHMA-201,AE,GB001-ASTHMA-201-SITE002-0173,4,AE4,UPPER RESPIRATORY TRACT INFECTION,Upper respiratory tract infection,,Upper respiratory tract infection,10046306,Upper respiratory tract infections,10046309,Upper respiratory tract infections,10046309,Infections and infestations,10021881,Infections and infestations,10021881,MODERATE,N,DOSE NOT CHANGED,NOT RELATED,RECOVERED/RESOLVED,N,N,N,N,N,N,TREATMENT,2024-05-12,2024-05-27,69,84,
GB001-ASTHMA-201,AE,GB001-ASTHMA-201-SITE002-0176,1,AE1,NASOPHARYNGITIS,Nasopharyngitis,,Nasopharyngitis,10028810,Upper respiratory tract infections,10046309,Upper respiratory tract infections,10046309,Infections and infestations,10021881,Infections and infestations,10021881,SEVERE,Y,DOSE NOT CHANGED,UNLIKELY RELATED,RECOVERED/RESOLVED,N,N,N,Y,N,N,TREATMENT,2024-02-19,2024-04-16,1,58,
GB001-ASTHMA-201,AE,GB001-ASTHMA-201-SITE002-0176,2,AE2,BRONCHITIS,Bronchitis,,Bronchitis,10006451,Lower respiratory tract and lung infections,10024968,Infections NEC,10021902,Infections and infestations,10021881,Infections and infestations,10021881,MILD,N,DOSE NOT CHANGED,POSSIBLY RELATED,RECOVERED/RESOLVED,N,N,N,N,N,N,TREATMENT,2024-02-21,2024-02-22,3,4,
GB001-ASTHMA-201,AE,GB001-ASTHMA-201-SITE002-0176,3,AE3,SINUSITIS,Sinusitis,,Sinusitis,10040753,Upper respiratory tract infections,10046309,Upper respiratory tract infections,10046309,Infections and infestations,10021881,Infections and infestations,10021881,SEVERE,Y,DOSE NOT CHANGED,UNLIKELY RELATED,RECOVERED/RESOLVED,N,N,N,Y,N,N,TREATMENT,2024-03-11,2024-04-04,22,46,
GB001-ASTHMA-201,AE,GB001-ASTHMA-201-SITE002-0176,4,AE4,NASOPHARYNGITIS,Nasopharyngitis,,Nasopharyngitis,10028810,Upper respiratory tract infections,10046309,Upper respiratory tract infections,10046309,Infections and infestations,10021881,Infections and infestations,10021881,MILD,N,DOSE NOT CHANGED,POSSIBLY RELATED,RECOVERED/RESOLVED,N,N,N,N,N,N,TREATMENT,2024-03-24,2024-04-03,35,45,
GB001-ASTHMA-201,AE,GB001-ASTHMA-201-SITE002-0185,1,AE1,ASTHMA,Asthma,,Asthma,10003553,Bronchospasm and obstruction,10006482,Lower respiratory tract conditions (excl obstruction and infection),10063481,"Respiratory, thoracic and mediastinal disorders",10038738,"Respiratory, thoracic and mediastinal disorders",10038738,MODERATE,N,DOSE NOT CHANGED,UNLIKELY RELATED,RECOVERED/RESOLVED,N,N,N,N,N,N,TREATMENT,2024-04-23,2024-05-12,15,34,
GB001-ASTHMA-201,AE,GB001-ASTHMA-201-SITE002-0188,1,AE1,HEADACHE,Headache,,Headache,10019211,Headaches NEC,10019233,Headaches,10019231,Nervous system disorders,10029205,Nervous system disorders,10029205,SEVERE,Y,DOSE REDUCED,POSSIBLY RELATED,RECOVERING/RESOLVING,N,N,N,Y,N,N,TREATMENT,2024-04-05,2024-04-11,6,12,
GB001-ASTHMA-201,AE,GB001-ASTHMA-201-SITE002-0188,2,AE2,UPPER RESPIRATORY TRACT INFECTION,Upper respiratory tract infection,,Upper respiratory tract infection,10046306,Upper respiratory tract infections,10046309,Upper respiratory tract infections,10046309,Infections and infestations,10021881,Infections and infestations,10021881,SEVERE,Y,DOSE NOT CHANGED,UNLIKELY RELATED,RECOVERED/RESOLVED,N,N,N,Y,N,N,TREATMENT,2024-04-10,2024-05-23,11,54,
GB001-ASTHMA-201,AE,GB001-ASTHMA-201-SITE002-0188,3,AE3,PNEUMONIA,Pneumonia,,Pneumonia,10035664,Lower respiratory and lung infections,10024968,Infections NEC,10021902,Infections and infestations,10021881,Infections and infestations,10021881,SEVERE,Y,DOSE NOT CHANGED,NOT RELATED,RECOVERED/RESOLVED,N,N,N,Y,N,N,TREATMENT,2024-04-20,2024-06-14,21,76,
GB001-ASTHMA-201,AE,GB001-ASTHMA-201-SITE002-0188,4,AE4,NASOPHARYNGITIS,Nasopharyngitis,,Nasopharyngitis,10028810,Upper respiratory tract infections,10046309,Upper respiratory tract infections,10046309,Infections and infestations,10021881,Infections and infestations,10021881,SEVERE,Y,DOSE REDUCED,POSSIBLY RELATED,RECOVERED/RESOLVED,N,N,N,Y,N,N,TREATMENT,2024-04-24,2024-05-04,25,35,
GB001-ASTHMA-201,AE,GB001-ASTHMA-201-SITE002-0188,5,AE5,UPPER RESPIRATORY TRACT INFECTION,Upper respiratory tract infection,,Upper respiratory tract infection,10046306,Upper respiratory tract infections,10046309,Upper respiratory tract infections,10046309,Infections and infestations,10021881,Infections and infestations,10021881,SEVERE,Y,DRUG INTERRUPTED,POSSIBLY RELATED,RECOVERING/RESOLVING,N,N,N,Y,N,N,TREATMENT,2024-04-25,2024-06-18,26,80,
GB001-ASTHMA-201,AE,GB001-ASTHMA-201-SITE002-0188,6,AE6,UPPER RESPIRATORY TRACT INFECTION,Upper respiratory tract infection,,Upper respiratory tract infection,10046306,Upper respiratory tract infections,10046309,Upper respiratory tract infections,10046309,Infections and infestations,10021881,Infections and infestations,10021881,MILD,N,DOSE NOT CHANGED,POSSIBLY RELATED,RECOVERING/RESOLVING,N,N,N,N,N,N,TREATMENT,2024-04-26,2024-05-08,27,39,
GB001-ASTHMA-201,AE,GB001-ASTHMA-201-SITE002-0188,7,AE7,COUGH,Cough,,Cough,10011224,Coughing and associated symptoms,10011228,Respiratory tract signs and symptoms,10038734,"Respiratory, thoracic and mediastinal disorders",10038738,"Respiratory, thoracic and mediastinal disorders",10038738,MILD,N,DOSE NOT CHANGED,NOT RELATED,NOT RECOVERED/NOT RESOLVED,N,N,N,N,N,N,TREATMENT,2024-05-11,,42,,DURING/AFTER
GB001-ASTHMA-201,AE,GB001-ASTHMA-201-SITE002-0188,8,AE8,NAUSEA,Nausea,,Nausea,10028813,Nausea and vomiting symptoms,10028817,Gastrointestinal signs and symptoms,10017999,Gastrointestinal disorders,10017947,Gastrointestinal disorders,10017947,MILD,N,DOSE NOT CHANGED,NOT RELATED,RECOVERED/RESOLVED,N,N,N,N,N,N,TREATMENT,2024-05-11,2024-05-14,42,45,
GB001-ASTHMA-201,AE,GB001-ASTHMA-201-SITE002-0188,9,AE9,COUGH,Cough,,Cough,10011224,Coughing and associated symptoms,10011228,Respiratory tract signs and symptoms,10038734,"Respiratory, thoracic and mediastinal disorders",10038738,"Respiratory, thoracic and mediastinal disorders",10038738,MILD,N,DOSE NOT CHANGED,POSSIBLY RELATED,RECOVERED/RESOLVED,N,N,N,N,N,N,TREATMENT,2024-06-08,2024-06-10,70,72,
GB001-ASTHMA-201,AE,GB001-ASTHMA-201-SITE002-0191,1,AE1,UPPER RESPIRATORY TRACT INFECTION,Upper respiratory tract infection,,Upper respiratory tract infection,10046306,Upper respiratory tract infections,10046309,Upper respiratory tract infections,10046309,Infections and infestations,10021881,Infections and infestations,10021881,MODERATE,N,DOSE NOT CHANGED,POSSIBLY RELATED,RECOVERED/RESOLVED,N,N,N,N,N,N,TREATMENT,2024-06-08,2024-06-22,49,63,
GB001-ASTHMA-201,AE,GB001-ASTHMA-201-SITE002-0191,2,AE2,ASTHMA,Asthma,,Asthma,10003553,Bronchospasm and obstruction,10006482,Lower respiratory tract conditions (excl obstruction and infection),10063481,"Respiratory, thoracic and mediastinal disorders",10038738,"Respiratory, thoracic and mediastinal disorders",10038738,SEVERE,Y,DOSE NOT CHANGED,NOT RELATED,RECOVERED/RESOLVED,N,N,N,Y,N,N,TREATMENT,2024-06-24,2024-06-25,65,66,
GB001-ASTHMA-201,AE,GB001-ASTHMA-201-SITE002-0191,3,AE3,HEADACHE,Headache,,Headache,10019211,Headaches NEC,10019233,Headaches,10019231,Nervous system disorders,10029205,Nervous system disorders,10029205,MILD,N,DOSE NOT CHANGED,UNLIKELY RELATED,RECOVERING/RESOLVING,N,N,N,N,N,N,TREATMENT,2024-07-13,2024-07-16,84,87,
GB001-ASTHMA-201,AE,GB001-ASTHMA-201-SITE002-0194,1,AE1,HEADACHE,Headache,,Headache,10019211,Headaches NEC,10019233,Headaches,10019231,Nervous system disorders,10029205,Nervous system disorders,10029205,MILD,N,DOSE NOT CHANGED,UNLIKELY RELATED,RECOVERED/RESOLVED,N,N,N,N,N,N,TREATMENT,2024-05-10,2024-05-12,35,37,
GB001-ASTHMA-201,AE,GB001-ASTHMA-201-SITE002-0194,2,AE2,FATIGUE,Fatigue,,Fatigue,10016256,Asthenic conditions,10003550,General system disorders NEC,10060892,General disorders and administration site conditions,10018065,General disorders and administration site conditions,10018065,MILD,N,DOSE NOT CHANGED,NOT RELATED,RECOVERED/RESOLVED,N,N,N,N,N,N,TREATMENT,2024-06-11,2024-06-18,67,74,
GB001-ASTHMA-201,AE,GB001-ASTHMA-201-SITE002-0197,1,AE1,ASTHMA,Asthma,,Asthma,10003553,Bronchospasm and obstruction,10006482,Lower respiratory tract conditions (excl obstruction and infection),10063481,"Respiratory, thoracic and mediastinal disorders",10038738,"Respiratory, thoracic and mediastinal disorders",10038738,MODERATE,N,DOSE NOT CHANGED,NOT RELATED,UNKNOWN,N,N,N,N,N,N,TREATMENT,2024-04-15,2024-05-09,56,80,
GB001-ASTHMA-201,AE,GB001-ASTHMA-201-SITE002-0197,2,AE2,BRONCHITIS,Bronchitis,,Bronchitis,10006451,Lower respiratory tract and lung infections,10024968,Infections NEC,10021902,Infections and infestations,10021881,Infections and infestations,10021881,MILD,N,DOSE NOT CHANGED,NOT RELATED,RECOVERED/RESOLVED,N,N,N,N,N,N,TREATMENT,2024-04-24,2024-05-01,65,72,
GB001-ASTHMA-201,AE,GB001-ASTHMA-201-SITE002-0197,3,AE3,HEADACHE,Headache,,Headache,10019211,Headaches NEC,10019233,Headaches,10019231,Nervous system disorders,10029205,Nervous system disorders,10029205,SEVERE,Y,DOSE NOT CHANGED,NOT RELATED,RECOVERED/RESOLVED,N,N,N,N,N,Y,TREATMENT,2024-05-13,2024-05-25,84,96,
GB001-ASTHMA-201,AE,GB001-ASTHMA-201-SITE002-0200,1,AE1,UPPER RESPIRATORY TRACT INFECTION,Upper respiratory tract infection,,Upper respiratory tract infection,10046306,Upper respiratory tract infections,10046309,Upper respiratory tract infections,10046309,Infections and infestations,10021881,Infections and infestations,10021881,MODERATE,N,DOSE NOT CHANGED,NOT RELATED,RECOVERED/RESOLVED,N,N,N,N,N,N,TREATMENT,2024-05-10,2024-05-12,51,53,
GB001-ASTHMA-201,AE,GB001-ASTHMA-201-SITE002-0200,2,AE2,NASOPHARYNGITIS,Nasopharyngitis,,Nasopharyngitis,10028810,Upper respiratory tract infections,10046309,Upper respiratory tract infections,10046309,Infections and infestations,10021881,Infections and infestations,10021881,MILD,N,DOSE NOT CHANGED,NOT RELATED,RECOVERED/RESOLVED,N,N,N,N,N,N,TREATMENT,2024-06-10,2024-06-14,82,86,
GB001-ASTHMA-201,AE,GB001-ASTHMA-201-SITE002-0203,1,AE1,NAUSEA,Nausea,,Nausea,10028813,Nausea and vomiting symptoms,10028817,Gastrointestinal signs and symptoms,10017999,Gastrointestinal disorders,10017947,Gastrointestinal disorders,10017947,MODERATE,N,DRUG INTERRUPTED,PROBABLY RELATED,NOT RECOVERED/NOT RESOLVED,N,N,N,N,N,N,TREATMENT,2024-04-29,,39,,DURING/AFTER
GB001-ASTHMA-201,AE,GB001-ASTHMA-201-SITE002-0203,2,AE2,COUGH,Cough,,Cough,10011224,Coughing and associated symptoms,10011228,Respiratory tract signs and symptoms,10038734,"Respiratory, thoracic and mediastinal disorders",10038738,"Respiratory, thoracic and mediastinal disorders",10038738,MODERATE,N,DOSE NOT CHANGED,UNLIKELY RELATED,RECOVERED/RESOLVED,N,N,N,N,N,N,TREATMENT,2024-05-18,2024-06-05,58,76,
GB001-ASTHMA-201,AE,GB001-ASTHMA-201-SITE002-0203,3,AE3,NAUSEA,Nausea,,Nausea,10028813,Nausea and vomiting symptoms,10028817,Gastrointestinal signs and symptoms,10017999,Gastrointestinal disorders,10017947,Gastrointestinal disorders,10017947,MODERATE,N,DOSE NOT CHANGED,UNLIKELY RELATED,RECOVERED/RESOLVED,N,N,N,N,N,N,TREATMENT,2024-05-27,2024-06-02,67,73,
GB001-ASTHMA-201,AE,GB001-ASTHMA-201-SITE002-0203,4,AE4,FATIGUE,Fatigue,,Fatigue,10016256,Asthenic conditions,10003550,General system disorders NEC,10060892,General disorders and administration site conditions,10018065,General disorders and administration site conditions,10018065,MODERATE,N,DRUG INTERRUPTED,POSSIBLY RELATED,RECOVERED/RESOLVED,N,N,N,N,N,N,TREATMENT,2024-06-06,2024-06-14,77,85,
GB001-ASTHMA-201,AE,GB001-ASTHMA-201-SITE002-0206,1,AE1,BRONCHITIS,Bronchitis,,Bronchitis,10006451,Lower respiratory tract and lung infections,10024968,Infections NEC,10021902,Infections and infestations,10021881,Infections and infestations,10021881,MODERATE,N,DOSE NOT CHANGED,NOT RELATED,NOT RECOVERED/NOT RESOLVED,N,N,N,N,N,N,TREATMENT,2024-02-15,,18,,DURING/AFTER
GB001-ASTHMA-201,AE,GB001-ASTHMA-201-SITE002-0209,1,AE1,OROPHARYNGEAL PAIN,Oropharyngeal pain,,Oropharyngeal pain,10068319,Oral soft tissue conditions NEC,10068876,Oral soft tissue conditions,10061998,Gastrointestinal disorders,10017947,Gastrointestinal disorders,10017947,MILD,N,DOSE NOT CHANGED,NOT RELATED,RECOVERED/RESOLVED,N,N,N,N,N,N,TREATMENT,2024-02-10,2024-02-18,10,18,
GB001-ASTHMA-201,AE,GB001-ASTHMA-201-SITE002-0209,2,AE2,NAUSEA,Nausea,,Nausea,10028813,Nausea and vomiting symptoms,10028817,Gastrointestinal signs and symptoms,10017999,Gastrointestinal disorders,10017947,Gastrointestinal disorders,10017947,MILD,N,DOSE NOT CHANGED,POSSIBLY RELATED,RECOVERED/RESOLVED,N,N,N,N,N,N,TREATMENT,2024-02-12,2024-02-14,12,14,
GB001-ASTHMA-201,AE,GB001-ASTHMA-201-SITE002-0209,3,AE3,UPPER RESPIRATORY TRACT INFECTION,Upper respiratory tract infection,,Upper respiratory tract infection,10046306,Upper respiratory tract infections,10046309,Upper respiratory tract infections,10046309,Infections and infestations,10021881,Infections and infestations,10021881,MILD,N,DOSE NOT CHANGED,POSSIBLY RELATED,RECOVERED/RESOLVED,N,N,N,N,N,N,TREATMENT,2024-03-07,2024-03-21,36,50,
GB001-ASTHMA-201,AE,GB001-ASTHMA-201-SITE002-0212,1,AE1,HEADACHE,Headache,,Headache,10019211,Headaches NEC,10019233,Headaches,10019231,Nervous system disorders,10029205,Nervous system disorders,10029205,SEVERE,Y,DOSE NOT CHANGED,NOT RELATED,RECOVERED/RESOLVED,N,N,N,Y,N,N,TREATMENT,2024-04-14,2024-04-18,20,24,
GB001-ASTHMA-201,AE,GB001-ASTHMA-201-SITE002-0212,2,AE2,COUGH,Cough,,Cough,10011224,Coughing and associated symptoms,10011228,Respiratory tract signs and symptoms,10038734,"Respiratory, thoracic and mediastinal disorders",10038738,"Respiratory, thoracic and mediastinal disorders",10038738,MILD,N,DOSE NOT CHANGED,PROBABLY RELATED,RECOVERED/RESOLVED,N,N,N,N,N,N,TREATMENT,2024-04-27,2024-05-05,33,41,
GB001-ASTHMA-201,AE,GB001-ASTHMA-201-SITE002-0215,1,AE1,FATIGUE,Fatigue,,Fatigue,10016256,Asthenic conditions,10003550,General system disorders NEC,10060892,General disorders and administration site conditions,10018065,General disorders and administration site conditions,10018065,SEVERE,Y,DRUG INTERRUPTED,POSSIBLY RELATED,RECOVERED/RESOLVED,N,N,N,N,N,Y,TREATMENT,2024-03-06,2024-04-21,5,51,
GB001-ASTHMA-201,AE,GB001-ASTHMA-201-SITE002-0215,2,AE2,COUGH,Cough,,Cough,10011224,Coughing and associated symptoms,10011228,Respiratory tract signs and symptoms,10038734,"Respiratory, thoracic and mediastinal disorders",10038738,"Respiratory, thoracic and mediastinal disorders",10038738,MILD,N,DOSE NOT CHANGED,NOT RELATED,RECOVERED/RESOLVED,N,N,N,N,N,N,TREATMENT,2024-03-24,2024-04-01,23,31,
GB001-ASTHMA-201,AE,GB001-ASTHMA-201-SITE002-0215,3,AE3,NASOPHARYNGITIS,Nasopharyngitis,,Nasopharyngitis,10028810,Upper respiratory tract infections,10046309,Upper respiratory tract infections,10046309,Infections and infestations,10021881,Infections and infestations,10021881,MODERATE,N,DRUG INTERRUPTED,POSSIBLY RELATED,RECOVERED/RESOLVED,N,N,N,N,N,N,TREATMENT,2024-03-25,2024-04-09,24,39,
GB001-ASTHMA-201,AE,GB001-ASTHMA-201-SITE002-0215,4,AE4,OROPHARYNGEAL PAIN,Oropharyngeal pain,,Oropharyngeal pain,10068319,Oral soft tissue conditions NEC,10068876,Oral soft tissue conditions,10061998,Gastrointestinal disorders,10017947,Gastrointestinal disorders,10017947,SEVERE,Y,DOSE NOT CHANGED,NOT RELATED,RECOVERING/RESOLVING,N,N,N,Y,N,N,TREATMENT,2024-04-18,2024-05-24,48,84,
GB001-ASTHMA-201,AE,GB001-ASTHMA-201-SITE002-0215,5,AE5,HEADACHE,Headache,,Headache,10019211,Headaches NEC,10019233,Headaches,10019231,Nervous system disorders,10029205,Nervous system disorders,10029205,SEVERE,Y,DOSE NOT CHANGED,NOT RELATED,NOT RECOVERED/NOT RESOLVED,N,N,N,N,N,Y,TREATMENT,2024-05-03,,63,,DURING/AFTER
GB001-ASTHMA-201,AE,GB001-ASTHMA-201-SITE002-0215,6,AE6,NASOPHARYNGITIS,Nasopharyngitis,,Nasopharyngitis,10028810,Upper respiratory tract infections,10046309,Upper respiratory tract infections,10046309,Infections and infestations,10021881,Infections and infestations,10021881,MODERATE,N,DOSE NOT CHANGED,UNLIKELY RELATED,RECOVERED/RESOLVED,N,N,N,N,N,N,TREATMENT,2024-05-05,2024-05-24,65,84,
GB001-ASTHMA-201,AE,GB001-ASTHMA-201-SITE002-0215,7,AE7,HEADACHE,Headache,,Headache,10019211,Headaches NEC,10019233,Headaches,10019231,Nervous system disorders,10029205,Nervous system disorders,10029205,SEVERE,Y,DOSE NOT CHANGED,NOT RELATED,RECOVERED/RESOLVED,N,N,N,Y,N,N,TREATMENT,2024-05-13,2024-05-28,73,88,
GB001-ASTHMA-201,AE,GB001-ASTHMA-201-SITE002-0218,1,AE1,SEPSIS,Sepsis,,Sepsis,10040047,"Sepsis, bacteraemia, viraemia and fungaemia NEC",10040062,Infections NEC,10021902,Infections and infestations,10021881,Infections and infestations,10021881,MILD,N,DOSE NOT CHANGED,UNLIKELY RELATED,RECOVERING/RESOLVING,N,N,N,N,N,N,TREATMENT,2024-02-25,2024-02-26,5,6,
GB001-ASTHMA-201,AE,GB001-ASTHMA-201-SITE002-0218,2,AE2,BRONCHITIS,Bronchitis,,Bronchitis,10006451,Lower respiratory tract and lung infections,10024968,Infections NEC,10021902,Infections and infestations,10021881,Infections and infestations,10021881,MODERATE,N,DOSE NOT CHANGED,NOT RELATED,RECOVERED/RESOLVED,N,N,N,N,N,N,TREATMENT,2024-04-12,2024-05-11,52,81,
GB001-ASTHMA-201,AE,GB001-ASTHMA-201-SITE002-0218,3,AE3,BRONCHITIS,Bronchitis,,Bronchitis,10006451,Lower respiratory tract and lung infections,10024968,Infections NEC,10021902,Infections and infestations,10021881,Infections and infestations,10021881,MODERATE,N,DOSE NOT CHANGED,NOT RELATED,RECOVERED/RESOLVED,N,N,N,N,N,N,TREATMENT,2024-05-04,2024-06-03,74,104,
GB001-ASTHMA-201,AE,GB001-ASTHMA-201-SITE002-0221,1,AE1,BRONCHITIS,Bronchitis,,Bronchitis,10006451,Lower respiratory tract and lung infections,10024968,Infections NEC,10021902,Infections and infestations,10021881,Infections and infestations,10021881,MODERATE,N,DOSE NOT CHANGED,NOT RELATED,RECOVERED/RESOLVED,N,N,N,N,N,N,TREATMENT,2024-04-03,2024-04-29,47,73,
GB001-ASTHMA-201,AE,GB001-ASTHMA-201-SITE002-0221,2,AE2,BRONCHITIS,Bronchitis,,Bronchitis,10006451,Lower respiratory tract and lung infections,10024968,Infections NEC,10021902,Infections and infestations,10021881,Infections and infestations,10021881,MODERATE,N,DOSE NOT CHANGED,NOT RELATED,RECOVERED/RESOLVED,N,N,N,N,N,N,TREATMENT,2024-04-19,2024-04-26,63,70,
GB001-ASTHMA-201,AE,GB001-ASTHMA-201-SITE002-0221,3,AE3,NASOPHARYNGITIS,Nasopharyngitis,,Nasopharyngitis,10028810,Upper respiratory tract infections,10046309,Upper respiratory tract infections,10046309,Infections and infestations,10021881,Infections and infestations,10021881,MODERATE,N,DOSE NOT CHANGED,NOT RELATED,RECOVERED/RESOLVED,N,N,N,N,N,N,TREATMENT,2024-04-27,2024-05-15,71,89,
GB001-ASTHMA-201,AE,GB001-ASTHMA-201-SITE002-0230,1,AE1,FATIGUE,Fatigue,,Fatigue,10016256,Asthenic conditions,10003550,General system disorders NEC,10060892,General disorders and administration site conditions,10018065,General disorders and administration site conditions,10018065,SEVERE,Y,DOSE REDUCED,POSSIBLY RELATED,RECOVERED/RESOLVED,N,N,N,Y,N,N,TREATMENT,2024-04-20,2024-05-24,2,36,
GB001-ASTHMA-201,AE,GB001-ASTHMA-201-SITE002-0230,2,AE2,UPPER RESPIRATORY TRACT INFECTION,Upper respiratory tract infection,,Upper respiratory tract infection,10046306,Upper respiratory tract infections,10046309,Upper respiratory tract infections,10046309,Infections and infestations,10021881,Infections and infestations,10021881,MODERATE,N,DOSE NOT CHANGED,UNLIKELY RELATED,RECOVERING/RESOLVING,N,N,N,N,N,N,TREATMENT,2024-05-25,2024-06-18,37,61,
GB001-ASTHMA-201,AE,GB001-ASTHMA-201-SITE002-0230,3,AE3,COUGH,Cough,,Cough,10011224,Coughing and associated symptoms,10011228,Respiratory tract signs and symptoms,10038734,"Respiratory, thoracic and mediastinal disorders",10038738,"Respiratory, thoracic and mediastinal disorders",10038738,MODERATE,N,DRUG INTERRUPTED,POSSIBLY RELATED,RECOVERING/RESOLVING,N,N,N,N,N,N,TREATMENT,2024-06-28,2024-07-19,71,92,
GB001-ASTHMA-201,AE,GB001-ASTHMA-201-SITE002-0230,4,AE4,BRONCHITIS,Bronchitis,,Bronchitis,10006451,Lower respiratory tract and lung infections,10024968,Infections NEC,10021902,Infections and infestations,10021881,Infections and infestations,10021881,MILD,N,DOSE NOT CHANGED,NOT RELATED,RECOVERED/RESOLVED,N,N,N,N,N,N,TREATMENT,2024-07-10,2024-07-12,83,85,
GB001-ASTHMA-201,AE,GB001-ASTHMA-201-SITE002-0233,1,AE1,UPPER RESPIRATORY TRACT INFECTION,Upper respiratory tract infection,,Upper respiratory tract infection,10046306,Upper respiratory tract infections,10046309,Upper respiratory tract infections,10046309,Infections and infestations,10021881,Infections and infestations,10021881,MILD,N,DOSE NOT CHANGED,NOT RELATED,RECOVERED/RESOLVED,N,N,N,N,N,N,TREATMENT,2024-04-01,2024-04-14,13,26,
GB001-ASTHMA-201,AE,GB001-ASTHMA-201-SITE002-0233,2,AE2,NASOPHARYNGITIS,Nasopharyngitis,,Nasopharyngitis,10028810,Upper respiratory tract infections,10046309,Upper respiratory tract infections,10046309,Infections and infestations,10021881,Infections and infestations,10021881,MODERATE,N,DOSE NOT CHANGED,NOT RELATED,RECOVERED/RESOLVED,N,N,N,N,N,N,TREATMENT,2024-04-08,2024-04-22,20,34,
GB001-ASTHMA-201,AE,GB001-ASTHMA-201-SITE002-0233,3,AE3,BACK PAIN,Back pain,,Back pain,10003988,Spinal column and cord signs and symptoms,10041367,Musculoskeletal and connective tissue signs and symptoms NEC,10063536,Musculoskeletal and connective tissue disorders,10028395,Musculoskeletal and connective tissue disorders,10028395,MILD,N,DOSE NOT CHANGED,NOT RELATED,RECOVERED/RESOLVED,N,N,N,N,N,N,TREATMENT,2024-05-02,2024-05-07,44,49,
GB001-ASTHMA-201,AE,GB001-ASTHMA-201-SITE002-0233,4,AE4,NASOPHARYNGITIS,Nasopharyngitis,,Nasopharyngitis,10028810,Upper respiratory tract infections,10046309,Upper respiratory tract infections,10046309,Infections and infestations,10021881,Infections and infestations,10021881,MILD,N,DOSE NOT CHANGED,POSSIBLY RELATED,RECOVERED/RESOLVED,N,N,N,N,N,N,TREATMENT,2024-05-13,2024-05-27,55,69,
GB001-ASTHMA-201,AE,GB001-ASTHMA-201-SITE002-0233,5,AE5,HEADACHE,Headache,,Headache,10019211,Headaches NEC,10019233,Headaches,10019231,Nervous system disorders,10029205,Nervous system disorders,10029205,SEVERE,Y,DRUG INTERRUPTED,PROBABLY RELATED,RECOVERED/RESOLVED,N,N,N,Y,N,N,TREATMENT,2024-05-25,2024-05-31,67,73,
GB001-ASTHMA-201,AE,GB001-ASTHMA-201-SITE002-0233,6,AE6,CYTOKINE RELEASE SYNDROME,Cytokine release syndrome,,Cytokine release syndrome,10052015,Immune and associated conditions NEC,10027682,Autoimmune disorders,10003815,Immune system disorders,10021428,Immune system disorders,10021428,MILD,N,DOSE NOT CHANGED,POSSIBLY RELATED,RECOVERED/RESOLVED,N,N,N,N,N,N,TREATMENT,2024-05-29,2024-06-07,71,80,
