STUDYID,DOMAIN,USUBJID,SUBJID,RFSTDTC,RFENDTC,RFXSTDTC,RFXENDTC,RFICDTC,RFPENDTC,DTHDTC,DTHFL,SITEID,INVNAM,BRTHDTC,AGE,AGEU,SEX,RACE,ETHNIC,ARMCD,ARM,ACTARMCD,ACTARM,ARMNRS,ACTARMUD,COUNTRY
GB001-ASTHMA-201,DM,GB001-ASTHMA-201-SITE001-0001,0001,2024-03-24,2024-08-10,2024-03-24,2024-05-13,2024-02-21,2024-08-10,,,SITE001,Dr. Robert Chen,1974,50,YEARS,M,WHITE,NOT HISPANIC OR LATINO,PBO,Placebo,PBO,Placebo,,,USA
GB001-ASTHMA-201,DM,GB001-ASTHMA-201-SITE001-0004,0004,2024-04-11,2024-05-30,2024-04-11,2024-05-23,2024-03-21,2024-05-30,,,SITE001,Dr. Robert Chen,2001,23,YEARS,M,ASIAN,NOT HISPANIC OR LATINO,GB40,GB001 40mg QD,GB40,GB001 40mg QD,,,USA
GB001-ASTHMA-201,DM,GB001-ASTHMA-201-SITE001-0007,0007,2024-04-06,2024-08-23,2024-04-06,2024-05-09,2024-03-23,2024-08-23,,,SITE001,Dr. Robert Chen,1960,64,YEARS,F,WHITE,NOT HISPANIC OR LATINO,PBO,Placebo,PBO,Placebo,,,USA
GB001-ASTHMA-201,DM,GB001-ASTHMA-201-SITE001-0010,0010,2024-05-03,2024-09-19,2024-05-03,2024-06-23,2024-04-06,2024-09-19,,,SITE001,Dr. Robert Chen,1964,60,YEARS,F,WHITE,NOT HISPANIC OR LATINO,PBO,Placebo,PBO,Placebo,,,USA
GB001-ASTHMA-201,DM,GB001-ASTHMA-201-SITE001-0013,0013,2024-04-05,2024-08-22,2024-04-05,2024-06-27,2024-03-25,2024-08-22,,,SITE001,Dr. Robert Chen,1970,54,YEARS,F,WHITE,NOT HISPANIC OR LATINO,PBO,Placebo,PBO,Placebo,,,USA
GB001-ASTHMA-201,DM,GB001-ASTHMA-201-SITE001-0016,0016,,,,,2024-02-17,,,,SITE001,Dr. Robert Chen,1992,32,YEARS,F,OTHER,HISPANIC OR LATINO,,,,,SCREEN FAILURE,,USA
GB001-ASTHMA-201,DM,GB001-ASTHMA-201-SITE001-0019,0019,2024-03-28,2024-03-29,2024-03-28,2024-03-29,2024-03-14,2024-03-29,,,SITE001,Dr. Robert Chen,1963,61,YEARS,F,WHITE,NOT HISPANIC OR LATINO,GB40,GB001 40mg QD,GB40,GB001 40mg QD,,,USA
GB001-ASTHMA-201,DM,GB001-ASTHMA-201-SITE001-0022,0022,2024-04-09,2024-08-26,2024-04-09,2024-05-19,2024-03-29,2024-08-26,,,SITE001,Dr. Robert Chen,1998,26,YEARS,M,WHITE,NOT HISPANIC OR LATINO,PBO,Placebo,PBO,Placebo,,,USA
GB001-ASTHMA-201,DM,GB001-ASTHMA-201-SITE001-0025,0025,,,,,2024-04-04,,,,SITE001,Dr. Robert Chen,1949,75,YEARS,F,WHITE,UNKNOWN,,,,,SCREEN FAILURE,,USA
GB001-ASTHMA-201,DM,GB001-ASTHMA-201-SITE001-0028,0028,2024-03-07,2024-07-24,2024-03-07,2024-05-07,2024-02-01,2024-07-24,,,SITE001,Dr. Robert Chen,2003,21,YEARS,M,WHITE,NOT HISPANIC OR LATINO,PBO,Placebo,PBO,Placebo,,,USA
GB001-ASTHMA-201,DM,GB001-ASTHMA-201-SITE001-0031,0031,2024-03-25,2024-08-11,2024-03-25,2024-04-19,2024-02-24,2024-08-11,,,SITE001,Dr. Robert Chen,1971,53,YEARS,F,WHITE,NOT HISPANIC OR LATINO,PBO,Placebo,PBO,Placebo,,,USA
GB001-ASTHMA-201,DM,GB001-ASTHMA-201-SITE001-0034,0034,,,,,2024-02-07,,,,SITE001,Dr. Robert Chen,1966,58,YEARS,F,WHITE,NOT HISPANIC OR LATINO,,,,,SCREEN FAILURE,,USA
GB001-ASTHMA-201,DM,GB001-ASTHMA-201-SITE001-0037,0037,,,,,2024-02-02,,,,SITE001,Dr. Robert Chen,1990,34,YEARS,M,BLACK OR AFRICAN AMERICAN,NOT HISPANIC OR LATINO,,,,,SCREEN FAILURE,,USA
GB001-ASTHMA-201,DM,GB001-ASTHMA-201-SITE001-0040,0040,2024-05-06,2024-09-22,2024-05-06,2024-07-23,2024-04-13,2024-09-22,,,SITE001,Dr. Robert Chen,1964,60,YEARS,F,WHITE,NOT HISPANIC OR LATINO,GB40,GB001 40mg QD,GB40,GB001 40mg QD,,,USA
GB001-ASTHMA-201,DM,GB001-ASTHMA-201-SITE001-0043,0043,2024-03-06,2024-07-23,2024-03-06,2024-05-06,2024-02-21,2024-07-23,,,SITE001,Dr. Robert Chen,1955,69,YEARS,M,BLACK OR AFRICAN AMERICAN,NOT HISPANIC OR LATINO,GB40,GB001 40mg QD,GB40,GB001 40mg QD,,,USA
GB001-ASTHMA-201,DM,GB001-ASTHMA-201-SITE001-0046,0046,2024-03-09,2024-07-26,2024-03-09,2024-05-20,2024-02-27,2024-07-26,,,SITE001,Dr. Robert Chen,1964,60,YEARS,F,OTHER,HISPANIC OR LATINO,GB40,GB001 40mg QD,GB40,GB001 40mg QD,,,USA
GB001-ASTHMA-201,DM,GB001-ASTHMA-201-SITE001-0049,0049,2024-03-05,2024-07-22,2024-03-05,2024-04-24,2024-02-25,2024-07-22,,,SITE001,Dr. Robert Chen,1957,67,YEARS,M,WHITE,NOT HISPANIC OR LATINO,GB40,GB001 40mg QD,GB40,GB001 40mg QD,,,USA
GB001-ASTHMA-201,DM,GB001-ASTHMA-201-SITE001-0052,0052,2024-04-07,2024-08-24,2024-04-07,2024-06-29,2024-03-22,2024-08-24,,,SITE001,Dr. Robert Chen,1985,39,YEARS,F,WHITE,HISPANIC OR LATINO,GB40,GB001 40mg QD,GB40,GB001 40mg QD,,,USA
GB001-ASTHMA-201,DM,GB001-ASTHMA-201-SITE001-0055,0055,2024-04-21,2024-09-07,2024-04-21,2024-06-26,2024-03-25,2024-09-07,,,SITE001,Dr. Robert Chen,1983,41,YEARS,F,WHITE,NOT HISPANIC OR LATINO,PBO,Placebo,PBO,Placebo,,,USA
GB001-ASTHMA-201,DM,GB001-ASTHMA-201-SITE001-0058,0058,2024-02-22,2024-07-10,2024-02-22,2024-04-23,2024-01-26,2024-07-10,,,SITE001,Dr. Robert Chen,1990,34,YEARS,M,WHITE,NOT HISPANIC OR LATINO,PBO,Placebo,PBO,Placebo,,,USA
GB001-ASTHMA-201,DM,GB001-ASTHMA-201-SITE001-0061,0061,2024-04-26,2024-09-12,2024-04-26,2024-06-12,2024-04-01,2024-09-12,,,SITE001,Dr. Robert Chen,1979,45,YEARS,M,BLACK OR AFRICAN AMERICAN,NOT HISPANIC OR LATINO,PBO,Placebo,PBO,Placebo,,,USA
GB001-ASTHMA-201,DM,GB001-ASTHMA-201-SITE001-0064,0064,2024-03-30,2024-08-16,2024-03-30,2024-05-10,2024-02-24,2024-08-16,,,SITE001,Dr. Robert Chen,1957,67,YEARS,F,WHITE,NOT HISPANIC OR LATINO,GB40,GB001 40mg QD,GB40,GB001 40mg QD,,,USA
GB001-ASTHMA-201,DM,GB001-ASTHMA-201-SITE001-0067,0067,2024-05-04,2024-09-20,2024-05-04,2024-07-14,2024-04-09,2024-09-20,,,SITE001,Dr. Robert Chen,1976,48,YEARS,F,OTHER,HISPANIC OR LATINO,GB40,GB001 40mg QD,GB40,GB001 40mg QD,,,USA
GB001-ASTHMA-201,DM,GB001-ASTHMA-201-SITE001-0070,0070,2024-03-25,2024-08-11,2024-03-25,2024-06-14,2024-02-22,2024-08-11,,,SITE001,Dr. Robert Chen,2006,18,YEARS,M,OTHER,NOT HISPANIC OR LATINO,GB40,GB001 40mg QD,GB40,GB001 40mg QD,,,USA
GB001-ASTHMA-201,DM,GB001-ASTHMA-201-SITE001-0073,0073,2024-04-16,2024-04-19,2024-04-16,2024-04-18,2024-03-28,2024-04-19,,,SITE001,Dr. Robert Chen,1977,47,YEARS,M,WHITE,NOT HISPANIC OR LATINO,PBO,Placebo,PBO,Placebo,,,USA
GB001-ASTHMA-201,DM,GB001-ASTHMA-201-SITE001-0076,0076,2024-04-21,2024-09-07,2024-04-21,2024-06-28,2024-03-20,2024-09-07,,,SITE001,Dr. Robert Chen,1974,50,YEARS,F,WHITE,NOT HISPANIC OR LATINO,PBO,Placebo,PBO,Placebo,,,USA
GB001-ASTHMA-201,DM,GB001-ASTHMA-201-SITE001-0079,0079,2024-04-29,2024-09-15,2024-04-29,2024-06-02,2024-04-14,2024-09-15,,,SITE001,Dr. Robert Chen,1976,48,YEARS,M,BLACK OR AFRICAN AMERICAN,NOT HISPANIC OR LATINO,GB40,GB001 40mg QD,GB40,GB001 40mg QD,,,USA
GB001-ASTHMA-201,DM,GB001-ASTHMA-201-SITE001-0082,0082,2024-02-18,2024-07-06,2024-02-18,2024-05-11,2024-01-19,2024-07-06,,,SITE001,Dr. Robert Chen,2006,18,YEARS,F,BLACK OR AFRICAN AMERICAN,NOT HISPANIC OR LATINO,PBO,Placebo,PBO,Placebo,,,USA
GB001-ASTHMA-201,DM,GB001-ASTHMA-201-SITE001-0085,0085,2024-04-07,2024-08-24,2024-04-07,2024-05-20,2024-03-20,2024-08-24,,,SITE001,Dr. Robert Chen,1994,30,YEARS,M,WHITE,NOT HISPANIC OR LATINO,PBO,Placebo,PBO,Placebo,,,USA
GB001-ASTHMA-201,DM,GB001-ASTHMA-201-SITE001-0088,0088,2024-03-07,2024-07-24,2024-03-07,2024-05-25,2024-02-19,2024-07-24,,,SITE001,Dr. Robert Chen,1962,62,YEARS,F,WHITE,NOT HISPANIC OR LATINO,GB40,GB001 40mg QD,GB40,GB001 40mg QD,,,USA
GB001-ASTHMA-201,DM,GB001-ASTHMA-201-SITE001-0091,0091,2024-04-08,2024-08-25,2024-04-08,2024-06-18,2024-03-31,2024-08-25,,,SITE001,Dr. Robert Chen,2006,18,YEARS,F,WHITE,NOT HISPANIC OR LATINO,GB40,GB001 40mg QD,GB40,GB001 40mg QD,,,USA
GB001-ASTHMA-201,DM,GB001-ASTHMA-201-SITE001-0094,0094,2024-03-06,2024-03-07,2024-03-06,2024-03-07,2024-02-16,2024-03-07,,,SITE001,Dr. Robert Chen,1969,55,YEARS,M,WHITE,NOT HISPANIC OR LATINO,GB40,GB001 40mg QD,GB40,GB001 40mg QD,,,USA
GB001-ASTHMA-201,DM,GB001-ASTHMA-201-SITE001-0097,0097,,,,,2024-03-17,,,,SITE001,Dr. Robert Chen,1976,48,YEARS,F,OTHER,NOT HISPANIC OR LATINO,,,,,SCREEN FAILURE,,USA
GB001-ASTHMA-201,DM,GB001-ASTHMA-201-SITE001-0100,0100,,,,,2024-02-14,,,,SITE001,Dr. Robert Chen,1994,30,YEARS,M,WHITE,NOT HISPANIC OR LATINO,,,,,SCREEN FAILURE,,USA
GB001-ASTHMA-201,DM,GB001-ASTHMA-201-SITE001-0103,0103,2024-02-16,2024-07-04,2024-02-16,2024-04-04,2024-01-15,2024-07-04,,,SITE001,Dr. Robert Chen,1971,53,YEARS,M,BLACK OR AFRICAN AMERICAN,NOT HISPANIC OR LATINO,PBO,Placebo,PBO,Placebo,,,USA
GB001-ASTHMA-201,DM,GB001-ASTHMA-201-SITE001-0106,0106,2024-03-12,2024-07-29,2024-03-12,2024-05-17,2024-02-14,2024-07-29,,,SITE001,Dr. Robert Chen,2003,21,YEARS,M,WHITE,NOT HISPANIC OR LATINO,PBO,Placebo,PBO,Placebo,,,USA
GB001-ASTHMA-201,DM,GB001-ASTHMA-201-SITE001-0109,0109,2024-05-05,2024-09-21,2024-05-05,2024-07-02,2024-04-04,2024-09-21,,,SITE001,Dr. Robert Chen,1986,38,YEARS,F,WHITE,HISPANIC OR LATINO,PBO,Placebo,PBO,Placebo,,,USA
GB001-ASTHMA-201,DM,GB001-ASTHMA-201-SITE001-0112,0112,2024-04-11,2024-08-28,2024-04-11,2024-06-25,2024-03-15,2024-08-28,,,SITE001,Dr. Robert Chen,1973,51,YEARS,M,WHITE,NOT HISPANIC OR LATINO,PBO,Placebo,PBO,Placebo,,,USA
GB001-ASTHMA-201,DM,GB001-ASTHMA-201-SITE001-0115,0115,2024-02-21,2024-07-09,2024-02-21,2024-04-04,2024-01-29,2024-07-09,,,SITE001,Dr. Robert Chen,1985,39,YEARS,M,WHITE,NOT HISPANIC OR LATINO,GB40,GB001 40mg QD,GB40,GB001 40mg QD,,,USA
GB001-ASTHMA-201,DM,GB001-ASTHMA-201-SITE001-0118,0118,2024-03-31,2024-04-30,2024-03-31,2024-04-13,2024-03-06,2024-04-30,,,SITE001,Dr. Robert Chen,2000,24,YEARS,M,BLACK OR AFRICAN AMERICAN,HISPANIC OR LATINO,GB40,GB001 40mg QD,GB40,GB001 40mg QD,,,USA
GB001-ASTHMA-201,DM,GB001-ASTHMA-201-SITE001-0121,0121,2024-02-24,2024-07-12,2024-02-24,2024-05-03,2024-02-13,2024-07-12,,,SITE001,Dr. Robert Chen,1978,46,YEARS,F,WHITE,UNKNOWN,PBO,Placebo,PBO,Placebo,,,USA
GB001-ASTHMA-201,DM,GB001-ASTHMA-201-SITE001-0124,0124,,,,,2024-03-23,,,,SITE001,Dr. Robert Chen,1965,59,YEARS,F,WHITE,NOT HISPANIC OR LATINO,,,,,SCREEN FAILURE,,USA
GB001-ASTHMA-201,DM,GB001-ASTHMA-201-SITE001-0127,0127,2024-03-22,2024-03-23,2024-03-22,2024-03-23,2024-03-09,2024-03-23,,,SITE001,Dr. Robert Chen,1978,46,YEARS,M,WHITE,NOT HISPANIC OR LATINO,PBO,Placebo,PBO,Placebo,,,USA
GB001-ASTHMA-201,DM,GB001-ASTHMA-201-SITE001-0130,0130,,,,,2024-03-31,,,,SITE001,Dr. Robert Chen,1972,52,YEARS,M,WHITE,NOT HISPANIC OR LATINO,,,,,SCREEN FAILURE,,USA
GB001-ASTHMA-201,DM,GB001-ASTHMA-201-SITE001-0133,0133,2024-03-07,2024-07-24,2024-03-07,2024-05-08,2024-02-28,2024-07-24,,,SITE001,Dr. Robert Chen,1977,47,YEARS,F,WHITE,NOT HISPANIC OR LATINO,PBO,Placebo,PBO,Placebo,,,USA
GB001-ASTHMA-201,DM,GB001-ASTHMA-201-SITE001-0136,0136,2024-04-15,2024-09-01,2024-04-15,2024-06-02,2024-03-21,2024-09-01,,,SITE001,Dr. Robert Chen,1996,28,YEARS,F,BLACK OR AFRICAN AMERICAN,NOT HISPANIC OR LATINO,PBO,Placebo,PBO,Placebo,,,USA
GB001-ASTHMA-201,DM,GB001-ASTHMA-201-SITE001-0139,0139,2024-05-09,2024-09-25,2024-05-09,2024-06-25,2024-04-05,2024-09-25,,,SITE001,Dr. Robert Chen,1980,44,YEARS,M,BLACK OR AFRICAN AMERICAN,NOT HISPANIC OR LATINO,PBO,Placebo,PBO,Placebo,,,USA
GB001-ASTHMA-201,DM,GB001-ASTHMA-201-SITE001-0142,0142,2024-04-21,2024-09-07,2024-04-21,2024-06-02,2024-03-19,2024-09-07,,,SITE001,Dr. Robert Chen,1998,26,YEARS,M,WHITE,UNKNOWN,GB40,GB001 40mg QD,GB40,GB001 40mg QD,,,USA
GB001-ASTHMA-201,DM,GB001-ASTHMA-201-SITE001-0145,0145,2024-05-14,2024-09-30,2024-05-14,2024-07-01,2024-04-11,2024-09-30,,,SITE001,Dr. Robert Chen,1971,53,YEARS,F,BLACK OR AFRICAN AMERICAN,HISPANIC OR LATINO,GB40,GB001 40mg QD,GB40,GB001 40mg QD,,,USA
GB001-ASTHMA-201,DM,GB001-ASTHMA-201-SITE001-0148,0148,2024-05-09,2024-09-25,2024-05-09,2024-07-31,2024-04-13,2024-09-25,,,SITE001,Dr. Robert Chen,1970,54,YEARS,M,BLACK OR AFRICAN AMERICAN,NOT HISPANIC OR LATINO,GB40,GB001 40mg QD,GB40,GB001 40mg QD,,,USA
GB001-ASTHMA-201,DM,GB001-ASTHMA-201-SITE001-0151,0151,2024-04-12,2024-05-05,2024-04-12,2024-04-22,2024-03-17,2024-05-05,,,SITE001,Dr. Robert Chen,1965,59,YEARS,F,WHITE,NOT HISPANIC OR LATINO,PBO,Placebo,PBO,Placebo,,,USA
GB001-ASTHMA-201,DM,GB001-ASTHMA-201-SITE001-0154,0154,2024-04-04,2024-08-21,2024-04-04,2024-06-02,2024-03-21,2024-08-21,,,SITE001,Dr. Robert Chen,2004,20,YEARS,M,BLACK OR AFRICAN AMERICAN,NOT HISPANIC OR LATINO,GB40,GB001 40mg QD,GB40,GB001 40mg QD,,,USA
GB001-ASTHMA-201,DM,GB001-ASTHMA-201-SITE001-0157,0157,2024-03-07,2024-03-09,2024-03-07,2024-03-08,2024-02-10,2024-03-09,,,SITE001,Dr. Robert Chen,1990,34,YEARS,F,WHITE,HISPANIC OR LATINO,GB40,GB001 40mg QD,GB40,GB001 40mg QD,,,USA
GB001-ASTHMA-201,DM,GB001-ASTHMA-201-SITE001-0160,0160,2024-04-06,2024-04-07,2024-04-06,2024-04-07,2024-03-11,2024-04-07,,,SITE001,Dr. Robert Chen,1956,68,YEARS,F,WHITE,NOT HISPANIC OR LATINO,GB40,GB001 40mg QD,GB40,GB001 40mg QD,,,USA
GB001-ASTHMA-201,DM,GB001-ASTHMA-201-SITE001-0163,0163,2024-03-03,2024-07-20,2024-03-03,2024-05-12,2024-02-02,2024-07-20,,,SITE001,Dr. Robert Chen,1963,61,YEARS,F,BLACK OR AFRICAN AMERICAN,NOT HISPANIC OR LATINO,PBO,Placebo,PBO,Placebo,,,USA
GB001-ASTHMA-201,DM,GB001-ASTHMA-201-SITE001-0166,0166,2024-04-24,2024-05-03,2024-04-24,2024-04-28,2024-04-03,2024-05-03,,,SITE001,Dr. Robert Chen,1969,55,YEARS,F,WHITE,NOT HISPANIC OR LATINO,PBO,Placebo,PBO,Placebo,,,USA
GB001-ASTHMA-201,DM,GB001-ASTHMA-201-SITE001-0169,0169,2024-04-10,2024-08-27,2024-04-10,2024-06-10,2024-04-02,2024-08-27,,,SITE001,Dr. Robert Chen,1978,46,YEARS,F,ASIAN,NOT HISPANIC OR LATINO,GB40,GB001 40mg QD,GB40,GB001 40mg QD,,,USA
GB001-ASTHMA-201,DM,GB001-ASTHMA-201-SITE001-0172,0172,2024-04-05,2024-04-15,2024-04-05,2024-04-13,2024-03-06,2024-04-15,,,SITE001,Dr. Robert Chen,1997,27,YEARS,F,WHITE,NOT HISPANIC OR LATINO,GB40,GB001 40mg QD,GB40,GB001 40mg QD,,,USA
GB001-ASTHMA-201,DM,GB001-ASTHMA-201-SITE001-0175,0175,2024-03-24,2024-08-10,2024-03-24,2024-05-05,2024-02-28,2024-08-10,,,SITE001,Dr. Robert Chen,1968,56,YEARS,M,BLACK OR AFRICAN AMERICAN,NOT HISPANIC OR LATINO,GB40,GB001 40mg QD,GB40,GB001 40mg QD,,,USA
GB001-ASTHMA-201,DM,GB001-ASTHMA-201-SITE001-0178,0178,2024-02-11,2024-06-29,2024-02-11,2024-04-30,2024-02-01,2024-06-29,,,SITE001,Dr. Robert Chen,1986,38,YEARS,M,ASIAN,NOT HISPANIC OR LATINO,PBO,Placebo,PBO,Placebo,,,USA
GB001-ASTHMA-201,DM,GB001-ASTHMA-201-SITE001-0181,0181,2024-02-25,2024-07-13,2024-02-25,2024-04-26,2024-02-10,2024-07-13,,,SITE001,Dr. Robert Chen,1979,45,YEARS,F,OTHER,NOT HISPANIC OR LATINO,GB40,GB001 40mg QD,GB40,GB001 40mg QD,,,USA
GB001-ASTHMA-201,DM,GB001-ASTHMA-201-SITE001-0184,0184,2024-03-23,2024-08-09,2024-03-23,2024-04-30,2024-02-24,2024-08-09,,,SITE001,Dr. Robert Chen,1949,75,YEARS,M,WHITE,NOT HISPANIC OR LATINO,GB40,GB001 40mg QD,GB40,GB001 40mg QD,,,USA
GB001-ASTHMA-201,DM,GB001-ASTHMA-201-SITE001-0187,0187,2024-02-29,2024-03-10,2024-02-29,2024-03-08,2024-02-14,2024-03-10,,,SITE001,Dr. Robert Chen,1956,68,YEARS,F,WHITE,NOT HISPANIC OR LATINO,GB40,GB001 40mg QD,GB40,GB001 40mg QD,,,USA
GB001-ASTHMA-201,DM,GB001-ASTHMA-201-SITE001-0190,0190,2024-02-22,2024-07-10,2024-02-22,2024-04-22,2024-02-02,2024-07-10,,,SITE001,Dr. Robert Chen,2006,18,YEARS,F,WHITE,NOT HISPANIC OR LATINO,PBO,Placebo,PBO,Placebo,,,USA
GB001-ASTHMA-201,DM,GB001-ASTHMA-201-SITE001-0193,0193,2024-04-20,2024-05-10,2024-04-20,2024-05-03,2024-03-20,2024-05-10,,,SITE001,Dr. Robert Chen,1960,64,YEARS,M,WHITE,NOT HISPANIC OR LATINO,PBO,Placebo,PBO,Placebo,,,USA
GB001-ASTHMA-201,DM,GB001-ASTHMA-201-SITE001-0196,0196,2024-03-19,2024-03-20,2024-03-19,2024-03-20,2024-02-24,2024-03-20,,,SITE001,Dr. Robert Chen,1987,37,YEARS,M,WHITE,NOT HISPANIC OR LATINO,GB40,GB001 40mg QD,GB40,GB001 40mg QD,,,USA
GB001-ASTHMA-201,DM,GB001-ASTHMA-201-SITE001-0199,0199,2024-03-07,2024-07-24,2024-03-07,2024-05-10,2024-02-16,2024-07-24,,,SITE001,Dr. Robert Chen,1965,59,YEARS,F,ASIAN,NOT HISPANIC OR LATINO,GB40,GB001 40mg QD,GB40,GB001 40mg QD,,,USA
GB001-ASTHMA-201,DM,GB001-ASTHMA-201-SITE001-0202,0202,2024-02-12,2024-06-30,2024-02-12,2024-03-15,2024-01-26,2024-06-30,,,SITE001,Dr. Robert Chen,1980,44,YEARS,M,BLACK OR AFRICAN AMERICAN,NOT HISPANIC OR LATINO,PBO,Placebo,PBO,Placebo,,,USA
GB001-ASTHMA-201,DM,GB001-ASTHMA-201-SITE001-0205,0205,2024-04-21,2024-09-07,2024-04-21,2024-06-16,2024-04-04,2024-09-07,,,SITE001,Dr. Robert Chen,1977,47,YEARS,F,WHITE,NOT HISPANIC OR LATINO,GB40,GB001 40mg QD,GB40,GB001 40mg QD,,,USA
GB001-ASTHMA-201,DM,GB001-ASTHMA-201-SITE001-0208,0208,2024-03-16,2024-03-17,2024-03-16,2024-03-17,2024-03-06,2024-03-17,,,SITE001,Dr. Robert Chen,1983,41,YEARS,F,BLACK OR AFRICAN AMERICAN,NOT HISPANIC OR LATINO,PBO,Placebo,PBO,Placebo,,,USA
GB001-ASTHMA-201,DM,GB001-ASTHMA-201-SITE001-0211,0211,2024-03-23,2024-08-09,2024-03-23,2024-05-27,2024-03-03,2024-08-09,,,SITE001,Dr. Robert Chen,1979,45,YEARS,M,WHITE,NOT HISPANIC OR LATINO,PBO,Placebo,PBO,Placebo,,,USA
GB001-ASTHMA-201,DM,GB001-ASTHMA-201-SITE001-0214,0214,2024-03-01,2024-07-18,2024-03-01,2024-05-06,2024-02-17,2024-07-18,,,SITE001,Dr. Robert Chen,1980,44,YEARS,F,WHITE,NOT HISPANIC OR LATINO,PBO,Placebo,PBO,Placebo,,,USA
GB001-ASTHMA-201,DM,GB001-ASTHMA-201-SITE001-0217,0217,2024-03-21,2024-08-07,2024-03-21,2024-05-20,2024-02-17,2024-08-07,,,SITE001,Dr. Robert Chen,1984,40,YEARS,M,OTHER,NOT HISPANIC OR LATINO,GB40,GB001 40mg QD,GB40,GB001 40mg QD,,,USA
GB001-ASTHMA-201,DM,GB001-ASTHMA-201-SITE001-0220,0220,2024-03-11,2024-07-28,2024-03-11,2024-04-25,2024-02-25,2024-07-28,,,SITE001,Dr. Robert Chen,1983,41,YEARS,F,WHITE,NOT HISPANIC OR LATINO,PBO,Placebo,PBO,Placebo,,,USA
GB001-ASTHMA-201,DM,GB001-ASTHMA-201-SITE001-0223,0223,2024-01-30,2024-02-16,2024-01-30,2024-02-13,2024-01-21,2024-02-16,,,SITE001,Dr. Robert Chen,1976,48,YEARS,F,WHITE,NOT HISPANIC OR LATINO,GB40,GB001 40mg QD,GB40,GB001 40mg QD,,,USA
GB001-ASTHMA-201,DM,GB001-ASTHMA-201-SITE001-0226,0226,2024-02-09,2024-06-27,2024-02-09,2024-03-22,2024-01-29,2024-06-27,,,SITE001,Dr. Robert Chen,1949,75,YEARS,M,WHITE,NOT HISPANIC OR LATINO,GB40,GB001 40mg QD,GB40,GB001 40mg QD,,,USA
GB001-ASTHMA-201,DM,GB001-ASTHMA-201-SITE001-0229,0229,,,,,2024-03-21,,,,SITE001,Dr. Robert Chen,1983,41,YEARS,M,WHITE,NOT HISPANIC OR LATINO,,,,,SCREEN FAILURE,,USA
GB001-ASTHMA-201,DM,GB001-ASTHMA-201-SITE001-0232,0232,2024-03-29,2024-05-17,2024-03-29,2024-05-12,2024-02-24,2024-05-17,,,SITE001,Dr. Robert Chen,1955,69,YEARS,M,WHITE,NOT HISPANIC OR LATINO,GB40,GB001 40mg QD,GB40,GB001 40mg QD,,,USA
GB001-ASTHMA-201,DM,GB001-ASTHMA-201-SITE001-0235,0235,,,,,2024-01-20,,,,SITE001,Dr. Robert Chen,1991,33,YEARS,M,BLACK OR AFRICAN AMERICAN,NOT HISPANIC OR LATINO,,,,,SCREEN FAILURE,,USA
GB001-ASTHMA-201,DM,GB001-ASTHMA-201-SITE001-0238,0238,2024-02-09,2024-06-27,2024-02-09,2024-03-23,2024-02-02,2024-06-27,,,SITE001,Dr. Robert Chen,1980,44,YEARS,M,WHITE,NOT HISPANIC OR LATINO,PBO,Placebo,PBO,Placebo,,,USA
GB001-ASTHMA-201,DM,GB001-ASTHMA-201-SITE001-0241,0241,2024-03-18,2024-08-04,2024-03-18,2024-06-03,2024-02-19,2024-08-04,,,SITE001,Dr. Robert Chen,1988,36,YEARS,M,WHITE,NOT HISPANIC OR LATINO,GB40,GB001 40mg QD,GB40,GB001 40mg QD,,,USA
GB001-ASTHMA-201,DM,GB001-ASTHMA-201-SITE001-0244,0244,2024-04-08,2024-08-25,2024-04-08,2024-06-21,2024-03-13,2024-08-25,,,SITE001,Dr. Robert Chen,1955,69,YEARS,F,WHITE,NOT HISPANIC OR LATINO,GB40,GB001 40mg QD,GB40,GB001 40mg QD,,,USA
GB001-ASTHMA-201,DM,GB001-ASTHMA-201-SITE001-0247,0247,2024-02-29,2024-07-17,2024-02-29,2024-05-03,2024-02-13,2024-07-17,,,SITE001,Dr. Robert Chen,1974,50,YEARS,M,BLACK OR AFRICAN AMERICAN,NOT HISPANIC OR LATINO,GB40,GB001 40mg QD,GB40,GB001 40mg QD,,,USA
GB001-ASTHMA-201,DM,GB001-ASTHMA-201-SITE001-0250,0250,2024-03-18,2024-08-04,2024-03-18,2024-05-18,2024-02-20,2024-08-04,,,SITE001,Dr. Robert Chen,2006,18,YEARS,M,WHITE,NOT HISPANIC OR LATINO,GB40,GB001 40mg QD,GB40,GB001 40mg QD,,,USA
GB001-ASTHMA-201,DM,GB001-ASTHMA-201-SITE001-0253,0253,2024-04-13,2024-08-30,2024-04-13,2024-06-17,2024-03-26,2024-08-30,,,SITE001,Dr. Robert Chen,1978,46,YEARS,F,WHITE,UNKNOWN,GB40,GB001 40mg QD,GB40,GB001 40mg QD,,,USA
GB001-ASTHMA-201,DM,GB001-ASTHMA-201-SITE001-0256,0256,2024-04-16,2024-04-17,2024-04-16,2024-04-17,2024-04-07,2024-04-17,,,SITE001,Dr. Robert Chen,1979,45,YEARS,M,WHITE,NOT HISPANIC OR LATINO,PBO,Placebo,PBO,Placebo,,,USA
GB001-ASTHMA-201,DM,GB001-ASTHMA-201-SITE001-0259,0259,2024-04-05,2024-08-22,2024-04-05,2024-06-16,2024-03-09,2024-08-22,,,SITE001,Dr. Robert Chen,1966,58,YEARS,M,ASIAN,NOT HISPANIC OR LATINO,PBO,Placebo,PBO,Placebo,,,USA
GB001-ASTHMA-201,DM,GB001-ASTHMA-201-SITE001-0262,0262,2024-03-19,2024-08-05,2024-03-19,2024-06-10,2024-03-10,2024-08-05,,,SITE001,Dr. Robert Chen,1950,74,YEARS,M,ASIAN,NOT HISPANIC OR LATINO,PBO,Placebo,PBO,Placebo,,,USA
GB001-ASTHMA-201,DM,GB001-ASTHMA-201-SITE001-0265,0265,2024-02-22,2024-07-10,2024-02-22,2024-04-08,2024-02-13,2024-07-10,,,SITE001,Dr. Robert Chen,1973,51,YEARS,M,WHITE,NOT HISPANIC OR LATINO,GB40,GB001 40mg QD,GB40,GB001 40mg QD,,,USA
GB001-ASTHMA-201,DM,GB001-ASTHMA-201-SITE001-0268,0268,2024-05-01,2024-09-17,2024-05-01,2024-07-12,2024-04-03,2024-09-17,,,SITE001,Dr. Robert Chen,1982,42,YEARS,M,WHITE,NOT HISPANIC OR LATINO,PBO,Placebo,PBO,Placebo,,,USA
GB001-ASTHMA-201,DM,GB001-ASTHMA-201-SITE001-0271,0271,2024-02-26,2024-02-28,2024-02-26,2024-02-27,2024-02-07,2024-02-28,,,SITE001,Dr. Robert Chen,1978,46,YEARS,F,BLACK OR AFRICAN AMERICAN,HISPANIC OR LATINO,PBO,Placebo,PBO,Placebo,,,USA
GB001-ASTHMA-201,DM,GB001-ASTHMA-201-SITE001-0274,0274,2024-01-28,2024-06-15,2024-01-28,2024-03-31,2024-01-16,2024-06-15,,,SITE001,Dr. Robert Chen,2005,19,YEARS,F,WHITE,NOT HISPANIC OR LATINO,GB40,GB001 40mg QD,GB40,GB001 40mg QD,,,USA
GB001-ASTHMA-201,DM,GB001-ASTHMA-201-SITE001-0277,0277,2024-03-16,2024-08-02,2024-03-16,2024-04-30,2024-02-28,2024-08-02,,,SITE001,Dr. Robert Chen,2000,24,YEARS,F,BLACK OR AFRICAN AMERICAN,NOT HISPANIC OR LATINO,GB40,GB001 40mg QD,GB40,GB001 40mg QD,,,USA
GB001-ASTHMA-201,DM,GB001-ASTHMA-201-SITE001-0280,0280,,,,,2024-03-22,,,,SITE001,Dr. Robert Chen,1980,44,YEARS,M,WHITE,NOT HISPANIC OR LATINO,,,,,SCREEN FAILURE,,USA
GB001-ASTHMA-201,DM,GB001-ASTHMA-201-SITE001-0283,0283,2024-04-02,2024-08-19,2024-04-02,2024-05-31,2024-03-03,2024-08-19,,,SITE001,Dr. Robert Chen,1997,27,YEARS,M,WHITE,HISPANIC OR LATINO,GB40,GB001 40mg QD,GB40,GB001 40mg QD,,,USA
GB001-ASTHMA-201,DM,GB001-ASTHMA-201-SITE001-0286,0286,2024-04-19,2024-04-23,2024-04-19,2024-04-21,2024-03-31,2024-04-23,,,SITE001,Dr. Robert Chen,1962,62,YEARS,F,WHITE,HISPANIC OR LATINO,GB40,GB001 40mg QD,GB40,GB001 40mg QD,,,USA
GB001-ASTHMA-201,DM,GB001-ASTHMA-201-SITE001-0289,0289,2024-04-10,2024-08-27,2024-04-10,2024-07-02,2024-03-13,2024-08-27,,,SITE001,Dr. Robert Chen,1953,71,YEARS,F,BLACK OR AFRICAN AMERICAN,NOT HISPANIC OR LATINO,PBO,Placebo,PBO,Placebo,,,USA
GB001-ASTHMA-201,DM,GB001-ASTHMA-201-SITE001-0292,0292,2024-03-01,2024-07-18,2024-03-01,2024-04-30,2024-01-26,2024-07-18,,,SITE001,Dr. Robert Chen,1994,30,YEARS,F,WHITE,NOT HISPANIC OR LATINO,PBO,Placebo,PBO,Placebo,,,USA
GB001-ASTHMA-201,DM,GB001-ASTHMA-201-SITE001-0295,0295,2024-04-16,2024-09-02,2024-04-16,2024-06-22,2024-03-30,2024-09-02,,,SITE001,Dr. Robert Chen,1982,42,YEARS,F,WHITE,NOT HISPANIC OR LATINO,PBO,Placebo,PBO,Placebo,,,USA
GB001-ASTHMA-201,DM,GB001-ASTHMA-201-SITE001-0298,0298,2024-03-31,2024-08-17,2024-03-31,2024-05-18,2024-03-08,2024-08-17,,,SITE001,Dr. Robert Chen,1995,29,YEARS,F,WHITE,NOT HISPANIC OR LATINO,GB40,GB001 40mg QD,GB40,GB001 40mg QD,,,USA
GB001-ASTHMA-201,DM,GB001-ASTHMA-201-SITE001-0301,0301,2024-04-17,2024-09-03,2024-04-17,2024-05-28,2024-04-06,2024-09-03,,,SITE001,Dr. Robert Chen,1997,27,YEARS,F,BLACK OR AFRICAN AMERICAN,NOT HISPANIC OR LATINO,PBO,Placebo,PBO,Placebo,,,USA
GB001-ASTHMA-201,DM,GB001-ASTHMA-201-SITE001-0304,0304,2024-02-23,2024-07-11,2024-02-23,2024-04-01,2024-02-06,2024-07-11,,,SITE001,Dr. Robert Chen,1973,51,YEARS,F,WHITE,NOT HISPANIC OR LATINO,GB40,GB001 40mg QD,GB40,GB001 40mg QD,,,USA
GB001-ASTHMA-201,DM,GB001-ASTHMA-201-SITE001-0307,0307,,,,,2024-03-18,,,,SITE001,Dr. Robert Chen,1988,36,YEARS,F,BLACK OR AFRICAN AMERICAN,NOT HISPANIC OR LATINO,,,,,SCREEN FAILURE,,USA
GB001-ASTHMA-201,DM,GB001-ASTHMA-201-SITE001-0310,0310,2024-03-30,2024-08-16,2024-03-30,2024-06-15,2024-03-10,2024-08-16,,,SITE001,Dr. Robert Chen,1997,27,YEARS,F,WHITE,NOT HISPANIC OR LATINO,PBO,Placebo,PBO,Placebo,,,USA
GB001-ASTHMA-201,DM,GB001-ASTHMA-201-SITE001-0313,0313,,,,,2024-03-13,,,,SITE001,Dr. Robert Chen,1968,56,YEARS,M,WHITE,HISPANIC OR LATINO,,,,,SCREEN FAILURE,,USA
GB001-ASTHMA-201,DM,GB001-ASTHMA-201-SITE001-0316,0316,2024-03-11,2024-07-28,2024-03-11,2024-05-09,2024-02-21,2024-07-28,,,SITE001,Dr. Robert Chen,1952,72,YEARS,M,OTHER,NOT HISPANIC OR LATINO,GB40,GB001 40mg QD,GB40,GB001 40mg QD,,,USA
GB001-ASTHMA-201,DM,GB001-ASTHMA-201-SITE001-0319,0319,2024-02-03,2024-06-21,2024-02-03,2024-04-11,2024-01-23,2024-06-21,,,SITE001,Dr. Robert Chen,1971,53,YEARS,F,WHITE,NOT HISPANIC OR LATINO,PBO,Placebo,PBO,Placebo,,,USA
GB001-ASTHMA-201,DM,GB001-ASTHMA-201-SITE001-0322,0322,2024-04-21,2024-09-07,2024-04-21,2024-07-05,2024-03-25,2024-09-07,,,SITE001,Dr. Robert Chen,1970,54,YEARS,F,WHITE,HISPANIC OR LATINO,GB40,GB001 40mg QD,GB40,GB001 40mg QD,,,USA
GB001-ASTHMA-201,DM,GB001-ASTHMA-201-SITE001-0325,0325,2024-03-29,2024-08-15,2024-03-29,2024-05-09,2024-02-27,2024-08-15,,,SITE001,Dr. Robert Chen,1999,25,YEARS,F,WHITE,NOT HISPANIC OR LATINO,GB40,GB001 40mg QD,GB40,GB001 40mg QD,,,USA
GB001-ASTHMA-201,DM,GB001-ASTHMA-201-SITE001-0328,0328,2024-04-01,2024-08-18,2024-04-01,2024-04-30,2024-03-25,2024-08-18,,,SITE001,Dr. Robert Chen,1978,46,YEARS,F,ASIAN,NOT HISPANIC OR LATINO,GB40,GB001 40mg QD,GB40,GB001 40mg QD,,,USA
GB001-ASTHMA-201,DM,GB001-ASTHMA-201-SITE001-0331,0331,2024-03-27,2024-08-13,2024-03-27,2024-05-02,2024-03-11,2024-08-13,,,SITE001,Dr. Robert Chen,1996,28,YEARS,M,BLACK OR AFRICAN AMERICAN,HISPANIC OR LATINO,PBO,Placebo,PBO,Placebo,,,USA
GB001-ASTHMA-201,DM,GB001-ASTHMA-201-SITE001-0334,0334,2024-02-14,2024-07-02,2024-02-14,2024-05-07,2024-01-17,2024-07-02,,,SITE001,Dr. Robert Chen,2006,18,YEARS,M,WHITE,NOT HISPANIC OR LATINO,GB40,GB001 40mg QD,GB40,GB001 40mg QD,,,USA
GB001-ASTHMA-201,DM,GB001-ASTHMA-201-SITE001-0337,0337,2024-04-08,2024-08-25,2024-04-08,2024-05-26,2024-03-22,2024-08-25,,,SITE001,Dr. Robert Chen,2006,18,YEARS,M,WHITE,NOT HISPANIC OR LATINO,PBO,Placebo,PBO,Placebo,,,USA
GB001-ASTHMA-201,DM,GB001-ASTHMA-201-SITE001-0340,0340,2024-04-11,2024-08-28,2024-04-11,2024-06-03,2024-04-02,2024-08-28,,,SITE001,Dr. Robert Chen,1969,55,YEARS,F,WHITE,NOT HISPANIC OR LATINO,PBO,Placebo,PBO,Placebo,,,USA
GB001-ASTHMA-201,DM,GB001-ASTHMA-201-SITE001-0343,0343,2024-02-25,2024-07-13,2024-02-25,2024-04-08,2024-02-03,2024-07-13,,,SITE001,Dr. Robert Chen,1994,30,YEARS,F,WHITE,HISPANIC OR LATINO,GB40,GB001 40mg QD,GB40,GB001 40mg QD,,,USA
GB001-ASTHMA-201,DM,GB001-ASTHMA-201-SITE001-0346,0346,2024-02-23,2024-07-11,2024-02-23,2024-04-22,2024-01-24,2024-07-11,,,SITE001,Dr. Robert Chen,1975,49,YEARS,M,WHITE,NOT HISPANIC OR LATINO,GB40,GB001 40mg QD,GB40,GB001 40mg QD,,,USA
GB001-ASTHMA-201,DM,GB001-ASTHMA-201-SITE001-0349,0349,2024-04-15,2024-09-01,2024-04-15,2024-07-02,2024-03-22,2024-09-01,,,SITE001,Dr. Robert Chen,1973,51,YEARS,M,BLACK OR AFRICAN AMERICAN,NOT HISPANIC OR LATINO,GB40,GB001 40mg QD,GB40,GB001 40mg QD,,,USA
GB001-ASTHMA-201,DM,GB001-ASTHMA-201-SITE001-0352,0352,2024-04-14,2024-08-31,2024-04-14,2024-06-15,2024-03-31,2024-08-31,,,SITE001,Dr. Robert Chen,1969,55,YEARS,M,WHITE,NOT HISPANIC OR LATINO,GB40,GB001 40mg QD,GB40,GB001 40mg QD,,,USA
GB001-ASTHMA-201,DM,GB001-ASTHMA-201-SITE001-0355,0355,2024-03-07,2024-07-24,2024-03-07,2024-05-27,2024-02-13,2024-07-24,,,SITE001,Dr. Robert Chen,1997,27,YEARS,M,BLACK OR AFRICAN AMERICAN,NOT HISPANIC OR LATINO,PBO,Placebo,PBO,Placebo,,,USA
GB001-ASTHMA-201,DM,GB001-ASTHMA-201-SITE001-0358,0358,2024-01-23,2024-06-10,2024-01-23,2024-04-15,2024-01-15,2024-06-10,,,SITE001,Dr. Robert Chen,2000,24,YEARS,F,WHITE,NOT HISPANIC OR LATINO,GB40,GB001 40mg QD,GB40,GB001 40mg QD,,,USA
GB001-ASTHMA-201,DM,GB001-ASTHMA-201-SITE001-0361,0361,2024-04-14,2024-08-31,2024-04-14,2024-05-25,2024-03-27,2024-08-31,,,SITE001,Dr. Robert Chen,1975,49,YEARS,M,WHITE,NOT HISPANIC OR LATINO,PBO,Placebo,PBO,Placebo,,,USA
GB001-ASTHMA-201,DM,GB001-ASTHMA-201-SITE001-0364,0364,2024-04-07,2024-08-24,2024-04-07,2024-05-29,2024-03-05,2024-08-24,,,SITE001,Dr. Robert Chen,2000,24,YEARS,F,BLACK OR AFRICAN AMERICAN,HISPANIC OR LATINO,GB40,GB001 40mg QD,GB40,GB001 40mg QD,,,USA
GB001-ASTHMA-201,DM,GB001-ASTHMA-201-SITE001-0367,0367,2024-04-10,2024-08-27,2024-04-10,2024-05-31,2024-03-07,2024-08-27,,,SITE001,Dr. Robert Chen,1986,38,YEARS,F,BLACK OR AFRICAN AMERICAN,HISPANIC OR LATINO,PBO,Placebo,PBO,Placebo,,,USA
GB001-ASTHMA-201,DM,GB001-ASTHMA-201-SITE001-0370,0370,2024-03-25,2024-08-11,2024-03-25,2024-05-07,2024-02-24,2024-08-11,,,SITE001,Dr. Robert Chen,1983,41,YEARS,F,WHITE,NOT HISPANIC OR LATINO,GB40,GB001 40mg QD,GB40,GB001 40mg QD,,,USA
GB001-ASTHMA-201,DM,GB001-ASTHMA-201-SITE001-0373,0373,2024-03-20,2024-08-06,2024-03-20,2024-06-06,2024-02-23,2024-08-06,,,SITE001,Dr. Robert Chen,1982,42,YEARS,M,WHITE,NOT HISPANIC OR LATINO,PBO,Placebo,PBO,Placebo,,,USA
GB001-ASTHMA-201,DM,GB001-ASTHMA-201-SITE001-0376,0376,2024-04-02,2024-08-19,2024-04-02,2024-05-15,2024-03-10,2024-08-19,,,SITE001,Dr. Robert Chen,1981,43,YEARS,M,WHITE,NOT HISPANIC OR LATINO,GB40,GB001 40mg QD,GB40,GB001 40mg QD,,,USA
GB001-ASTHMA-201,DM,GB001-ASTHMA-201-SITE001-0379,0379,2024-05-05,2024-09-21,2024-05-05,2024-06-10,2024-04-01,2024-09-21,,,SITE001,Dr. Robert Chen,1977,47,YEARS,M,ASIAN,NOT HISPANIC OR LATINO,PBO,Placebo,PBO,Placebo,,,USA
GB001-ASTHMA-201,DM,GB001-ASTHMA-201-SITE001-0382,0382,2024-04-15,2024-09-01,2024-04-15,2024-06-16,2024-03-15,2024-09-01,,,SITE001,Dr. Robert Chen,2006,18,YEARS,F,BLACK OR AFRICAN AMERICAN,NOT HISPANIC OR LATINO,GB40,GB001 40mg QD,GB40,GB001 40mg QD,,,USA
GB001-ASTHMA-201,DM,GB001-ASTHMA-201-SITE001-0385,0385,2024-03-10,2024-07-27,2024-03-10,2024-04-24,2024-02-20,2024-07-27,,,SITE001,Dr. Robert Chen,1973,51,YEARS,M,WHITE,NOT HISPANIC OR LATINO,PBO,Placebo,PBO,Placebo,,,USA
GB001-ASTHMA-201,DM,GB001-ASTHMA-201-SITE001-0388,0388,2024-05-10,2024-09-26,2024-05-10,2024-07-06,2024-04-11,2024-09-26,,,SITE001,Dr. Robert Chen,1979,45,YEARS,F,WHITE,NOT HISPANIC OR LATINO,GB40,GB001 40mg QD,GB40,GB001 40mg QD,,,USA
GB001-ASTHMA-201,DM,GB001-ASTHMA-201-SITE001-0391,0391,2024-02-09,2024-02-15,2024-02-09,2024-02-14,2024-01-27,2024-02-15,,,SITE001,Dr. Robert Chen,1960,64,YEARS,F,WHITE,NOT HISPANIC OR LATINO,PBO,Placebo,PBO,Placebo,,,USA
GB001-ASTHMA-201,DM,GB001-ASTHMA-201-SITE001-0394,0394,2024-04-13,2024-08-30,2024-04-13,2024-05-31,2024-03-25,2024-08-30,,,SITE001,Dr. Robert Chen,1959,65,YEARS,F,WHITE,NOT HISPANIC OR LATINO,GB40,GB001 40mg QD,GB40,GB001 40mg QD,,,USA
GB001-ASTHMA-201,DM,GB001-ASTHMA-201-SITE001-0397,0397,2024-02-03,2024-06-21,2024-02-03,2024-03-30,2024-01-21,2024-06-21,,,SITE001,Dr. Robert Chen,1960,64,YEARS,F,OTHER,UNKNOWN,PBO,Placebo,PBO,Placebo,,,USA
GB001-ASTHMA-201,DM,GB001-ASTHMA-201-SITE001-0400,0400,2024-05-04,2024-09-20,2024-05-04,2024-06-26,2024-04-14,2024-09-20,,,SITE001,Dr. Robert Chen,1967,57,YEARS,M,WHITE,NOT HISPANIC OR LATINO,GB40,GB001 40mg QD,GB40,GB001 40mg QD,,,USA
GB001-ASTHMA-201,DM,GB001-ASTHMA-201-SITE001-0403,0403,2024-03-07,2024-07-24,2024-03-07,2024-04-20,2024-02-07,2024-07-24,,,SITE001,Dr. Robert Chen,1971,53,YEARS,M,WHITE,NOT HISPANIC OR LATINO,GB40,GB001 40mg QD,GB40,GB001 40mg QD,,,USA
GB001-ASTHMA-201,DM,GB001-ASTHMA-201-SITE001-0406,0406,2024-04-11,2024-08-28,2024-04-11,2024-06-17,2024-03-30,2024-08-28,,,SITE001,Dr. Robert Chen,1972,52,YEARS,F,WHITE,NOT HISPANIC OR LATINO,GB40,GB001 40mg QD,GB40,GB001 40mg QD,,,USA
GB001-ASTHMA-201,DM,GB001-ASTHMA-201-SITE001-0409,0409,2024-03-08,2024-05-10,2024-03-08,2024-05-04,2024-02-24,2024-05-10,,,SITE001,Dr. Robert Chen,1971,53,YEARS,F,WHITE,UNKNOWN,GB40,GB001 40mg QD,GB40,GB001 40mg QD,,,USA
GB001-ASTHMA-201,DM,GB001-ASTHMA-201-SITE001-0412,0412,2024-02-26,2024-07-14,2024-02-26,2024-04-13,2024-01-29,2024-07-14,,,SITE001,Dr. Robert Chen,1974,50,YEARS,M,OTHER,NOT HISPANIC OR LATINO,PBO,Placebo,PBO,Placebo,,,USA
GB001-ASTHMA-201,DM,GB001-ASTHMA-201-SITE001-0415,0415,2024-03-02,2024-07-19,2024-03-02,2024-04-25,2024-02-01,2024-07-19,,,SITE001,Dr. Robert Chen,1970,54,YEARS,M,WHITE,NOT HISPANIC OR LATINO,GB40,GB001 40mg QD,GB40,GB001 40mg QD,,,USA
GB001-ASTHMA-201,DM,GB001-ASTHMA-201-SITE001-0418,0418,2024-03-11,2024-07-28,2024-03-11,2024-05-16,2024-02-28,2024-07-28,,,SITE001,Dr. Robert Chen,1984,40,YEARS,M,WHITE,HISPANIC OR LATINO,PBO,Placebo,PBO,Placebo,,,USA
GB001-ASTHMA-201,DM,GB001-ASTHMA-201-SITE001-0421,0421,2024-03-16,2024-08-02,2024-03-16,2024-06-02,2024-03-08,2024-08-02,,,SITE001,Dr. Robert Chen,1961,63,YEARS,F,WHITE,UNKNOWN,GB40,GB001 40mg QD,GB40,GB001 40mg QD,,,USA
GB001-ASTHMA-201,DM,GB001-ASTHMA-201-SITE001-0424,0424,,,,,2024-04-04,,,,SITE001,Dr. Robert Chen,1949,75,YEARS,M,ASIAN,NOT HISPANIC OR LATINO,,,,,SCREEN FAILURE,,USA
GB001-ASTHMA-201,DM,GB001-ASTHMA-201-SITE001-0427,0427,2024-03-21,2024-08-07,2024-03-21,2024-05-30,2024-02-15,2024-08-07,,,SITE001,Dr. Robert Chen,1987,37,YEARS,M,BLACK OR AFRICAN AMERICAN,NOT HISPANIC OR LATINO,GB40,GB001 40mg QD,GB40,GB001 40mg QD,,,USA
GB001-ASTHMA-201,DM,GB001-ASTHMA-201-SITE001-0430,0430,2024-04-19,2024-09-05,2024-04-19,2024-07-06,2024-03-29,2024-09-05,,,SITE001,Dr. Robert Chen,1966,58,YEARS,F,BLACK OR AFRICAN AMERICAN,NOT HISPANIC OR LATINO,GB40,GB001 40mg QD,GB40,GB001 40mg QD,,,USA
GB001-ASTHMA-201,DM,GB001-ASTHMA-201-SITE001-0433,0433,2024-02-25,2024-02-25,2024-02-25,2024-02-25,2024-02-15,2024-02-25,,,SITE001,Dr. Robert Chen,1987,37,YEARS,F,WHITE,NOT HISPANIC OR LATINO,GB40,GB001 40mg QD,GB40,GB001 40mg QD,,,USA
GB001-ASTHMA-201,DM,GB001-ASTHMA-201-SITE001-0436,0436,2024-03-15,2024-08-01,2024-03-15,2024-05-06,2024-02-25,2024-08-01,,,SITE001,Dr. Robert Chen,1965,59,YEARS,F,WHITE,NOT HISPANIC OR LATINO,PBO,Placebo,PBO,Placebo,,,USA
GB001-ASTHMA-201,DM,GB001-ASTHMA-201-SITE001-0439,0439,2024-04-29,2024-09-15,2024-04-29,2024-07-01,2024-04-05,2024-09-15,,,SITE001,Dr. Robert Chen,1968,56,YEARS,F,WHITE,NOT HISPANIC OR LATINO,GB40,GB001 40mg QD,GB40,GB001 40mg QD,,,USA
GB001-ASTHMA-201,DM,GB001-ASTHMA-201-SITE001-0442,0442,2024-03-17,2024-03-18,2024-03-17,2024-03-18,2024-02-28,2024-03-18,,,SITE001,Dr. Robert Chen,1959,65,YEARS,M,WHITE,NOT HISPANIC OR LATINO,PBO,Placebo,PBO,Placebo,,,USA
GB001-ASTHMA-201,DM,GB001-ASTHMA-201-SITE001-0445,0445,2024-03-22,2024-03-23,2024-03-22,2024-03-23,2024-02-23,2024-03-23,,,SITE001,Dr. Robert Chen,1987,37,YEARS,F,ASIAN,NOT HISPANIC OR LATINO,GB40,GB001 40mg QD,GB40,GB001 40mg QD,,,USA
GB001-ASTHMA-201,DM,GB001-ASTHMA-201-SITE001-0448,0448,2024-05-13,2024-06-13,2024-05-13,2024-06-08,2024-04-10,2024-06-13,,,SITE001,Dr. Robert Chen,2000,24,YEARS,M,BLACK OR AFRICAN AMERICAN,NOT HISPANIC OR LATINO,GB40,GB001 40mg QD,GB40,GB001 40mg QD,,,USA
GB001-ASTHMA-201,DM,GB001-ASTHMA-201-SITE001-0451,0451,2024-02-15,2024-07-03,2024-02-15,2024-05-04,2024-01-27,2024-07-03,,,SITE001,Dr. Robert Chen,1999,25,YEARS,F,WHITE,NOT HISPANIC OR LATINO,GB40,GB001 40mg QD,GB40,GB001 40mg QD,,,USA
GB001-ASTHMA-201,DM,GB001-ASTHMA-201-SITE001-0454,0454,2024-03-26,2024-08-12,2024-03-26,2024-05-03,2024-02-21,2024-08-12,,,SITE001,Dr. Robert Chen,1994,30,YEARS,M,WHITE,NOT HISPANIC OR LATINO,GB40,GB001 40mg QD,GB40,GB001 40mg QD,,,USA
GB001-ASTHMA-201,DM,GB001-ASTHMA-201-SITE001-0457,0457,2024-04-19,2024-09-05,2024-04-19,2024-05-30,2024-03-25,2024-09-05,,,SITE001,Dr. Robert Chen,1991,33,YEARS,F,WHITE,NOT HISPANIC OR LATINO,GB40,GB001 40mg QD,GB40,GB001 40mg QD,,,USA
GB001-ASTHMA-201,DM,GB001-ASTHMA-201-SITE001-0460,0460,2024-03-13,2024-07-30,2024-03-13,2024-04-08,2024-02-27,2024-07-30,,,SITE001,Dr. Robert Chen,1985,39,YEARS,M,WHITE,NOT HISPANIC OR LATINO,GB40,GB001 40mg QD,GB40,GB001 40mg QD,,,USA
GB001-ASTHMA-201,DM,GB001-ASTHMA-201-SITE001-0463,0463,2024-04-11,2024-04-14,2024-04-11,2024-04-12,2024-03-10,2024-04-14,,,SITE001,Dr. Robert Chen,1990,34,YEARS,M,OTHER,HISPANIC OR LATINO,GB40,GB001 40mg QD,GB40,GB001 40mg QD,,,USA
GB001-ASTHMA-201,DM,GB001-ASTHMA-201-SITE001-0466,0466,2024-03-16,2024-08-02,2024-03-16,2024-05-27,2024-02-10,2024-08-02,,,SITE001,Dr. Robert Chen,1985,39,YEARS,F,WHITE,NOT HISPANIC OR LATINO,GB40,GB001 40mg QD,GB40,GB001 40mg QD,,,USA
GB001-ASTHMA-201,DM,GB001-ASTHMA-201-SITE001-0469,0469,2024-02-01,2024-06-19,2024-02-01,2024-04-17,2024-01-18,2024-06-19,,,SITE001,Dr. Robert Chen,1991,33,YEARS,F,WHITE,NOT HISPANIC OR LATINO,PBO,Placebo,PBO,Placebo,,,USA
GB001-ASTHMA-201,DM,GB001-ASTHMA-201-SITE001-0472,0472,2024-02-24,2024-07-12,2024-02-24,2024-04-06,2024-02-06,2024-07-12,,,SITE001,Dr. Robert Chen,1980,44,YEARS,F,WHITE,NOT HISPANIC OR LATINO,GB40,GB001 40mg QD,GB40,GB001 40mg QD,,,USA
GB001-ASTHMA-201,DM,GB001-ASTHMA-201-SITE001-0475,0475,2024-04-24,2024-09-10,2024-04-24,2024-07-06,2024-03-31,2024-09-10,,,SITE001,Dr. Robert Chen,1951,73,YEARS,M,ASIAN,NOT HISPANIC OR LATINO,GB40,GB001 40mg QD,GB40,GB001 40mg QD,,,USA
GB001-ASTHMA-201,DM,GB001-ASTHMA-201-SITE001-0478,0478,2024-02-01,2024-04-05,2024-02-01,2024-03-14,2024-01-23,2024-04-05,,,SITE001,Dr. Robert Chen,1963,61,YEARS,M,WHITE,NOT HISPANIC OR LATINO,GB40,GB001 40mg QD,GB40,GB001 40mg QD,,,USA
GB001-ASTHMA-201,DM,GB001-ASTHMA-201-SITE001-0481,0481,2024-02-09,2024-06-27,2024-02-09,2024-03-12,2024-02-01,2024-06-27,,,SITE001,Dr. Robert Chen,1976,48,YEARS,F,BLACK OR AFRICAN AMERICAN,NOT HISPANIC OR LATINO,GB40,GB001 40mg QD,GB40,GB001 40mg QD,,,USA
GB001-ASTHMA-201,DM,GB001-ASTHMA-201-SITE001-0484,0484,2024-03-04,2024-07-21,2024-03-04,2024-04-08,2024-01-29,2024-07-21,,,SITE001,Dr. Robert Chen,1957,67,YEARS,F,WHITE,NOT HISPANIC OR LATINO,GB40,GB001 40mg QD,GB40,GB001 40mg QD,,,USA
GB001-ASTHMA-201,DM,GB001-ASTHMA-201-SITE001-0487,0487,2024-03-15,2024-08-01,2024-03-15,2024-05-10,2024-02-17,2024-08-01,,,SITE001,Dr. Robert Chen,1989,35,YEARS,M,BLACK OR AFRICAN AMERICAN,NOT HISPANIC OR LATINO,PBO,Placebo,PBO,Placebo,,,USA
GB001-ASTHMA-201,DM,GB001-ASTHMA-201-SITE001-0490,0490,2024-02-05,2024-06-23,2024-02-05,2024-03-03,2024-01-17,2024-06-23,,,SITE001,Dr. Robert Chen,1988,36,YEARS,M,WHITE,NOT HISPANIC OR LATINO,PBO,Placebo,PBO,Placebo,,,USA
GB001-ASTHMA-201,DM,GB001-ASTHMA-201-SITE001-0493,0493,2024-04-24,2024-05-06,2024-04-24,2024-05-01,2024-04-08,2024-05-06,,,SITE001,Dr. Robert Chen,1983,41,YEARS,F,WHITE,NOT HISPANIC OR LATINO,PBO,Placebo,PBO,Placebo,,,USA
GB001-ASTHMA-201,DM,GB001-ASTHMA-201-SITE001-0496,0496,2024-03-03,2024-07-20,2024-03-03,2024-05-21,2024-02-13,2024-07-20,,,SITE001,Dr. Robert Chen,1988,36,YEARS,F,WHITE,NOT HISPANIC OR LATINO,PBO,Placebo,PBO,Placebo,,,USA
GB001-ASTHMA-201,DM,GB001-ASTHMA-201-SITE001-0499,0499,,,,,2024-03-05,,,,SITE001,Dr. Robert Chen,1974,50,YEARS,F,WHITE,NOT HISPANIC OR LATINO,,,,,SCREEN FAILURE,,USA
GB001-ASTHMA-201,DM,GB001-ASTHMA-201-SITE002-0002,0002,2024-02-05,2024-06-23,2024-02-05,2024-03-27,2024-01-17,2024-06-23,,,SITE002,Dr. Maria Santos,1982,42,YEARS,M,WHITE,NOT HISPANIC OR LATINO,PBO,Placebo,PBO,Placebo,,,USA
GB001-ASTHMA-201,DM,GB001-ASTHMA-201-SITE002-0005,0005,2024-05-10,2024-09-26,2024-05-10,2024-06-14,2024-04-13,2024-09-26,,,SITE002,Dr. Maria Santos,1979,45,YEARS,F,WHITE,NOT HISPANIC OR LATINO,GB40,GB001 40mg QD,GB40,GB001 40mg QD,,,USA
GB001-ASTHMA-201,DM,GB001-ASTHMA-201-SITE002-0008,0008,2024-03-01,2024-07-18,2024-03-01,2024-05-23,2024-02-21,2024-07-18,,,SITE002,Dr. Maria Santos,1983,41,YEARS,M,WHITE,NOT HISPANIC OR LATINO,GB40,GB001 40mg QD,GB40,GB001 40mg QD,,,USA
GB001-ASTHMA-201,DM,GB001-ASTHMA-201-SITE002-0011,0011,2024-04-29,2024-09-15,2024-04-29,2024-07-01,2024-04-05,2024-09-15,,,SITE002,Dr. Maria Santos,1992,32,YEARS,F,WHITE,NOT HISPANIC OR LATINO,PBO,Placebo,PBO,Placebo,,,USA
GB001-ASTHMA-201,DM,GB001-ASTHMA-201-SITE002-0014,0014,2024-05-09,2024-09-25,2024-05-09,2024-07-26,2024-04-12,2024-09-25,,,SITE002,Dr. Maria Santos,1975,49,YEARS,M,ASIAN,NOT HISPANIC OR LATINO,PBO,Placebo,PBO,Placebo,,,USA
GB001-ASTHMA-201,DM,GB001-ASTHMA-201-SITE002-0017,0017,2024-03-31,2024-08-17,2024-03-31,2024-06-22,2024-03-09,2024-08-17,,,SITE002,Dr. Maria Santos,1973,51,YEARS,F,WHITE,NOT HISPANIC OR LATINO,PBO,Placebo,PBO,Placebo,,,USA
GB001-ASTHMA-201,DM,GB001-ASTHMA-201-SITE002-0020,0020,2024-02-23,2024-07-11,2024-02-23,2024-04-05,2024-01-22,2024-07-11,,,SITE002,Dr. Maria Santos,2004,20,YEARS,F,ASIAN,NOT HISPANIC OR LATINO,PBO,Placebo,PBO,Placebo,,,USA
GB001-ASTHMA-201,DM,GB001-ASTHMA-201-SITE002-0023,0023,2024-04-30,2024-09-16,2024-04-30,2024-06-24,2024-03-29,2024-09-16,,,SITE002,Dr. Maria Santos,1973,51,YEARS,M,WHITE,NOT HISPANIC OR LATINO,PBO,Placebo,PBO,Placebo,,,USA
GB001-ASTHMA-201,DM,GB001-ASTHMA-201-SITE002-0026,0026,2024-02-06,2024-06-24,2024-02-06,2024-03-06,2024-01-28,2024-06-24,,,SITE002,Dr. Maria Santos,2005,19,YEARS,M,WHITE,NOT HISPANIC OR LATINO,GB40,GB001 40mg QD,GB40,GB001 40mg QD,,,USA
GB001-ASTHMA-201,DM,GB001-ASTHMA-201-SITE002-0029,0029,2024-02-14,2024-07-02,2024-02-14,2024-04-01,2024-02-05,2024-07-02,,,SITE002,Dr. Maria Santos,1968,56,YEARS,F,WHITE,HISPANIC OR LATINO,PBO,Placebo,PBO,Placebo,,,USA
GB001-ASTHMA-201,DM,GB001-ASTHMA-201-SITE002-0032,0032,,,,,2024-02-20,,,,SITE002,Dr. Maria Santos,1986,38,YEARS,F,WHITE,NOT HISPANIC OR LATINO,,,,,SCREEN FAILURE,,USA
GB001-ASTHMA-201,DM,GB001-ASTHMA-201-SITE002-0035,0035,2024-02-06,2024-06-24,2024-02-06,2024-03-21,2024-01-24,2024-06-24,,,SITE002,Dr. Maria Santos,1989,35,YEARS,M,BLACK OR AFRICAN AMERICAN,NOT HISPANIC OR LATINO,PBO,Placebo,PBO,Placebo,,,USA
GB001-ASTHMA-201,DM,GB001-ASTHMA-201-SITE002-0038,0038,2024-03-18,2024-03-23,2024-03-18,2024-03-20,2024-02-19,2024-03-23,,,SITE002,Dr. Maria Santos,1988,36,YEARS,M,WHITE,NOT HISPANIC OR LATINO,GB40,GB001 40mg QD,GB40,GB001 40mg QD,,,USA
GB001-ASTHMA-201,DM,GB001-ASTHMA-201-SITE002-0041,0041,2024-04-23,2024-09-09,2024-04-23,2024-07-02,2024-04-01,2024-09-09,,,SITE002,Dr. Maria Santos,1973,51,YEARS,M,WHITE,NOT HISPANIC OR LATINO,PBO,Placebo,PBO,Placebo,,,USA
GB001-ASTHMA-201,DM,GB001-ASTHMA-201-SITE002-0044,0044,2024-04-15,2024-09-01,2024-04-15,2024-07-07,2024-04-02,2024-09-01,,,SITE002,Dr. Maria Santos,1970,54,YEARS,M,BLACK OR AFRICAN AMERICAN,NOT HISPANIC OR LATINO,GB40,GB001 40mg QD,GB40,GB001 40mg QD,,,USA
GB001-ASTHMA-201,DM,GB001-ASTHMA-201-SITE002-0047,0047,,,,,2024-04-05,,,,SITE002,Dr. Maria Santos,1949,75,YEARS,M,WHITE,NOT HISPANIC OR LATINO,,,,,SCREEN FAILURE,,USA
GB001-ASTHMA-201,DM,GB001-ASTHMA-201-SITE002-0050,0050,2024-05-08,2024-09-24,2024-05-08,2024-07-11,2024-04-03,2024-09-24,,,SITE002,Dr. Maria Santos,1977,47,YEARS,F,OTHER,NOT HISPANIC OR LATINO,GB40,GB001 40mg QD,GB40,GB001 40mg QD,,,USA
GB001-ASTHMA-201,DM,GB001-ASTHMA-201-SITE002-0053,0053,2024-04-05,2024-08-22,2024-04-05,2024-05-19,2024-03-17,2024-08-22,,,SITE002,Dr. Maria Santos,1949,75,YEARS,F,WHITE,HISPANIC OR LATINO,PBO,Placebo,PBO,Placebo,,,USA
GB001-ASTHMA-201,DM,GB001-ASTHMA-201-SITE002-0056,0056,2024-05-02,2024-09-18,2024-05-02,2024-05-30,2024-03-30,2024-09-18,,,SITE002,Dr. Maria Santos,1966,58,YEARS,M,WHITE,NOT HISPANIC OR LATINO,GB40,GB001 40mg QD,GB40,GB001 40mg QD,,,USA
GB001-ASTHMA-201,DM,GB001-ASTHMA-201-SITE002-0059,0059,2024-04-05,2024-08-22,2024-04-05,2024-05-24,2024-03-02,2024-08-22,,,SITE002,Dr. Maria Santos,1978,46,YEARS,F,ASIAN,NOT HISPANIC OR LATINO,GB40,GB001 40mg QD,GB40,GB001 40mg QD,,,USA
GB001-ASTHMA-201,DM,GB001-ASTHMA-201-SITE002-0062,0062,2024-02-15,2024-07-03,2024-02-15,2024-05-03,2024-01-24,2024-07-03,,,SITE002,Dr. Maria Santos,1980,44,YEARS,F,OTHER,NOT HISPANIC OR LATINO,PBO,Placebo,PBO,Placebo,,,USA
GB001-ASTHMA-201,DM,GB001-ASTHMA-201-SITE002-0065,0065,2024-02-08,2024-06-26,2024-02-08,2024-04-05,2024-01-26,2024-06-26,,,SITE002,Dr. Maria Santos,1985,39,YEARS,F,WHITE,NOT HISPANIC OR LATINO,GB40,GB001 40mg QD,GB40,GB001 40mg QD,,,USA
GB001-ASTHMA-201,DM,GB001-ASTHMA-201-SITE002-0068,0068,2024-02-25,2024-07-13,2024-02-25,2024-05-17,2024-01-23,2024-07-13,,,SITE002,Dr. Maria Santos,1972,52,YEARS,F,WHITE,NOT HISPANIC OR LATINO,PBO,Placebo,PBO,Placebo,,,USA
GB001-ASTHMA-201,DM,GB001-ASTHMA-201-SITE002-0071,0071,2024-03-16,2024-08-02,2024-03-16,2024-04-27,2024-02-24,2024-08-02,,,SITE002,Dr. Maria Santos,1981,43,YEARS,M,OTHER,NOT HISPANIC OR LATINO,PBO,Placebo,PBO,Placebo,,,USA
GB001-ASTHMA-201,DM,GB001-ASTHMA-201-SITE002-0074,0074,2024-02-26,2024-07-14,2024-02-26,2024-04-29,2024-01-23,2024-07-14,,,SITE002,Dr. Maria Santos,1974,50,YEARS,M,BLACK OR AFRICAN AMERICAN,HISPANIC OR LATINO,GB40,GB001 40mg QD,GB40,GB001 40mg QD,,,USA
GB001-ASTHMA-201,DM,GB001-ASTHMA-201-SITE002-0077,0077,,,,,2024-01-27,,,,SITE002,Dr. Maria Santos,1978,46,YEARS,M,BLACK OR AFRICAN AMERICAN,NOT HISPANIC OR LATINO,,,,,SCREEN FAILURE,,USA
GB001-ASTHMA-201,DM,GB001-ASTHMA-201-SITE002-0080,0080,2024-05-08,2024-09-24,2024-05-08,2024-07-19,2024-04-07,2024-09-24,,,SITE002,Dr. Maria Santos,1969,55,YEARS,M,WHITE,NOT HISPANIC OR LATINO,GB40,GB001 40mg QD,GB40,GB001 40mg QD,,,USA
GB001-ASTHMA-201,DM,GB001-ASTHMA-201-SITE002-0083,0083,2024-04-18,2024-09-04,2024-04-18,2024-06-18,2024-03-23,2024-09-04,,,SITE002,Dr. Maria Santos,2006,18,YEARS,F,WHITE,NOT HISPANIC OR LATINO,PBO,Placebo,PBO,Placebo,,,USA
GB001-ASTHMA-201,DM,GB001-ASTHMA-201-SITE002-0086,0086,2024-02-22,2024-07-10,2024-02-22,2024-04-25,2024-02-08,2024-07-10,,,SITE002,Dr. Maria Santos,1956,68,YEARS,F,WHITE,NOT HISPANIC OR LATINO,GB40,GB001 40mg QD,GB40,GB001 40mg QD,,,USA
GB001-ASTHMA-201,DM,GB001-ASTHMA-201-SITE002-0089,0089,2024-03-01,2024-07-18,2024-03-01,2024-05-16,2024-02-19,2024-07-18,,,SITE002,Dr. Maria Santos,1967,57,YEARS,M,WHITE,NOT HISPANIC OR LATINO,GB40,GB001 40mg QD,GB40,GB001 40mg QD,,,USA
GB001-ASTHMA-201,DM,GB001-ASTHMA-201-SITE002-0092,0092,2024-02-18,2024-07-06,2024-02-18,2024-04-19,2024-01-26,2024-07-06,,,SITE002,Dr. Maria Santos,1992,32,YEARS,F,WHITE,HISPANIC OR LATINO,GB40,GB001 40mg QD,GB40,GB001 40mg QD,,,USA
GB001-ASTHMA-201,DM,GB001-ASTHMA-201-SITE002-0095,0095,2024-03-24,2024-08-10,2024-03-24,2024-05-04,2024-02-22,2024-08-10,,,SITE002,Dr. Maria Santos,1949,75,YEARS,F,WHITE,HISPANIC OR LATINO,PBO,Placebo,PBO,Placebo,,,USA
GB001-ASTHMA-201,DM,GB001-ASTHMA-201-SITE002-0098,0098,2024-04-24,2024-07-05,2024-04-24,2024-05-22,2024-04-10,2024-07-05,,,SITE002,Dr. Maria Santos,1988,36,YEARS,M,WHITE,NOT HISPANIC OR LATINO,GB40,GB001 40mg QD,GB40,GB001 40mg QD,,,USA
GB001-ASTHMA-201,DM,GB001-ASTHMA-201-SITE002-0101,0101,2024-04-08,2024-04-30,2024-04-08,2024-04-18,2024-03-18,2024-04-30,,,SITE002,Dr. Maria Santos,2006,18,YEARS,F,ASIAN,NOT HISPANIC OR LATINO,GB40,GB001 40mg QD,GB40,GB001 40mg QD,,,USA
GB001-ASTHMA-201,DM,GB001-ASTHMA-201-SITE002-0104,0104,2024-03-28,2024-08-14,2024-03-28,2024-05-15,2024-03-04,2024-08-14,,,SITE002,Dr. Maria Santos,1977,47,YEARS,M,WHITE,NOT HISPANIC OR LATINO,PBO,Placebo,PBO,Placebo,,,USA
GB001-ASTHMA-201,DM,GB001-ASTHMA-201-SITE002-0107,0107,2024-04-13,2024-08-30,2024-04-13,2024-06-12,2024-03-21,2024-08-30,,,SITE002,Dr. Maria Santos,1960,64,YEARS,F,WHITE,NOT HISPANIC OR LATINO,PBO,Placebo,PBO,Placebo,,,USA
GB001-ASTHMA-201,DM,GB001-ASTHMA-201-SITE002-0110,0110,2024-02-28,2024-07-16,2024-02-28,2024-05-10,2024-02-13,2024-07-16,,,SITE002,Dr. Maria Santos,1993,31,YEARS,F,WHITE,NOT HISPANIC OR LATINO,GB40,GB001 40mg QD,GB40,GB001 40mg QD,,,USA
GB001-ASTHMA-201,DM,GB001-ASTHMA-201-SITE002-0113,0113,,,,,2024-03-01,,,,SITE002,Dr. Maria Santos,2002,22,YEARS,M,WHITE,NOT HISPANIC OR LATINO,,,,,SCREEN FAILURE,,USA
GB001-ASTHMA-201,DM,GB001-ASTHMA-201-SITE002-0116,0116,2024-03-20,2024-08-06,2024-03-20,2024-06-11,2024-02-20,2024-08-06,,,SITE002,Dr. Maria Santos,1979,45,YEARS,M,ASIAN,NOT HISPANIC OR LATINO,GB40,GB001 40mg QD,GB40,GB001 40mg QD,,,USA
GB001-ASTHMA-201,DM,GB001-ASTHMA-201-SITE002-0119,0119,2024-03-09,2024-07-26,2024-03-09,2024-05-25,2024-03-01,2024-07-26,,,SITE002,Dr. Maria Santos,1996,28,YEARS,M,WHITE,NOT HISPANIC OR LATINO,GB40,GB001 40mg QD,GB40,GB001 40mg QD,,,USA
GB001-ASTHMA-201,DM,GB001-ASTHMA-201-SITE002-0122,0122,,,,,2024-02-12,,,,SITE002,Dr. Maria Santos,1989,35,YEARS,F,WHITE,NOT HISPANIC OR LATINO,,,,,SCREEN FAILURE,,USA
GB001-ASTHMA-201,DM,GB001-ASTHMA-201-SITE002-0125,0125,,,,,2024-02-17,,,,SITE002,Dr. Maria Santos,1949,75,YEARS,F,WHITE,NOT HISPANIC OR LATINO,,,,,SCREEN FAILURE,,USA
GB001-ASTHMA-201,DM,GB001-ASTHMA-201-SITE002-0128,0128,2024-04-20,2024-09-06,2024-04-20,2024-07-02,2024-04-12,2024-09-06,,,SITE002,Dr. Maria Santos,2006,18,YEARS,F,WHITE,NOT HISPANIC OR LATINO,GB40,GB001 40mg QD,GB40,GB001 40mg QD,,,USA
GB001-ASTHMA-201,DM,GB001-ASTHMA-201-SITE002-0131,0131,,,,,2024-03-16,,,,SITE002,Dr. Maria Santos,1988,36,YEARS,F,WHITE,HISPANIC OR LATINO,,,,,SCREEN FAILURE,,USA
GB001-ASTHMA-201,DM,GB001-ASTHMA-201-SITE002-0134,0134,2024-03-28,2024-08-14,2024-03-28,2024-05-28,2024-03-19,2024-08-14,,,SITE002,Dr. Maria Santos,1978,46,YEARS,F,WHITE,NOT HISPANIC OR LATINO,GB40,GB001 40mg QD,GB40,GB001 40mg QD,,,USA
GB001-ASTHMA-201,DM,GB001-ASTHMA-201-SITE002-0137,0137,2024-04-07,2024-04-08,2024-04-07,2024-04-08,2024-03-06,2024-04-08,,,SITE002,Dr. Maria Santos,1996,28,YEARS,F,WHITE,NOT HISPANIC OR LATINO,PBO,Placebo,PBO,Placebo,,,USA
GB001-ASTHMA-201,DM,GB001-ASTHMA-201-SITE002-0140,0140,2024-03-04,2024-07-21,2024-03-04,2024-05-03,2024-02-20,2024-07-21,,,SITE002,Dr. Maria Santos,2006,18,YEARS,M,WHITE,NOT HISPANIC OR LATINO,PBO,Placebo,PBO,Placebo,,,USA
GB001-ASTHMA-201,DM,GB001-ASTHMA-201-SITE002-0143,0143,2024-05-01,2024-09-17,2024-05-01,2024-06-25,2024-04-14,2024-09-17,,,SITE002,Dr. Maria Santos,2000,24,YEARS,M,WHITE,HISPANIC OR LATINO,PBO,Placebo,PBO,Placebo,,,USA
GB001-ASTHMA-201,DM,GB001-ASTHMA-201-SITE002-0146,0146,2024-05-16,2024-10-02,2024-05-16,2024-06-26,2024-04-12,2024-10-02,,,SITE002,Dr. Maria Santos,1962,62,YEARS,F,WHITE,NOT HISPANIC OR LATINO,PBO,Placebo,PBO,Placebo,,,USA
GB001-ASTHMA-201,DM,GB001-ASTHMA-201-SITE002-0149,0149,2024-04-17,2024-09-03,2024-04-17,2024-07-09,2024-03-31,2024-09-03,,,SITE002,Dr. Maria Santos,1973,51,YEARS,F,WHITE,NOT HISPANIC OR LATINO,PBO,Placebo,PBO,Placebo,,,USA
GB001-ASTHMA-201,DM,GB001-ASTHMA-201-SITE002-0152,0152,2024-03-04,2024-07-21,2024-03-04,2024-05-18,2024-02-09,2024-07-21,,,SITE002,Dr. Maria Santos,1984,40,YEARS,M,WHITE,NOT HISPANIC OR LATINO,GB40,GB001 40mg QD,GB40,GB001 40mg QD,,,USA
GB001-ASTHMA-201,DM,GB001-ASTHMA-201-SITE002-0155,0155,2024-03-21,2024-03-26,2024-03-21,2024-03-25,2024-03-03,2024-03-26,,,SITE002,Dr. Maria Santos,1974,50,YEARS,M,BLACK OR AFRICAN AMERICAN,NOT HISPANIC OR LATINO,PBO,Placebo,PBO,Placebo,,,USA
GB001-ASTHMA-201,DM,GB001-ASTHMA-201-SITE002-0158,0158,2024-04-22,2024-09-08,2024-04-22,2024-06-24,2024-03-28,2024-09-08,,,SITE002,Dr. Maria Santos,1998,26,YEARS,M,ASIAN,NOT HISPANIC OR LATINO,GB40,GB001 40mg QD,GB40,GB001 40mg QD,,,USA
GB001-ASTHMA-201,DM,GB001-ASTHMA-201-SITE002-0161,0161,2024-03-16,2024-08-02,2024-03-16,2024-04-26,2024-03-07,2024-08-02,,,SITE002,Dr. Maria Santos,1966,58,YEARS,M,BLACK OR AFRICAN AMERICAN,NOT HISPANIC OR LATINO,PBO,Placebo,PBO,Placebo,,,USA
GB001-ASTHMA-201,DM,GB001-ASTHMA-201-SITE002-0164,0164,2024-04-15,2024-09-01,2024-04-15,2024-06-09,2024-03-13,2024-09-01,,,SITE002,Dr. Maria Santos,1969,55,YEARS,F,WHITE,NOT HISPANIC OR LATINO,PBO,Placebo,PBO,Placebo,,,USA
GB001-ASTHMA-201,DM,GB001-ASTHMA-201-SITE002-0167,0167,2024-03-09,2024-07-26,2024-03-09,2024-05-06,2024-02-26,2024-07-26,,,SITE002,Dr. Maria Santos,2006,18,YEARS,M,WHITE,NOT HISPANIC OR LATINO,PBO,Placebo,PBO,Placebo,,,USA
GB001-ASTHMA-201,DM,GB001-ASTHMA-201-SITE002-0170,0170,2024-03-11,2024-03-19,2024-03-11,2024-03-15,2024-02-19,2024-03-19,,,SITE002,Dr. Maria Santos,1978,46,YEARS,F,WHITE,NOT HISPANIC OR LATINO,GB40,GB001 40mg QD,GB40,GB001 40mg QD,,,USA
GB001-ASTHMA-201,DM,GB001-ASTHMA-201-SITE002-0173,0173,2024-03-05,2024-07-22,2024-03-05,2024-04-15,2024-02-23,2024-07-22,,,SITE002,Dr. Maria Santos,1964,60,YEARS,M,BLACK OR AFRICAN AMERICAN,NOT HISPANIC OR LATINO,PBO,Placebo,PBO,Placebo,,,USA
GB001-ASTHMA-201,DM,GB001-ASTHMA-201-SITE002-0176,0176,2024-02-19,2024-07-07,2024-02-19,2024-03-26,2024-01-29,2024-07-07,,,SITE002,Dr. Maria Santos,1978,46,YEARS,M,WHITE,NOT HISPANIC OR LATINO,GB40,GB001 40mg QD,GB40,GB001 40mg QD,,,USA
GB001-ASTHMA-201,DM,GB001-ASTHMA-201-SITE002-0179,0179,2024-03-08,2024-07-25,2024-03-08,2024-05-17,2024-02-03,2024-07-25,,,SITE002,Dr. Maria Santos,1963,61,YEARS,F,WHITE,HISPANIC OR LATINO,PBO,Placebo,PBO,Placebo,,,USA
GB001-ASTHMA-201,DM,GB001-ASTHMA-201-SITE002-0182,0182,,,,,2024-04-04,,,,SITE002,Dr. Maria Santos,1987,37,YEARS,F,OTHER,NOT HISPANIC OR LATINO,,,,,SCREEN FAILURE,,USA
GB001-ASTHMA-201,DM,GB001-ASTHMA-201-SITE002-0185,0185,2024-04-09,2024-08-26,2024-04-09,2024-07-01,2024-04-01,2024-08-26,,,SITE002,Dr. Maria Santos,1978,46,YEARS,F,WHITE,NOT HISPANIC OR LATINO,GB40,GB001 40mg QD,GB40,GB001 40mg QD,,,USA
GB001-ASTHMA-201,DM,GB001-ASTHMA-201-SITE002-0188,0188,2024-03-31,2024-08-17,2024-03-31,2024-06-04,2024-03-14,2024-08-17,,,SITE002,Dr. Maria Santos,1982,42,YEARS,F,WHITE,NOT HISPANIC OR LATINO,GB40,GB001 40mg QD,GB40,GB001 40mg QD,,,USA
GB001-ASTHMA-201,DM,GB001-ASTHMA-201-SITE002-0191,0191,2024-04-21,2024-09-07,2024-04-21,2024-06-01,2024-03-30,2024-09-07,,,SITE002,Dr. Maria Santos,1973,51,YEARS,F,WHITE,NOT HISPANIC OR LATINO,GB40,GB001 40mg QD,GB40,GB001 40mg QD,,,USA
GB001-ASTHMA-201,DM,GB001-ASTHMA-201-SITE002-0194,0194,2024-04-06,2024-08-23,2024-04-06,2024-06-18,2024-03-10,2024-08-23,,,SITE002,Dr. Maria Santos,1963,61,YEARS,F,BLACK OR AFRICAN AMERICAN,NOT HISPANIC OR LATINO,PBO,Placebo,PBO,Placebo,,,USA
GB001-ASTHMA-201,DM,GB001-ASTHMA-201-SITE002-0197,0197,2024-02-20,2024-07-08,2024-02-20,2024-04-22,2024-01-18,2024-07-08,,,SITE002,Dr. Maria Santos,1988,36,YEARS,M,BLACK OR AFRICAN AMERICAN,NOT HISPANIC OR LATINO,PBO,Placebo,PBO,Placebo,,,USA
GB001-ASTHMA-201,DM,GB001-ASTHMA-201-SITE002-0200,0200,2024-03-21,2024-08-07,2024-03-21,2024-05-20,2024-03-02,2024-08-07,,,SITE002,Dr. Maria Santos,1959,65,YEARS,M,ASIAN,NOT HISPANIC OR LATINO,PBO,Placebo,PBO,Placebo,,,USA
GB001-ASTHMA-201,DM,GB001-ASTHMA-201-SITE002-0203,0203,2024-03-22,2024-08-08,2024-03-22,2024-04-25,2024-02-26,2024-08-08,,,SITE002,Dr. Maria Santos,1966,58,YEARS,M,WHITE,NOT HISPANIC OR LATINO,GB40,GB001 40mg QD,GB40,GB001 40mg QD,,,USA
GB001-ASTHMA-201,DM,GB001-ASTHMA-201-SITE002-0206,0206,2024-01-29,2024-06-16,2024-01-29,2024-04-13,2024-01-22,2024-06-16,,,SITE002,Dr. Maria Santos,1958,66,YEARS,F,WHITE,NOT HISPANIC OR LATINO,PBO,Placebo,PBO,Placebo,,,USA
GB001-ASTHMA-201,DM,GB001-ASTHMA-201-SITE002-0209,0209,2024-02-01,2024-06-19,2024-02-01,2024-03-18,2024-01-19,2024-06-19,,,SITE002,Dr. Maria Santos,1949,75,YEARS,F,WHITE,NOT HISPANIC OR LATINO,GB40,GB001 40mg QD,GB40,GB001 40mg QD,,,USA
GB001-ASTHMA-201,DM,GB001-ASTHMA-201-SITE002-0212,0212,2024-03-26,2024-08-12,2024-03-26,2024-05-03,2024-02-27,2024-08-12,,,SITE002,Dr. Maria Santos,1964,60,YEARS,F,OTHER,NOT HISPANIC OR LATINO,GB40,GB001 40mg QD,GB40,GB001 40mg QD,,,USA
GB001-ASTHMA-201,DM,GB001-ASTHMA-201-SITE002-0215,0215,2024-03-02,2024-07-19,2024-03-02,2024-04-11,2024-02-04,2024-07-19,,,SITE002,Dr. Maria Santos,1949,75,YEARS,M,BLACK OR AFRICAN AMERICAN,NOT HISPANIC OR LATINO,GB40,GB001 40mg QD,GB40,GB001 40mg QD,,,USA
GB001-ASTHMA-201,DM,GB001-ASTHMA-201-SITE002-0218,0218,2024-02-21,2024-07-09,2024-02-21,2024-04-09,2024-01-26,2024-07-09,,,SITE002,Dr. Maria Santos,1963,61,YEARS,F,BLACK OR AFRICAN AMERICAN,NOT HISPANIC OR LATINO,PBO,Placebo,PBO,Placebo,,,USA
GB001-ASTHMA-201,DM,GB001-ASTHMA-201-SITE002-0221,0221,2024-02-17,2024-07-05,2024-02-17,2024-04-01,2024-02-07,2024-07-05,,,SITE002,Dr. Maria Santos,1967,57,YEARS,M,WHITE,NOT HISPANIC OR LATINO,PBO,Placebo,PBO,Placebo,,,USA
GB001-ASTHMA-201,DM,GB001-ASTHMA-201-SITE002-0224,0224,2024-04-25,2024-04-26,2024-04-25,2024-04-26,2024-04-02,2024-04-26,,,SITE002,Dr. Maria Santos,2006,18,YEARS,M,ASIAN,NOT HISPANIC OR LATINO,PBO,Placebo,PBO,Placebo,,,USA
GB001-ASTHMA-201,DM,GB001-ASTHMA-201-SITE002-0227,0227,,,,,2024-03-12,,,,SITE002,Dr. Maria Santos,1961,63,YEARS,M,ASIAN,HISPANIC OR LATINO,,,,,SCREEN FAILURE,,USA
GB001-ASTHMA-201,DM,GB001-ASTHMA-201-SITE002-0230,0230,2024-04-19,2024-09-05,2024-04-19,2024-06-08,2024-04-05,2024-09-05,,,SITE002,Dr. Maria Santos,1997,27,YEARS,F,WHITE,NOT HISPANIC OR LATINO,GB40,GB001 40mg QD,GB40,GB001 40mg QD,,,USA
GB001-ASTHMA-201,DM,GB001-ASTHMA-201-SITE002-0233,0233,2024-03-20,2024-08-06,2024-03-20,2024-05-12,2024-03-03,2024-08-06,,,SITE002,Dr. Maria Santos,1979,45,YEARS,F,WHITE,NOT HISPANIC OR LATINO,GB40,GB001 40mg QD,GB40,GB001 40mg QD,,,USA
GB001-ASTHMA-201,DM,GB001-ASTHMA-201-SITE002-0236,0236,2024-04-12,2024-08-29,2024-04-12,2024-05-27,2024-03-10,2024-08-29,,,SITE002,Dr. Maria Santos,1976,48,YEARS,M,WHITE,NOT HISPANIC OR LATINO,PBO,Placebo,PBO,Placebo,,,USA
GB001-ASTHMA-201,DM,GB001-ASTHMA-201-SITE002-0239,0239,2024-03-29,2024-04-05,2024-03-29,2024-04-05,2024-03-04,2024-04-05,,,SITE002,Dr. Maria Santos,1987,37,YEARS,M,BLACK OR AFRICAN AMERICAN,NOT HISPANIC OR LATINO,PBO,Placebo,PBO,Placebo,,,USA
GB001-ASTHMA-201,DM,GB001-ASTHMA-201-SITE002-0242,0242,,,,,2024-03-24,,,,SITE002,Dr. Maria Santos,1973,51,YEARS,M,OTHER,NOT HISPANIC OR LATINO,,,,,SCREEN FAILURE,,USA
GB001-ASTHMA-201,DM,GB001-ASTHMA-201-SITE002-0245,0245,2024-03-14,2024-07-31,2024-03-14,2024-05-12,2024-02-11,2024-07-31,,,SITE002,Dr. Maria Santos,1987,37,YEARS,F,BLACK OR AFRICAN AMERICAN,HISPANIC OR LATINO,PBO,Placebo,PBO,Placebo,,,USA
GB001-ASTHMA-201,DM,GB001-ASTHMA-201-SITE002-0248,0248,,,,,2024-02-04,,,,SITE002,Dr. Maria Santos,1991,33,YEARS,M,WHITE,NOT HISPANIC OR LATINO,,,,,SCREEN FAILURE,,USA
GB001-ASTHMA-201,DM,GB001-ASTHMA-201-SITE002-0251,0251,2024-03-15,2024-05-01,2024-03-15,2024-04-21,2024-02-26,2024-05-01,,,SITE002,Dr. Maria Santos,1995,29,YEARS,M,ASIAN,NOT HISPANIC OR LATINO,GB40,GB001 40mg QD,GB40,GB001 40mg QD,,,USA
GB001-ASTHMA-201,DM,GB001-ASTHMA-201-SITE002-0254,0254,2024-02-11,2024-06-29,2024-02-11,2024-03-24,2024-02-02,2024-06-29,,,SITE002,Dr. Maria Santos,2002,22,YEARS,M,BLACK OR AFRICAN AMERICAN,HISPANIC OR LATINO,GB40,GB001 40mg QD,GB40,GB001 40mg QD,,,USA
GB001-ASTHMA-201,DM,GB001-ASTHMA-201-SITE002-0257,0257,2024-02-13,2024-02-17,2024-02-13,2024-02-16,2024-02-05,2024-02-17,,,SITE002,Dr. Maria Santos,1988,36,YEARS,M,WHITE,HISPANIC OR LATINO,PBO,Placebo,PBO,Placebo,,,USA
GB001-ASTHMA-201,DM,GB001-ASTHMA-201-SITE002-0260,0260,2024-05-07,2024-09-23,2024-05-07,2024-07-17,2024-04-03,2024-09-23,,,SITE002,Dr. Maria Santos,1967,57,YEARS,F,BLACK OR AFRICAN AMERICAN,NOT HISPANIC OR LATINO,GB40,GB001 40mg QD,GB40,GB001 40mg QD,,,USA
GB001-ASTHMA-201,DM,GB001-ASTHMA-201-SITE002-0263,0263,2024-02-18,2024-07-06,2024-02-18,2024-04-07,2024-02-03,2024-07-06,,,SITE002,Dr. Maria Santos,1973,51,YEARS,F,WHITE,NOT HISPANIC OR LATINO,PBO,Placebo,PBO,Placebo,,,USA
GB001-ASTHMA-201,DM,GB001-ASTHMA-201-SITE002-0266,0266,2024-04-25,2024-09-11,2024-04-25,2024-06-17,2024-03-21,2024-09-11,,,SITE002,Dr. Maria Santos,1997,27,YEARS,M,WHITE,NOT HISPANIC OR LATINO,GB40,GB001 40mg QD,GB40,GB001 40mg QD,,,USA
GB001-ASTHMA-201,DM,GB001-ASTHMA-201-SITE002-0269,0269,2024-05-13,2024-09-29,2024-05-13,2024-06-29,2024-04-09,2024-09-29,,,SITE002,Dr. Maria Santos,1977,47,YEARS,F,WHITE,NOT HISPANIC OR LATINO,PBO,Placebo,PBO,Placebo,,,USA
GB001-ASTHMA-201,DM,GB001-ASTHMA-201-SITE002-0272,0272,2024-03-14,2024-04-27,2024-03-14,2024-03-28,2024-02-08,2024-04-27,,,SITE002,Dr. Maria Santos,1972,52,YEARS,M,WHITE,HISPANIC OR LATINO,GB40,GB001 40mg QD,GB40,GB001 40mg QD,,,USA
GB001-ASTHMA-201,DM,GB001-ASTHMA-201-SITE002-0275,0275,2024-03-14,2024-07-31,2024-03-14,2024-04-29,2024-02-29,2024-07-31,,,SITE002,Dr. Maria Santos,1989,35,YEARS,M,OTHER,HISPANIC OR LATINO,PBO,Placebo,PBO,Placebo,,,USA
GB001-ASTHMA-201,DM,GB001-ASTHMA-201-SITE002-0278,0278,2024-02-18,2024-07-06,2024-02-18,2024-04-21,2024-02-06,2024-07-06,,,SITE002,Dr. Maria Santos,1973,51,YEARS,M,WHITE,NOT HISPANIC OR LATINO,GB40,GB001 40mg QD,GB40,GB001 40mg QD,,,USA
GB001-ASTHMA-201,DM,GB001-ASTHMA-201-SITE002-0281,0281,2024-04-09,2024-08-26,2024-04-09,2024-05-22,2024-03-21,2024-08-26,,,SITE002,Dr. Maria Santos,1975,49,YEARS,F,ASIAN,NOT HISPANIC OR LATINO,PBO,Placebo,PBO,Placebo,,,USA
GB001-ASTHMA-201,DM,GB001-ASTHMA-201-SITE002-0284,0284,2024-04-06,2024-08-23,2024-04-06,2024-05-13,2024-03-12,2024-08-23,,,SITE002,Dr. Maria Santos,1972,52,YEARS,F,WHITE,NOT HISPANIC OR LATINO,PBO,Placebo,PBO,Placebo,,,USA
GB001-ASTHMA-201,DM,GB001-ASTHMA-201-SITE002-0287,0287,2024-04-02,2024-04-10,2024-04-02,2024-04-05,2024-03-08,2024-04-10,,,SITE002,Dr. Maria Santos,1974,50,YEARS,F,OTHER,NOT HISPANIC OR LATINO,PBO,Placebo,PBO,Placebo,,,USA
GB001-ASTHMA-201,DM,GB001-ASTHMA-201-SITE002-0290,0290,2024-02-28,2024-07-16,2024-02-28,2024-04-24,2024-02-05,2024-07-16,,,SITE002,Dr. Maria Santos,1974,50,YEARS,F,WHITE,NOT HISPANIC OR LATINO,GB40,GB001 40mg QD,GB40,GB001 40mg QD,,,USA
GB001-ASTHMA-201,DM,GB001-ASTHMA-201-SITE002-0293,0293,2024-04-13,2024-04-21,2024-04-13,2024-04-19,2024-03-17,2024-04-21,,,SITE002,Dr. Maria Santos,1962,62,YEARS,M,WHITE,NOT HISPANIC OR LATINO,GB40,GB001 40mg QD,GB40,GB001 40mg QD,,,USA
GB001-ASTHMA-201,DM,GB001-ASTHMA-201-SITE002-0296,0296,2024-02-21,2024-07-09,2024-02-21,2024-05-02,2024-01-21,2024-07-09,,,SITE002,Dr. Maria Santos,1992,32,YEARS,F,WHITE,NOT HISPANIC OR LATINO,GB40,GB001 40mg QD,GB40,GB001 40mg QD,,,USA
GB001-ASTHMA-201,DM,GB001-ASTHMA-201-SITE002-0299,0299,2024-04-01,2024-08-18,2024-04-01,2024-05-21,2024-03-24,2024-08-18,,,SITE002,Dr. Maria Santos,1978,46,YEARS,M,WHITE,HISPANIC OR LATINO,PBO,Placebo,PBO,Placebo,,,USA
GB001-ASTHMA-201,DM,GB001-ASTHMA-201-SITE002-0302,0302,2024-04-12,2024-08-29,2024-04-12,2024-05-12,2024-04-04,2024-08-29,,,SITE002,Dr. Maria Santos,1953,71,YEARS,M,OTHER,UNKNOWN,PBO,Placebo,PBO,Placebo,,,USA
GB001-ASTHMA-201,DM,GB001-ASTHMA-201-SITE002-0305,0305,2024-03-12,2024-07-29,2024-03-12,2024-04-30,2024-03-01,2024-07-29,,,SITE002,Dr. Maria Santos,1984,40,YEARS,F,OTHER,NOT HISPANIC OR LATINO,PBO,Placebo,PBO,Placebo,,,USA
GB001-ASTHMA-201,DM,GB001-ASTHMA-201-SITE002-0308,0308,2024-04-02,2024-08-19,2024-04-02,2024-05-04,2024-03-22,2024-08-19,,,SITE002,Dr. Maria Santos,1987,37,YEARS,M,OTHER,NOT HISPANIC OR LATINO,GB40,GB001 40mg QD,GB40,GB001 40mg QD,,,USA
GB001-ASTHMA-201,DM,GB001-ASTHMA-201-SITE002-0311,0311,2024-04-22,2024-09-08,2024-04-22,2024-05-25,2024-04-03,2024-09-08,,,SITE002,Dr. Maria Santos,1978,46,YEARS,F,OTHER,NOT HISPANIC OR LATINO,PBO,Placebo,PBO,Placebo,,,USA
GB001-ASTHMA-201,DM,GB001-ASTHMA-201-SITE002-0314,0314,2024-02-11,2024-06-29,2024-02-11,2024-04-14,2024-01-29,2024-06-29,,,SITE002,Dr. Maria Santos,1972,52,YEARS,M,OTHER,NOT HISPANIC OR LATINO,PBO,Placebo,PBO,Placebo,,,USA
GB001-ASTHMA-201,DM,GB001-ASTHMA-201-SITE002-0317,0317,2024-03-25,2024-08-11,2024-03-25,2024-04-28,2024-02-23,2024-08-11,,,SITE002,Dr. Maria Santos,1961,63,YEARS,M,WHITE,NOT HISPANIC OR LATINO,GB40,GB001 40mg QD,GB40,GB001 40mg QD,,,USA
GB001-ASTHMA-201,DM,GB001-ASTHMA-201-SITE002-0320,0320,2024-02-07,2024-06-25,2024-02-07,2024-04-05,2024-01-19,2024-06-25,,,SITE002,Dr. Maria Santos,1975,49,YEARS,F,ASIAN,NOT HISPANIC OR LATINO,GB40,GB001 40mg QD,GB40,GB001 40mg QD,,,USA
GB001-ASTHMA-201,DM,GB001-ASTHMA-201-SITE002-0323,0323,2024-03-05,2024-07-22,2024-03-05,2024-04-27,2024-02-20,2024-07-22,,,SITE002,Dr. Maria Santos,1987,37,YEARS,F,WHITE,NOT HISPANIC OR LATINO,PBO,Placebo,PBO,Placebo,,,USA
GB001-ASTHMA-201,DM,GB001-ASTHMA-201-SITE002-0326,0326,2024-04-06,2024-08-23,2024-04-06,2024-06-02,2024-03-26,2024-08-23,,,SITE002,Dr. Maria Santos,1995,29,YEARS,M,WHITE,NOT HISPANIC OR LATINO,PBO,Placebo,PBO,Placebo,,,USA
GB001-ASTHMA-201,DM,GB001-ASTHMA-201-SITE002-0329,0329,2024-04-23,2024-09-09,2024-04-23,2024-06-08,2024-04-04,2024-09-09,,,SITE002,Dr. Maria Santos,1964,60,YEARS,M,WHITE,NOT HISPANIC OR LATINO,GB40,GB001 40mg QD,GB40,GB001 40mg QD,,,USA
GB001-ASTHMA-201,DM,GB001-ASTHMA-201-SITE002-0332,0332,2024-03-17,2024-08-03,2024-03-17,2024-04-15,2024-02-12,2024-08-03,,,SITE002,Dr. Maria Santos,1986,38,YEARS,M,WHITE,NOT HISPANIC OR LATINO,GB40,GB001 40mg QD,GB40,GB001 40mg QD,,,USA
GB001-ASTHMA-201,DM,GB001-ASTHMA-201-SITE002-0335,0335,2024-02-09,2024-02-13,2024-02-09,2024-02-10,2024-01-27,2024-02-13,,,SITE002,Dr. Maria Santos,1974,50,YEARS,M,WHITE,NOT HISPANIC OR LATINO,GB40,GB001 40mg QD,GB40,GB001 40mg QD,,,USA
GB001-ASTHMA-201,DM,GB001-ASTHMA-201-SITE002-0338,0338,2024-02-06,2024-02-08,2024-02-06,2024-02-07,2024-01-15,2024-02-08,,,SITE002,Dr. Maria Santos,2005,19,YEARS,M,BLACK OR AFRICAN AMERICAN,NOT HISPANIC OR LATINO,PBO,Placebo,PBO,Placebo,,,USA
GB001-ASTHMA-201,DM,GB001-ASTHMA-201-SITE002-0341,0341,2024-03-18,2024-08-04,2024-03-18,2024-04-17,2024-02-23,2024-08-04,,,SITE002,Dr. Maria Santos,1994,30,YEARS,M,WHITE,NOT HISPANIC OR LATINO,PBO,Placebo,PBO,Placebo,,,USA
GB001-ASTHMA-201,DM,GB001-ASTHMA-201-SITE002-0344,0344,2024-03-31,2024-08-17,2024-03-31,2024-06-06,2024-03-10,2024-08-17,,,SITE002,Dr. Maria Santos,1973,51,YEARS,M,WHITE,NOT HISPANIC OR LATINO,PBO,Placebo,PBO,Placebo,,,USA
GB001-ASTHMA-201,DM,GB001-ASTHMA-201-SITE002-0347,0347,2024-02-27,2024-07-15,2024-02-27,2024-05-19,2024-02-12,2024-07-15,,,SITE002,Dr. Maria Santos,1982,42,YEARS,F,WHITE,NOT HISPANIC OR LATINO,PBO,Placebo,PBO,Placebo,,,USA
GB001-ASTHMA-201,DM,GB001-ASTHMA-201-SITE002-0350,0350,2024-02-27,2024-07-15,2024-02-27,2024-05-02,2024-01-27,2024-07-15,,,SITE002,Dr. Maria Santos,1975,49,YEARS,M,WHITE,NOT HISPANIC OR LATINO,GB40,GB001 40mg QD,GB40,GB001 40mg QD,,,USA
GB001-ASTHMA-201,DM,GB001-ASTHMA-201-SITE002-0353,0353,2024-04-13,2024-08-30,2024-04-13,2024-05-16,2024-03-28,2024-08-30,,,SITE002,Dr. Maria Santos,1978,46,YEARS,M,WHITE,NOT HISPANIC OR LATINO,GB40,GB001 40mg QD,GB40,GB001 40mg QD,,,USA
GB001-ASTHMA-201,DM,GB001-ASTHMA-201-SITE002-0356,0356,2024-03-16,2024-08-02,2024-03-16,2024-05-21,2024-03-03,2024-08-02,,,SITE002,Dr. Maria Santos,1985,39,YEARS,M,BLACK OR AFRICAN AMERICAN,HISPANIC OR LATINO,GB40,GB001 40mg QD,GB40,GB001 40mg QD,,,USA
GB001-ASTHMA-201,DM,GB001-ASTHMA-201-SITE002-0359,0359,,,,,2024-03-08,,,,SITE002,Dr. Maria Santos,1982,42,YEARS,M,WHITE,HISPANIC OR LATINO,,,,,SCREEN FAILURE,,USA
GB001-ASTHMA-201,DM,GB001-ASTHMA-201-SITE002-0362,0362,2024-02-24,2024-07-12,2024-02-24,2024-04-06,2024-02-16,2024-07-12,,,SITE002,Dr. Maria Santos,1974,50,YEARS,F,OTHER,NOT HISPANIC OR LATINO,GB40,GB001 40mg QD,GB40,GB001 40mg QD,,,USA
GB001-ASTHMA-201,DM,GB001-ASTHMA-201-SITE002-0365,0365,2024-03-26,2024-08-12,2024-03-26,2024-05-18,2024-02-24,2024-08-12,,,SITE002,Dr. Maria Santos,1992,32,YEARS,F,BLACK OR AFRICAN AMERICAN,NOT HISPANIC OR LATINO,PBO,Placebo,PBO,Placebo,,,USA
GB001-ASTHMA-201,DM,GB001-ASTHMA-201-SITE002-0368,0368,,,,,2024-01-29,,,,SITE002,Dr. Maria Santos,1980,44,YEARS,F,ASIAN,NOT HISPANIC OR LATINO,,,,,SCREEN FAILURE,,USA
GB001-ASTHMA-201,DM,GB001-ASTHMA-201-SITE002-0371,0371,2024-02-24,2024-07-12,2024-02-24,2024-05-17,2024-01-22,2024-07-12,,,SITE002,Dr. Maria Santos,1966,58,YEARS,F,WHITE,NOT HISPANIC OR LATINO,PBO,Placebo,PBO,Placebo,,,USA
GB001-ASTHMA-201,DM,GB001-ASTHMA-201-SITE002-0374,0374,,,,,2024-03-12,,,,SITE002,Dr. Maria Santos,1958,66,YEARS,F,WHITE,NOT HISPANIC OR LATINO,,,,,SCREEN FAILURE,,USA
GB001-ASTHMA-201,DM,GB001-ASTHMA-201-SITE002-0377,0377,2024-03-13,2024-03-30,2024-03-13,2024-03-21,2024-02-08,2024-03-30,,,SITE002,Dr. Maria Santos,1976,48,YEARS,F,WHITE,NOT HISPANIC OR LATINO,GB40,GB001 40mg QD,GB40,GB001 40mg QD,,,USA
GB001-ASTHMA-201,DM,GB001-ASTHMA-201-SITE002-0380,0380,2024-01-27,2024-01-28,2024-01-27,2024-01-28,2024-01-18,2024-01-28,,,SITE002,Dr. Maria Santos,1967,57,YEARS,F,WHITE,NOT HISPANIC OR LATINO,PBO,Placebo,PBO,Placebo,,,USA
GB001-ASTHMA-201,DM,GB001-ASTHMA-201-SITE002-0383,0383,,,,,2024-03-02,,,,SITE002,Dr. Maria Santos,1979,45,YEARS,M,WHITE,NOT HISPANIC OR LATINO,,,,,SCREEN FAILURE,,USA
GB001-ASTHMA-201,DM,GB001-ASTHMA-201-SITE002-0386,0386,2024-04-16,2024-09-02,2024-04-16,2024-06-22,2024-03-25,2024-09-02,,,SITE002,Dr. Maria Santos,1969,55,YEARS,M,WHITE,NOT HISPANIC OR LATINO,GB40,GB001 40mg QD,GB40,GB001 40mg QD,,,USA
GB001-ASTHMA-201,DM,GB001-ASTHMA-201-SITE002-0389,0389,2024-02-28,2024-07-16,2024-02-28,2024-03-29,2024-02-10,2024-07-16,,,SITE002,Dr. Maria Santos,1981,43,YEARS,F,WHITE,NOT HISPANIC OR LATINO,GB40,GB001 40mg QD,GB40,GB001 40mg QD,,,USA
GB001-ASTHMA-201,DM,GB001-ASTHMA-201-SITE002-0392,0392,2024-04-12,2024-08-29,2024-04-12,2024-06-30,2024-03-31,2024-08-29,,,SITE002,Dr. Maria Santos,1971,53,YEARS,F,WHITE,NOT HISPANIC OR LATINO,GB40,GB001 40mg QD,GB40,GB001 40mg QD,,,USA
GB001-ASTHMA-201,DM,GB001-ASTHMA-201-SITE002-0395,0395,2024-03-20,2024-08-06,2024-03-20,2024-04-29,2024-03-10,2024-08-06,,,SITE002,Dr. Maria Santos,1983,41,YEARS,F,WHITE,NOT HISPANIC OR LATINO,GB40,GB001 40mg QD,GB40,GB001 40mg QD,,,USA
GB001-ASTHMA-201,DM,GB001-ASTHMA-201-SITE002-0398,0398,,,,,2024-04-07,,,,SITE002,Dr. Maria Santos,1984,40,YEARS,F,ASIAN,HISPANIC OR LATINO,,,,,SCREEN FAILURE,,USA
GB001-ASTHMA-201,DM,GB001-ASTHMA-201-SITE002-0401,0401,,,,,2024-03-01,,,,SITE002,Dr. Maria Santos,1980,44,YEARS,M,WHITE,HISPANIC OR LATINO,,,,,SCREEN FAILURE,,USA
GB001-ASTHMA-201,DM,GB001-ASTHMA-201-SITE002-0404,0404,2024-03-08,2024-07-25,2024-03-08,2024-05-17,2024-02-04,2024-07-25,,,SITE002,Dr. Maria Santos,1953,71,YEARS,M,WHITE,NOT HISPANIC OR LATINO,GB40,GB001 40mg QD,GB40,GB001 40mg QD,,,USA
GB001-ASTHMA-201,DM,GB001-ASTHMA-201-SITE002-0407,0407,2024-03-06,2024-07-23,2024-03-06,2024-05-02,2024-02-03,2024-07-23,,,SITE002,Dr. Maria Santos,1982,42,YEARS,F,WHITE,NOT HISPANIC OR LATINO,GB40,GB001 40mg QD,GB40,GB001 40mg QD,,,USA
GB001-ASTHMA-201,DM,GB001-ASTHMA-201-SITE002-0410,0410,2024-02-14,2024-04-01,2024-02-14,2024-03-21,2024-01-23,2024-04-01,,,SITE002,Dr. Maria Santos,1972,52,YEARS,F,ASIAN,NOT HISPANIC OR LATINO,PBO,Placebo,PBO,Placebo,,,USA
GB001-ASTHMA-201,DM,GB001-ASTHMA-201-SITE002-0413,0413,2024-03-07,2024-07-24,2024-03-07,2024-04-21,2024-02-22,2024-07-24,,,SITE002,Dr. Maria Santos,1974,50,YEARS,M,WHITE,NOT HISPANIC OR LATINO,PBO,Placebo,PBO,Placebo,,,USA
GB001-ASTHMA-201,DM,GB001-ASTHMA-201-SITE002-0416,0416,2024-04-06,2024-08-23,2024-04-06,2024-06-20,2024-03-04,2024-08-23,,,SITE002,Dr. Maria Santos,1985,39,YEARS,M,WHITE,NOT HISPANIC OR LATINO,GB40,GB001 40mg QD,GB40,GB001 40mg QD,,,USA
GB001-ASTHMA-201,DM,GB001-ASTHMA-201-SITE002-0419,0419,2024-01-29,2024-01-30,2024-01-29,2024-01-30,2024-01-19,2024-01-30,,,SITE002,Dr. Maria Santos,1962,62,YEARS,F,WHITE,NOT HISPANIC OR LATINO,PBO,Placebo,PBO,Placebo,,,USA
GB001-ASTHMA-201,DM,GB001-ASTHMA-201-SITE002-0422,0422,2024-02-15,2024-02-23,2024-02-15,2024-02-21,2024-01-19,2024-02-23,,,SITE002,Dr. Maria Santos,1969,55,YEARS,M,OTHER,NOT HISPANIC OR LATINO,GB40,GB001 40mg QD,GB40,GB001 40mg QD,,,USA
GB001-ASTHMA-201,DM,GB001-ASTHMA-201-SITE002-0425,0425,2024-03-07,2024-07-24,2024-03-07,2024-04-28,2024-02-05,2024-07-24,,,SITE002,Dr. Maria Santos,1989,35,YEARS,M,WHITE,NOT HISPANIC OR LATINO,PBO,Placebo,PBO,Placebo,,,USA
GB001-ASTHMA-201,DM,GB001-ASTHMA-201-SITE002-0428,0428,,,,,2024-04-07,,,,SITE002,Dr. Maria Santos,1967,57,YEARS,F,ASIAN,NOT HISPANIC OR LATINO,,,,,SCREEN FAILURE,,USA
GB001-ASTHMA-201,DM,GB001-ASTHMA-201-SITE002-0431,0431,2024-04-27,2024-09-13,2024-04-27,2024-07-19,2024-03-24,2024-09-13,,,SITE002,Dr. Maria Santos,1984,40,YEARS,M,ASIAN,NOT HISPANIC OR LATINO,PBO,Placebo,PBO,Placebo,,,USA
GB001-ASTHMA-201,DM,GB001-ASTHMA-201-SITE002-0434,0434,2024-03-23,2024-08-09,2024-03-23,2024-04-27,2024-02-22,2024-08-09,,,SITE002,Dr. Maria Santos,1978,46,YEARS,M,ASIAN,NOT HISPANIC OR LATINO,PBO,Placebo,PBO,Placebo,,,USA
GB001-ASTHMA-201,DM,GB001-ASTHMA-201-SITE002-0437,0437,2024-02-21,2024-07-09,2024-02-21,2024-04-23,2024-02-01,2024-07-09,,,SITE002,Dr. Maria Santos,2001,23,YEARS,M,WHITE,NOT HISPANIC OR LATINO,GB40,GB001 40mg QD,GB40,GB001 40mg QD,,,USA
GB001-ASTHMA-201,DM,GB001-ASTHMA-201-SITE002-0440,0440,2024-04-30,2024-05-24,2024-04-30,2024-05-16,2024-04-09,2024-05-24,,,SITE002,Dr. Maria Santos,1975,49,YEARS,M,BLACK OR AFRICAN AMERICAN,NOT HISPANIC OR LATINO,PBO,Placebo,PBO,Placebo,,,USA
GB001-ASTHMA-201,DM,GB001-ASTHMA-201-SITE002-0443,0443,2024-04-20,2024-09-06,2024-04-20,2024-07-04,2024-04-01,2024-09-06,,,SITE002,Dr. Maria Santos,2006,18,YEARS,F,WHITE,NOT HISPANIC OR LATINO,GB40,GB001 40mg QD,GB40,GB001 40mg QD,,,USA
GB001-ASTHMA-201,DM,GB001-ASTHMA-201-SITE002-0446,0446,2024-04-08,2024-08-25,2024-04-08,2024-06-10,2024-03-17,2024-08-25,,,SITE002,Dr. Maria Santos,1974,50,YEARS,F,WHITE,NOT HISPANIC OR LATINO,GB40,GB001 40mg QD,GB40,GB001 40mg QD,,,USA
GB001-ASTHMA-201,DM,GB001-ASTHMA-201-SITE002-0449,0449,2024-03-07,2024-07-24,2024-03-07,2024-04-16,2024-02-19,2024-07-24,,,SITE002,Dr. Maria Santos,1972,52,YEARS,F,WHITE,NOT HISPANIC OR LATINO,PBO,Placebo,PBO,Placebo,,,USA
GB001-ASTHMA-201,DM,GB001-ASTHMA-201-SITE002-0452,0452,2024-02-21,2024-07-09,2024-02-21,2024-05-14,2024-01-22,2024-07-09,,,SITE002,Dr. Maria Santos,1961,63,YEARS,M,BLACK OR AFRICAN AMERICAN,UNKNOWN,PBO,Placebo,PBO,Placebo,,,USA
GB001-ASTHMA-201,DM,GB001-ASTHMA-201-SITE002-0455,0455,2024-03-26,2024-08-12,2024-03-26,2024-05-23,2024-02-22,2024-08-12,,,SITE002,Dr. Maria Santos,1967,57,YEARS,F,WHITE,NOT HISPANIC OR LATINO,PBO,Placebo,PBO,Placebo,,,USA
GB001-ASTHMA-201,DM,GB001-ASTHMA-201-SITE002-0458,0458,2024-03-05,2024-05-22,2024-03-05,2024-04-13,2024-02-15,2024-05-22,,,SITE002,Dr. Maria Santos,1980,44,YEARS,F,WHITE,HISPANIC OR LATINO,GB40,GB001 40mg QD,GB40,GB001 40mg QD,,,USA
GB001-ASTHMA-201,DM,GB001-ASTHMA-201-SITE002-0461,0461,2024-03-29,2024-08-15,2024-03-29,2024-05-19,2024-02-24,2024-08-15,,,SITE002,Dr. Maria Santos,1978,46,YEARS,M,BLACK OR AFRICAN AMERICAN,NOT HISPANIC OR LATINO,GB40,GB001 40mg QD,GB40,GB001 40mg QD,,,USA
GB001-ASTHMA-201,DM,GB001-ASTHMA-201-SITE002-0464,0464,2024-04-22,2024-09-08,2024-04-22,2024-07-13,2024-03-21,2024-09-08,,,SITE002,Dr. Maria Santos,1988,36,YEARS,F,WHITE,NOT HISPANIC OR LATINO,GB40,GB001 40mg QD,GB40,GB001 40mg QD,,,USA
GB001-ASTHMA-201,DM,GB001-ASTHMA-201-SITE002-0467,0467,2024-02-27,2024-07-15,2024-02-27,2024-05-03,2024-02-11,2024-07-15,,,SITE002,Dr. Maria Santos,1994,30,YEARS,M,WHITE,NOT HISPANIC OR LATINO,GB40,GB001 40mg QD,GB40,GB001 40mg QD,,,USA
GB001-ASTHMA-201,DM,GB001-ASTHMA-201-SITE002-0470,0470,2024-03-26,2024-08-12,2024-03-26,2024-05-26,2024-03-18,2024-08-12,,,SITE002,Dr. Maria Santos,2003,21,YEARS,M,BLACK OR AFRICAN AMERICAN,NOT HISPANIC OR LATINO,GB40,GB001 40mg QD,GB40,GB001 40mg QD,,,USA
GB001-ASTHMA-201,DM,GB001-ASTHMA-201-SITE002-0473,0473,2024-02-29,2024-03-01,2024-02-29,2024-03-01,2024-02-10,2024-03-01,,,SITE002,Dr. Maria Santos,1969,55,YEARS,F,WHITE,NOT HISPANIC OR LATINO,PBO,Placebo,PBO,Placebo,,,USA
GB001-ASTHMA-201,DM,GB001-ASTHMA-201-SITE002-0476,0476,2024-02-25,2024-07-13,2024-02-25,2024-05-18,2024-02-15,2024-07-13,,,SITE002,Dr. Maria Santos,1985,39,YEARS,M,WHITE,NOT HISPANIC OR LATINO,PBO,Placebo,PBO,Placebo,,,USA
GB001-ASTHMA-201,DM,GB001-ASTHMA-201-SITE002-0479,0479,2024-04-05,2024-08-22,2024-04-05,2024-05-23,2024-03-13,2024-08-22,,,SITE002,Dr. Maria Santos,1973,51,YEARS,F,WHITE,NOT HISPANIC OR LATINO,PBO,Placebo,PBO,Placebo,,,USA
GB001-ASTHMA-201,DM,GB001-ASTHMA-201-SITE002-0482,0482,2024-02-19,2024-07-07,2024-02-19,2024-05-05,2024-02-06,2024-07-07,,,SITE002,Dr. Maria Santos,1949,75,YEARS,M,WHITE,HISPANIC OR LATINO,GB40,GB001 40mg QD,GB40,GB001 40mg QD,,,USA
GB001-ASTHMA-201,DM,GB001-ASTHMA-201-SITE002-0485,0485,2024-04-21,2024-09-07,2024-04-21,2024-06-27,2024-03-29,2024-09-07,,,SITE002,Dr. Maria Santos,1981,43,YEARS,F,WHITE,NOT HISPANIC OR LATINO,GB40,GB001 40mg QD,GB40,GB001 40mg QD,,,USA
GB001-ASTHMA-201,DM,GB001-ASTHMA-201-SITE002-0488,0488,2024-05-01,2024-09-17,2024-05-01,2024-06-20,2024-04-14,2024-09-17,,,SITE002,Dr. Maria Santos,1986,38,YEARS,M,WHITE,NOT HISPANIC OR LATINO,PBO,Placebo,PBO,Placebo,,,USA
GB001-ASTHMA-201,DM,GB001-ASTHMA-201-SITE002-0491,0491,2024-03-11,2024-07-28,2024-03-11,2024-05-18,2024-02-07,2024-07-28,,,SITE002,Dr. Maria Santos,1982,42,YEARS,F,WHITE,NOT HISPANIC OR LATINO,PBO,Placebo,PBO,Placebo,,,USA
GB001-ASTHMA-201,DM,GB001-ASTHMA-201-SITE002-0494,0494,2024-02-22,2024-07-10,2024-02-22,2024-04-05,2024-02-07,2024-07-10,,,SITE002,Dr. Maria Santos,1992,32,YEARS,F,WHITE,NOT HISPANIC OR LATINO,PBO,Placebo,PBO,Placebo,,,USA
GB001-ASTHMA-201,DM,GB001-ASTHMA-201-SITE002-0497,0497,2024-03-17,2024-08-03,2024-03-17,2024-05-16,2024-02-24,2024-08-03,,,SITE002,Dr. Maria Santos,1963,61,YEARS,M,BLACK OR AFRICAN AMERICAN,NOT HISPANIC OR LATINO,PBO,Placebo,PBO,Placebo,,,USA
GB001-ASTHMA-201,DM,GB001-ASTHMA-201-SITE002-0500,0500,2024-05-02,2024-05-22,2024-05-02,2024-05-18,2024-04-06,2024-05-22,,,SITE002,Dr. Maria Santos,1978,46,YEARS,F,WHITE,NOT HISPANIC OR LATINO,PBO,Placebo,PBO,Placebo,,,USA
GB001-ASTHMA-201,DM,GB001-ASTHMA-201-SITE003-0003,0003,2024-03-02,2024-07-19,2024-03-02,2024-05-24,2024-02-06,2024-07-19,,,SITE003,Dr. James Wilson,1993,31,YEARS,M,WHITE,NOT HISPANIC OR LATINO,GB40,GB001 40mg QD,GB40,GB001 40mg QD,,,USA
GB001-ASTHMA-201,DM,GB001-ASTHMA-201-SITE003-0006,0006,,,,,2024-01-27,,,,SITE003,Dr. James Wilson,1987,37,YEARS,M,BLACK OR AFRICAN AMERICAN,NOT HISPANIC OR LATINO,,,,,SCREEN FAILURE,,USA
GB001-ASTHMA-201,DM,GB001-ASTHMA-201-SITE003-0009,0009,2024-04-08,2024-08-25,2024-04-08,2024-06-11,2024-04-01,2024-08-25,,,SITE003,Dr. James Wilson,1992,32,YEARS,F,WHITE,NOT HISPANIC OR LATINO,GB40,GB001 40mg QD,GB40,GB001 40mg QD,,,USA
GB001-ASTHMA-201,DM,GB001-ASTHMA-201-SITE003-0012,0012,2024-03-07,2024-07-24,2024-03-07,2024-04-15,2024-02-02,2024-07-24,,,SITE003,Dr. James Wilson,1984,40,YEARS,F,WHITE,NOT HISPANIC OR LATINO,PBO,Placebo,PBO,Placebo,,,USA
GB001-ASTHMA-201,DM,GB001-ASTHMA-201-SITE003-0015,0015,2024-02-27,2024-07-15,2024-02-27,2024-04-29,2024-01-29,2024-07-15,,,SITE003,Dr. James Wilson,1982,42,YEARS,F,BLACK OR AFRICAN AMERICAN,NOT HISPANIC OR LATINO,GB40,GB001 40mg QD,GB40,GB001 40mg QD,,,USA
GB001-ASTHMA-201,DM,GB001-ASTHMA-201-SITE003-0018,0018,2024-04-01,2024-08-18,2024-04-01,2024-05-19,2024-03-15,2024-08-18,,,SITE003,Dr. James Wilson,1963,61,YEARS,M,WHITE,NOT HISPANIC OR LATINO,GB40,GB001 40mg QD,GB40,GB001 40mg QD,,,USA
GB001-ASTHMA-201,DM,GB001-ASTHMA-201-SITE003-0021,0021,2024-04-27,2024-09-13,2024-04-27,2024-06-06,2024-04-05,2024-09-13,,,SITE003,Dr. James Wilson,1979,45,YEARS,M,WHITE,HISPANIC OR LATINO,PBO,Placebo,PBO,Placebo,,,USA
GB001-ASTHMA-201,DM,GB001-ASTHMA-201-SITE003-0024,0024,2024-02-22,2024-07-10,2024-02-22,2024-04-25,2024-02-03,2024-07-10,,,SITE003,Dr. James Wilson,2003,21,YEARS,F,BLACK OR AFRICAN AMERICAN,NOT HISPANIC OR LATINO,PBO,Placebo,PBO,Placebo,,,USA
GB001-ASTHMA-201,DM,GB001-ASTHMA-201-SITE003-0027,0027,2024-02-15,2024-07-03,2024-02-15,2024-03-25,2024-01-16,2024-07-03,,,SITE003,Dr. James Wilson,2006,18,YEARS,F,OTHER,NOT HISPANIC OR LATINO,GB40,GB001 40mg QD,GB40,GB001 40mg QD,,,USA
GB001-ASTHMA-201,DM,GB001-ASTHMA-201-SITE003-0030,0030,,,,,2024-01-26,,,,SITE003,Dr. James Wilson,1978,46,YEARS,F,WHITE,HISPANIC OR LATINO,,,,,SCREEN FAILURE,,USA
GB001-ASTHMA-201,DM,GB001-ASTHMA-201-SITE003-0033,0033,2024-04-14,2024-08-31,2024-04-14,2024-05-29,2024-03-17,2024-08-31,,,SITE003,Dr. James Wilson,1986,38,YEARS,M,WHITE,NOT HISPANIC OR LATINO,PBO,Placebo,PBO,Placebo,,,USA
GB001-ASTHMA-201,DM,GB001-ASTHMA-201-SITE003-0036,0036,2024-04-30,2024-05-01,2024-04-30,2024-05-01,2024-03-29,2024-05-01,,,SITE003,Dr. James Wilson,1971,53,YEARS,F,BLACK OR AFRICAN AMERICAN,UNKNOWN,PBO,Placebo,PBO,Placebo,,,USA
GB001-ASTHMA-201,DM,GB001-ASTHMA-201-SITE003-0039,0039,2024-02-29,2024-07-17,2024-02-29,2024-05-05,2024-02-11,2024-07-17,,,SITE003,Dr. James Wilson,1954,70,YEARS,M,WHITE,NOT HISPANIC OR LATINO,GB40,GB001 40mg QD,GB40,GB001 40mg QD,,,USA
GB001-ASTHMA-201,DM,GB001-ASTHMA-201-SITE003-0042,0042,2024-03-19,2024-08-05,2024-03-19,2024-05-27,2024-02-19,2024-08-05,,,SITE003,Dr. James Wilson,1965,59,YEARS,F,BLACK OR AFRICAN AMERICAN,NOT HISPANIC OR LATINO,GB40,GB001 40mg QD,GB40,GB001 40mg QD,,,USA
GB001-ASTHMA-201,DM,GB001-ASTHMA-201-SITE003-0045,0045,2024-05-05,2024-05-13,2024-05-05,2024-05-10,2024-04-09,2024-05-13,,,SITE003,Dr. James Wilson,1978,46,YEARS,M,WHITE,HISPANIC OR LATINO,GB40,GB001 40mg QD,GB40,GB001 40mg QD,,,USA
GB001-ASTHMA-201,DM,GB001-ASTHMA-201-SITE003-0048,0048,2024-04-06,2024-08-23,2024-04-06,2024-05-29,2024-03-02,2024-08-23,,,SITE003,Dr. James Wilson,1949,75,YEARS,M,WHITE,NOT HISPANIC OR LATINO,GB40,GB001 40mg QD,GB40,GB001 40mg QD,,,USA
GB001-ASTHMA-201,DM,GB001-ASTHMA-201-SITE003-0051,0051,2024-02-21,2024-07-09,2024-02-21,2024-04-01,2024-01-24,2024-07-09,,,SITE003,Dr. James Wilson,1980,44,YEARS,F,BLACK OR AFRICAN AMERICAN,NOT HISPANIC OR LATINO,GB40,GB001 40mg QD,GB40,GB001 40mg QD,,,USA
GB001-ASTHMA-201,DM,GB001-ASTHMA-201-SITE003-0054,0054,2024-03-10,2024-07-27,2024-03-10,2024-04-15,2024-02-20,2024-07-27,,,SITE003,Dr. James Wilson,1960,64,YEARS,M,WHITE,NOT HISPANIC OR LATINO,PBO,Placebo,PBO,Placebo,,,USA
GB001-ASTHMA-201,DM,GB001-ASTHMA-201-SITE003-0057,0057,,,,,2024-02-19,,,,SITE003,Dr. James Wilson,1972,52,YEARS,M,WHITE,NOT HISPANIC OR LATINO,,,,,SCREEN FAILURE,,USA
GB001-ASTHMA-201,DM,GB001-ASTHMA-201-SITE003-0060,0060,2024-04-04,2024-08-21,2024-04-04,2024-06-13,2024-03-08,2024-08-21,,,SITE003,Dr. James Wilson,1999,25,YEARS,F,BLACK OR AFRICAN AMERICAN,NOT HISPANIC OR LATINO,PBO,Placebo,PBO,Placebo,,,USA
GB001-ASTHMA-201,DM,GB001-ASTHMA-201-SITE003-0063,0063,2024-02-01,2024-06-19,2024-02-01,2024-04-09,2024-01-16,2024-06-19,,,SITE003,Dr. James Wilson,1980,44,YEARS,F,WHITE,NOT HISPANIC OR LATINO,PBO,Placebo,PBO,Placebo,,,USA
GB001-ASTHMA-201,DM,GB001-ASTHMA-201-SITE003-0066,0066,2024-04-07,2024-08-24,2024-04-07,2024-05-18,2024-03-23,2024-08-24,,,SITE003,Dr. James Wilson,1949,75,YEARS,M,WHITE,NOT HISPANIC OR LATINO,GB40,GB001 40mg QD,GB40,GB001 40mg QD,,,USA
GB001-ASTHMA-201,DM,GB001-ASTHMA-201-SITE003-0069,0069,2024-04-09,2024-08-26,2024-04-09,2024-06-12,2024-03-11,2024-08-26,,,SITE003,Dr. James Wilson,1971,53,YEARS,M,WHITE,NOT HISPANIC OR LATINO,GB40,GB001 40mg QD,GB40,GB001 40mg QD,,,USA
GB001-ASTHMA-201,DM,GB001-ASTHMA-201-SITE003-0072,0072,2024-04-08,2024-08-25,2024-04-08,2024-06-03,2024-03-18,2024-08-25,,,SITE003,Dr. James Wilson,1971,53,YEARS,F,WHITE,NOT HISPANIC OR LATINO,PBO,Placebo,PBO,Placebo,,,USA
GB001-ASTHMA-201,DM,GB001-ASTHMA-201-SITE003-0075,0075,2024-03-15,2024-08-01,2024-03-15,2024-04-21,2024-02-11,2024-08-01,,,SITE003,Dr. James Wilson,1979,45,YEARS,F,WHITE,NOT HISPANIC OR LATINO,PBO,Placebo,PBO,Placebo,,,USA
GB001-ASTHMA-201,DM,GB001-ASTHMA-201-SITE003-0078,0078,2024-04-09,2024-08-26,2024-04-09,2024-05-31,2024-03-07,2024-08-26,,,SITE003,Dr. James Wilson,1986,38,YEARS,M,WHITE,NOT HISPANIC OR LATINO,GB40,GB001 40mg QD,GB40,GB001 40mg QD,,,USA
GB001-ASTHMA-201,DM,GB001-ASTHMA-201-SITE003-0081,0081,2024-04-29,2024-05-04,2024-04-29,2024-05-01,2024-04-02,2024-05-04,,,SITE003,Dr. James Wilson,1988,36,YEARS,M,OTHER,NOT HISPANIC OR LATINO,PBO,Placebo,PBO,Placebo,,,USA
GB001-ASTHMA-201,DM,GB001-ASTHMA-201-SITE003-0084,0084,,,,,2024-01-24,,,,SITE003,Dr. James Wilson,1991,33,YEARS,F,WHITE,NOT HISPANIC OR LATINO,,,,,SCREEN FAILURE,,USA
GB001-ASTHMA-201,DM,GB001-ASTHMA-201-SITE003-0087,0087,2024-04-17,2024-09-03,2024-04-17,2024-06-22,2024-04-05,2024-09-03,,,SITE003,Dr. James Wilson,1979,45,YEARS,M,WHITE,NOT HISPANIC OR LATINO,GB40,GB001 40mg QD,GB40,GB001 40mg QD,,,USA
GB001-ASTHMA-201,DM,GB001-ASTHMA-201-SITE003-0090,0090,2024-03-01,2024-07-18,2024-03-01,2024-04-21,2024-02-18,2024-07-18,,,SITE003,Dr. James Wilson,1979,45,YEARS,F,WHITE,NOT HISPANIC OR LATINO,PBO,Placebo,PBO,Placebo,,,USA
GB001-ASTHMA-201,DM,GB001-ASTHMA-201-SITE003-0093,0093,2024-03-13,2024-07-30,2024-03-13,2024-04-10,2024-02-25,2024-07-30,,,SITE003,Dr. James Wilson,1989,35,YEARS,F,WHITE,UNKNOWN,PBO,Placebo,PBO,Placebo,,,USA
GB001-ASTHMA-201,DM,GB001-ASTHMA-201-SITE003-0096,0096,,,,,2024-03-14,,,,SITE003,Dr. James Wilson,1966,58,YEARS,M,WHITE,NOT HISPANIC OR LATINO,,,,,SCREEN FAILURE,,USA
GB001-ASTHMA-201,DM,GB001-ASTHMA-201-SITE003-0099,0099,2024-02-29,2024-03-06,2024-02-29,2024-03-04,2024-02-02,2024-03-06,,,SITE003,Dr. James Wilson,1971,53,YEARS,F,WHITE,NOT HISPANIC OR LATINO,PBO,Placebo,PBO,Placebo,,,USA
GB001-ASTHMA-201,DM,GB001-ASTHMA-201-SITE003-0102,0102,2024-04-30,2024-09-16,2024-04-30,2024-06-25,2024-04-08,2024-09-16,,,SITE003,Dr. James Wilson,1990,34,YEARS,F,WHITE,NOT HISPANIC OR LATINO,GB40,GB001 40mg QD,GB40,GB001 40mg QD,,,USA
GB001-ASTHMA-201,DM,GB001-ASTHMA-201-SITE003-0105,0105,2024-03-10,2024-07-27,2024-03-10,2024-04-24,2024-02-19,2024-07-27,,,SITE003,Dr. James Wilson,2001,23,YEARS,F,WHITE,NOT HISPANIC OR LATINO,GB40,GB001 40mg QD,GB40,GB001 40mg QD,,,USA
GB001-ASTHMA-201,DM,GB001-ASTHMA-201-SITE003-0108,0108,2024-02-12,2024-06-30,2024-02-12,2024-04-11,2024-01-15,2024-06-30,,,SITE003,Dr. James Wilson,1971,53,YEARS,F,BLACK OR AFRICAN AMERICAN,NOT HISPANIC OR LATINO,PBO,Placebo,PBO,Placebo,,,USA
GB001-ASTHMA-201,DM,GB001-ASTHMA-201-SITE003-0111,0111,2024-02-22,2024-02-27,2024-02-22,2024-02-26,2024-01-30,2024-02-27,,,SITE003,Dr. James Wilson,1960,64,YEARS,F,WHITE,NOT HISPANIC OR LATINO,GB40,GB001 40mg QD,GB40,GB001 40mg QD,,,USA
GB001-ASTHMA-201,DM,GB001-ASTHMA-201-SITE003-0114,0114,2024-04-25,2024-05-24,2024-04-25,2024-05-22,2024-03-29,2024-05-24,,,SITE003,Dr. James Wilson,1982,42,YEARS,M,WHITE,NOT HISPANIC OR LATINO,GB40,GB001 40mg QD,GB40,GB001 40mg QD,,,USA
GB001-ASTHMA-201,DM,GB001-ASTHMA-201-SITE003-0117,0117,2024-04-04,2024-08-21,2024-04-04,2024-05-04,2024-03-02,2024-08-21,,,SITE003,Dr. James Wilson,1970,54,YEARS,F,WHITE,NOT HISPANIC OR LATINO,PBO,Placebo,PBO,Placebo,,,USA
GB001-ASTHMA-201,DM,GB001-ASTHMA-201-SITE003-0120,0120,2024-03-05,2024-07-22,2024-03-05,2024-04-21,2024-02-06,2024-07-22,,,SITE003,Dr. James Wilson,1971,53,YEARS,F,BLACK OR AFRICAN AMERICAN,NOT HISPANIC OR LATINO,PBO,Placebo,PBO,Placebo,,,USA
GB001-ASTHMA-201,DM,GB001-ASTHMA-201-SITE003-0123,0123,2024-02-25,2024-02-26,2024-02-25,2024-02-26,2024-01-22,2024-02-26,,,SITE003,Dr. James Wilson,1977,47,YEARS,F,BLACK OR AFRICAN AMERICAN,UNKNOWN,GB40,GB001 40mg QD,GB40,GB001 40mg QD,,,USA
GB001-ASTHMA-201,DM,GB001-ASTHMA-201-SITE003-0126,0126,,,,,2024-02-01,,,,SITE003,Dr. James Wilson,1968,56,YEARS,M,WHITE,NOT HISPANIC OR LATINO,,,,,SCREEN FAILURE,,USA
GB001-ASTHMA-201,DM,GB001-ASTHMA-201-SITE003-0129,0129,2024-02-07,2024-06-25,2024-02-07,2024-03-12,2024-01-15,2024-06-25,,,SITE003,Dr. James Wilson,1967,57,YEARS,F,WHITE,HISPANIC OR LATINO,PBO,Placebo,PBO,Placebo,,,USA
GB001-ASTHMA-201,DM,GB001-ASTHMA-201-SITE003-0132,0132,2024-03-01,2024-07-18,2024-03-01,2024-05-14,2024-02-20,2024-07-18,,,SITE003,Dr. James Wilson,1960,64,YEARS,F,WHITE,NOT HISPANIC OR LATINO,PBO,Placebo,PBO,Placebo,,,USA
GB001-ASTHMA-201,DM,GB001-ASTHMA-201-SITE003-0135,0135,2024-03-23,2024-03-28,2024-03-23,2024-03-28,2024-03-10,2024-03-28,,,SITE003,Dr. James Wilson,1973,51,YEARS,F,BLACK OR AFRICAN AMERICAN,NOT HISPANIC OR LATINO,PBO,Placebo,PBO,Placebo,,,USA
GB001-ASTHMA-201,DM,GB001-ASTHMA-201-SITE003-0138,0138,2024-02-25,2024-04-14,2024-02-25,2024-04-09,2024-01-27,2024-04-14,,,SITE003,Dr. James Wilson,1991,33,YEARS,M,WHITE,NOT HISPANIC OR LATINO,GB40,GB001 40mg QD,GB40,GB001 40mg QD,,,USA
GB001-ASTHMA-201,DM,GB001-ASTHMA-201-SITE003-0141,0141,,,,,2024-04-01,,,,SITE003,Dr. James Wilson,1978,46,YEARS,M,WHITE,NOT HISPANIC OR LATINO,,,,,SCREEN FAILURE,,USA
GB001-ASTHMA-201,DM,GB001-ASTHMA-201-SITE003-0144,0144,2024-02-10,2024-02-11,2024-02-10,2024-02-11,2024-02-03,2024-02-11,,,SITE003,Dr. James Wilson,1981,43,YEARS,M,BLACK OR AFRICAN AMERICAN,NOT HISPANIC OR LATINO,GB40,GB001 40mg QD,GB40,GB001 40mg QD,,,USA
GB001-ASTHMA-201,DM,GB001-ASTHMA-201-SITE003-0147,0147,2024-04-02,2024-08-19,2024-04-02,2024-06-13,2024-03-05,2024-08-19,,,SITE003,Dr. James Wilson,1991,33,YEARS,F,ASIAN,NOT HISPANIC OR LATINO,GB40,GB001 40mg QD,GB40,GB001 40mg QD,,,USA
GB001-ASTHMA-201,DM,GB001-ASTHMA-201-SITE003-0150,0150,2024-02-24,2024-07-12,2024-02-24,2024-05-17,2024-02-04,2024-07-12,,,SITE003,Dr. James Wilson,1973,51,YEARS,F,WHITE,HISPANIC OR LATINO,PBO,Placebo,PBO,Placebo,,,USA
GB001-ASTHMA-201,DM,GB001-ASTHMA-201-SITE003-0153,0153,2024-04-03,2024-08-20,2024-04-03,2024-06-25,2024-03-17,2024-08-20,,,SITE003,Dr. James Wilson,1986,38,YEARS,M,BLACK OR AFRICAN AMERICAN,NOT HISPANIC OR LATINO,PBO,Placebo,PBO,Placebo,,,USA
GB001-ASTHMA-201,DM,GB001-ASTHMA-201-SITE003-0156,0156,2024-04-09,2024-08-26,2024-04-09,2024-06-03,2024-03-21,2024-08-26,,,SITE003,Dr. James Wilson,1985,39,YEARS,M,OTHER,NOT HISPANIC OR LATINO,GB40,GB001 40mg QD,GB40,GB001 40mg QD,,,USA
GB001-ASTHMA-201,DM,GB001-ASTHMA-201-SITE003-0159,0159,2024-03-26,2024-08-12,2024-03-26,2024-05-11,2024-02-25,2024-08-12,,,SITE003,Dr. James Wilson,1966,58,YEARS,F,OTHER,NOT HISPANIC OR LATINO,PBO,Placebo,PBO,Placebo,,,USA
GB001-ASTHMA-201,DM,GB001-ASTHMA-201-SITE003-0162,0162,2024-02-09,2024-06-27,2024-02-09,2024-04-13,2024-01-19,2024-06-27,,,SITE003,Dr. James Wilson,1977,47,YEARS,M,WHITE,NOT HISPANIC OR LATINO,PBO,Placebo,PBO,Placebo,,,USA
GB001-ASTHMA-201,DM,GB001-ASTHMA-201-SITE003-0165,0165,,,,,2024-04-08,,,,SITE003,Dr. James Wilson,1978,46,YEARS,F,OTHER,HISPANIC OR LATINO,,,,,SCREEN FAILURE,,USA
GB001-ASTHMA-201,DM,GB001-ASTHMA-201-SITE003-0168,0168,2024-02-05,2024-06-23,2024-02-05,2024-04-27,2024-01-19,2024-06-23,,,SITE003,Dr. James Wilson,1968,56,YEARS,F,BLACK OR AFRICAN AMERICAN,NOT HISPANIC OR LATINO,PBO,Placebo,PBO,Placebo,,,USA
GB001-ASTHMA-201,DM,GB001-ASTHMA-201-SITE003-0171,0171,,,,,2024-04-03,,,,SITE003,Dr. James Wilson,1985,39,YEARS,F,WHITE,NOT HISPANIC OR LATINO,,,,,SCREEN FAILURE,,USA
GB001-ASTHMA-201,DM,GB001-ASTHMA-201-SITE003-0174,0174,2024-03-23,2024-08-09,2024-03-23,2024-06-08,2024-03-14,2024-08-09,,,SITE003,Dr. James Wilson,1982,42,YEARS,F,WHITE,UNKNOWN,PBO,Placebo,PBO,Placebo,,,USA
GB001-ASTHMA-201,DM,GB001-ASTHMA-201-SITE003-0177,0177,2024-02-29,2024-07-17,2024-02-29,2024-04-29,2024-02-05,2024-07-17,,,SITE003,Dr. James Wilson,2006,18,YEARS,F,BLACK OR AFRICAN AMERICAN,HISPANIC OR LATINO,PBO,Placebo,PBO,Placebo,,,USA
GB001-ASTHMA-201,DM,GB001-ASTHMA-201-SITE003-0180,0180,,,,,2024-01-29,,,,SITE003,Dr. James Wilson,1997,27,YEARS,M,WHITE,NOT HISPANIC OR LATINO,,,,,SCREEN FAILURE,,USA
GB001-ASTHMA-201,DM,GB001-ASTHMA-201-SITE003-0183,0183,2024-03-31,2024-08-17,2024-03-31,2024-06-07,2024-03-22,2024-08-17,,,SITE003,Dr. James Wilson,1949,75,YEARS,M,WHITE,NOT HISPANIC OR LATINO,PBO,Placebo,PBO,Placebo,,,USA
GB001-ASTHMA-201,DM,GB001-ASTHMA-201-SITE003-0186,0186,2024-03-16,2024-08-02,2024-03-16,2024-04-23,2024-02-17,2024-08-02,,,SITE003,Dr. James Wilson,1967,57,YEARS,F,WHITE,NOT HISPANIC OR LATINO,GB40,GB001 40mg QD,GB40,GB001 40mg QD,,,USA
GB001-ASTHMA-201,DM,GB001-ASTHMA-201-SITE003-0189,0189,2024-02-21,2024-07-09,2024-02-21,2024-04-26,2024-01-19,2024-07-09,,,SITE003,Dr. James Wilson,1995,29,YEARS,F,WHITE,NOT HISPANIC OR LATINO,GB40,GB001 40mg QD,GB40,GB001 40mg QD,,,USA
GB001-ASTHMA-201,DM,GB001-ASTHMA-201-SITE003-0192,0192,2024-02-10,2024-02-22,2024-02-10,2024-02-18,2024-01-23,2024-02-22,,,SITE003,Dr. James Wilson,1963,61,YEARS,M,WHITE,NOT HISPANIC OR LATINO,GB40,GB001 40mg QD,GB40,GB001 40mg QD,,,USA
GB001-ASTHMA-201,DM,GB001-ASTHMA-201-SITE003-0195,0195,2024-03-12,2024-07-29,2024-03-12,2024-04-29,2024-02-07,2024-07-29,,,SITE003,Dr. James Wilson,1949,75,YEARS,M,BLACK OR AFRICAN AMERICAN,NOT HISPANIC OR LATINO,PBO,Placebo,PBO,Placebo,,,USA
GB001-ASTHMA-201,DM,GB001-ASTHMA-201-SITE003-0198,0198,2024-05-05,2024-09-21,2024-05-05,2024-06-24,2024-04-02,2024-09-21,,,SITE003,Dr. James Wilson,2006,18,YEARS,M,WHITE,NOT HISPANIC OR LATINO,GB40,GB001 40mg QD,GB40,GB001 40mg QD,,,USA
GB001-ASTHMA-201,DM,GB001-ASTHMA-201-SITE003-0201,0201,2024-02-27,2024-07-15,2024-02-27,2024-04-17,2024-01-24,2024-07-15,,,SITE003,Dr. James Wilson,1964,60,YEARS,F,OTHER,NOT HISPANIC OR LATINO,GB40,GB001 40mg QD,GB40,GB001 40mg QD,,,USA
GB001-ASTHMA-201,DM,GB001-ASTHMA-201-SITE003-0204,0204,2024-03-13,2024-07-30,2024-03-13,2024-06-04,2024-02-27,2024-07-30,,,SITE003,Dr. James Wilson,1990,34,YEARS,M,WHITE,NOT HISPANIC OR LATINO,GB40,GB001 40mg QD,GB40,GB001 40mg QD,,,USA
GB001-ASTHMA-201,DM,GB001-ASTHMA-201-SITE003-0207,0207,2024-04-15,2024-09-01,2024-04-15,2024-05-19,2024-04-08,2024-09-01,,,SITE003,Dr. James Wilson,1975,49,YEARS,M,WHITE,NOT HISPANIC OR LATINO,PBO,Placebo,PBO,Placebo,,,USA
GB001-ASTHMA-201,DM,GB001-ASTHMA-201-SITE003-0210,0210,2024-04-07,2024-08-24,2024-04-07,2024-06-10,2024-03-05,2024-08-24,,,SITE003,Dr. James Wilson,1970,54,YEARS,M,WHITE,NOT HISPANIC OR LATINO,PBO,Placebo,PBO,Placebo,,,USA
GB001-ASTHMA-201,DM,GB001-ASTHMA-201-SITE003-0213,0213,2024-04-24,2024-09-10,2024-04-24,2024-06-18,2024-03-26,2024-09-10,,,SITE003,Dr. James Wilson,1949,75,YEARS,M,OTHER,NOT HISPANIC OR LATINO,GB40,GB001 40mg QD,GB40,GB001 40mg QD,,,USA
GB001-ASTHMA-201,DM,GB001-ASTHMA-201-SITE003-0216,0216,2024-02-24,2024-07-12,2024-02-24,2024-05-17,2024-01-29,2024-07-12,,,SITE003,Dr. James Wilson,1998,26,YEARS,F,WHITE,NOT HISPANIC OR LATINO,PBO,Placebo,PBO,Placebo,,,USA
GB001-ASTHMA-201,DM,GB001-ASTHMA-201-SITE003-0219,0219,2024-04-26,2024-09-12,2024-04-26,2024-06-26,2024-03-29,2024-09-12,,,SITE003,Dr. James Wilson,1969,55,YEARS,F,BLACK OR AFRICAN AMERICAN,NOT HISPANIC OR LATINO,GB40,GB001 40mg QD,GB40,GB001 40mg QD,,,USA
GB001-ASTHMA-201,DM,GB001-ASTHMA-201-SITE003-0222,0222,2024-03-28,2024-08-14,2024-03-28,2024-05-25,2024-03-21,2024-08-14,,,SITE003,Dr. James Wilson,1949,75,YEARS,F,BLACK OR AFRICAN AMERICAN,NOT HISPANIC OR LATINO,GB40,GB001 40mg QD,GB40,GB001 40mg QD,,,USA
GB001-ASTHMA-201,DM,GB001-ASTHMA-201-SITE003-0225,0225,2024-04-14,2024-08-31,2024-04-14,2024-06-07,2024-04-03,2024-08-31,,,SITE003,Dr. James Wilson,1990,34,YEARS,M,BLACK OR AFRICAN AMERICAN,NOT HISPANIC OR LATINO,PBO,Placebo,PBO,Placebo,,,USA
GB001-ASTHMA-201,DM,GB001-ASTHMA-201-SITE003-0228,0228,2024-03-03,2024-03-04,2024-03-03,2024-03-04,2024-01-28,2024-03-04,,,SITE003,Dr. James Wilson,1971,53,YEARS,M,OTHER,HISPANIC OR LATINO,GB40,GB001 40mg QD,GB40,GB001 40mg QD,,,USA
GB001-ASTHMA-201,DM,GB001-ASTHMA-201-SITE003-0231,0231,2024-04-16,2024-09-02,2024-04-16,2024-07-06,2024-04-08,2024-09-02,,,SITE003,Dr. James Wilson,1960,64,YEARS,M,WHITE,NOT HISPANIC OR LATINO,GB40,GB001 40mg QD,GB40,GB001 40mg QD,,,USA
GB001-ASTHMA-201,DM,GB001-ASTHMA-201-SITE003-0234,0234,2024-03-06,2024-03-07,2024-03-06,2024-03-07,2024-02-03,2024-03-07,,,SITE003,Dr. James Wilson,1981,43,YEARS,M,BLACK OR AFRICAN AMERICAN,NOT HISPANIC OR LATINO,PBO,Placebo,PBO,Placebo,,,USA
GB001-ASTHMA-201,DM,GB001-ASTHMA-201-SITE003-0237,0237,2024-04-24,2024-09-10,2024-04-24,2024-06-23,2024-04-12,2024-09-10,,,SITE003,Dr. James Wilson,1980,44,YEARS,M,BLACK OR AFRICAN AMERICAN,NOT HISPANIC OR LATINO,GB40,GB001 40mg QD,GB40,GB001 40mg QD,,,USA
GB001-ASTHMA-201,DM,GB001-ASTHMA-201-SITE003-0240,0240,2024-04-27,2024-09-13,2024-04-27,2024-05-24,2024-03-23,2024-09-13,,,SITE003,Dr. James Wilson,1975,49,YEARS,M,WHITE,NOT HISPANIC OR LATINO,PBO,Placebo,PBO,Placebo,,,USA
GB001-ASTHMA-201,DM,GB001-ASTHMA-201-SITE003-0243,0243,2024-04-05,2024-08-22,2024-04-05,2024-06-05,2024-03-03,2024-08-22,,,SITE003,Dr. James Wilson,1997,27,YEARS,F,WHITE,HISPANIC OR LATINO,GB40,GB001 40mg QD,GB40,GB001 40mg QD,,,USA
GB001-ASTHMA-201,DM,GB001-ASTHMA-201-SITE003-0246,0246,2024-04-05,2024-08-22,2024-04-05,2024-05-30,2024-03-12,2024-08-22,,,SITE003,Dr. James Wilson,1981,43,YEARS,M,WHITE,NOT HISPANIC OR LATINO,PBO,Placebo,PBO,Placebo,,,USA
GB001-ASTHMA-201,DM,GB001-ASTHMA-201-SITE003-0249,0249,2024-03-05,2024-07-22,2024-03-05,2024-05-15,2024-02-24,2024-07-22,,,SITE003,Dr. James Wilson,1959,65,YEARS,M,ASIAN,NOT HISPANIC OR LATINO,PBO,Placebo,PBO,Placebo,,,USA
GB001-ASTHMA-201,DM,GB001-ASTHMA-201-SITE003-0252,0252,2024-03-13,2024-07-30,2024-03-13,2024-05-12,2024-03-03,2024-07-30,,,SITE003,Dr. James Wilson,1974,50,YEARS,F,WHITE,NOT HISPANIC OR LATINO,GB40,GB001 40mg QD,GB40,GB001 40mg QD,,,USA
GB001-ASTHMA-201,DM,GB001-ASTHMA-201-SITE003-0255,0255,2024-02-12,2024-06-30,2024-02-12,2024-04-25,2024-01-29,2024-06-30,,,SITE003,Dr. James Wilson,1987,37,YEARS,F,WHITE,HISPANIC OR LATINO,PBO,Placebo,PBO,Placebo,,,USA
GB001-ASTHMA-201,DM,GB001-ASTHMA-201-SITE003-0258,0258,2024-04-18,2024-09-04,2024-04-18,2024-06-30,2024-03-15,2024-09-04,,,SITE003,Dr. James Wilson,1991,33,YEARS,M,BLACK OR AFRICAN AMERICAN,NOT HISPANIC OR LATINO,PBO,Placebo,PBO,Placebo,,,USA
GB001-ASTHMA-201,DM,GB001-ASTHMA-201-SITE003-0261,0261,2024-01-31,2024-02-08,2024-01-31,2024-02-04,2024-01-21,2024-02-08,,,SITE003,Dr. James Wilson,1966,58,YEARS,M,ASIAN,NOT HISPANIC OR LATINO,GB40,GB001 40mg QD,GB40,GB001 40mg QD,,,USA
GB001-ASTHMA-201,DM,GB001-ASTHMA-201-SITE003-0264,0264,2024-02-15,2024-03-16,2024-02-15,2024-02-29,2024-01-27,2024-03-16,,,SITE003,Dr. James Wilson,1987,37,YEARS,M,WHITE,NOT HISPANIC OR LATINO,PBO,Placebo,PBO,Placebo,,,USA
GB001-ASTHMA-201,DM,GB001-ASTHMA-201-SITE003-0267,0267,,,,,2024-04-09,,,,SITE003,Dr. James Wilson,1955,69,YEARS,F,WHITE,UNKNOWN,,,,,SCREEN FAILURE,,USA
GB001-ASTHMA-201,DM,GB001-ASTHMA-201-SITE003-0270,0270,2024-03-09,2024-03-18,2024-03-09,2024-03-18,2024-02-05,2024-03-18,,,SITE003,Dr. James Wilson,2005,19,YEARS,F,WHITE,NOT HISPANIC OR LATINO,GB40,GB001 40mg QD,GB40,GB001 40mg QD,,,USA
GB001-ASTHMA-201,DM,GB001-ASTHMA-201-SITE003-0273,0273,2024-04-06,2024-08-23,2024-04-06,2024-06-10,2024-03-08,2024-08-23,,,SITE003,Dr. James Wilson,2006,18,YEARS,M,ASIAN,NOT HISPANIC OR LATINO,PBO,Placebo,PBO,Placebo,,,USA
GB001-ASTHMA-201,DM,GB001-ASTHMA-201-SITE003-0276,0276,2024-02-09,2024-06-27,2024-02-09,2024-03-11,2024-01-17,2024-06-27,,,SITE003,Dr. James Wilson,1982,42,YEARS,F,WHITE,NOT HISPANIC OR LATINO,GB40,GB001 40mg QD,GB40,GB001 40mg QD,,,USA
GB001-ASTHMA-201,DM,GB001-ASTHMA-201-SITE003-0279,0279,2024-03-01,2024-07-18,2024-03-01,2024-04-28,2024-02-19,2024-07-18,,,SITE003,Dr. James Wilson,1977,47,YEARS,M,WHITE,NOT HISPANIC OR LATINO,GB40,GB001 40mg QD,GB40,GB001 40mg QD,,,USA
GB001-ASTHMA-201,DM,GB001-ASTHMA-201-SITE003-0282,0282,2024-02-14,2024-04-02,2024-02-14,2024-03-13,2024-01-20,2024-04-02,,,SITE003,Dr. James Wilson,1983,41,YEARS,M,WHITE,NOT HISPANIC OR LATINO,GB40,GB001 40mg QD,GB40,GB001 40mg QD,,,USA
GB001-ASTHMA-201,DM,GB001-ASTHMA-201-SITE003-0285,0285,2024-03-12,2024-07-29,2024-03-12,2024-05-21,2024-02-29,2024-07-29,,,SITE003,Dr. James Wilson,1979,45,YEARS,F,OTHER,HISPANIC OR LATINO,PBO,Placebo,PBO,Placebo,,,USA
GB001-ASTHMA-201,DM,GB001-ASTHMA-201-SITE003-0288,0288,2024-05-09,2024-09-25,2024-05-09,2024-07-11,2024-04-10,2024-09-25,,,SITE003,Dr. James Wilson,1957,67,YEARS,F,WHITE,NOT HISPANIC OR LATINO,GB40,GB001 40mg QD,GB40,GB001 40mg QD,,,USA
GB001-ASTHMA-201,DM,GB001-ASTHMA-201-SITE003-0291,0291,2024-04-02,2024-08-19,2024-04-02,2024-06-24,2024-03-11,2024-08-19,,,SITE003,Dr. James Wilson,1969,55,YEARS,M,ASIAN,NOT HISPANIC OR LATINO,GB40,GB001 40mg QD,GB40,GB001 40mg QD,,,USA
GB001-ASTHMA-201,DM,GB001-ASTHMA-201-SITE003-0294,0294,2024-02-18,2024-07-06,2024-02-18,2024-04-14,2024-01-19,2024-07-06,,,SITE003,Dr. James Wilson,1987,37,YEARS,F,BLACK OR AFRICAN AMERICAN,NOT HISPANIC OR LATINO,GB40,GB001 40mg QD,GB40,GB001 40mg QD,,,USA
GB001-ASTHMA-201,DM,GB001-ASTHMA-201-SITE003-0297,0297,2024-05-03,2024-09-19,2024-05-03,2024-06-25,2024-04-07,2024-09-19,,,SITE003,Dr. James Wilson,1973,51,YEARS,F,WHITE,NOT HISPANIC OR LATINO,GB40,GB001 40mg QD,GB40,GB001 40mg QD,,,USA
GB001-ASTHMA-201,DM,GB001-ASTHMA-201-SITE003-0300,0300,2024-03-23,2024-04-05,2024-03-23,2024-04-02,2024-03-11,2024-04-05,,,SITE003,Dr. James Wilson,1998,26,YEARS,M,WHITE,NOT HISPANIC OR LATINO,PBO,Placebo,PBO,Placebo,,,USA
GB001-ASTHMA-201,DM,GB001-ASTHMA-201-SITE003-0303,0303,2024-02-16,2024-07-04,2024-02-16,2024-03-26,2024-02-09,2024-07-04,,,SITE003,Dr. James Wilson,1998,26,YEARS,M,ASIAN,NOT HISPANIC OR LATINO,GB40,GB001 40mg QD,GB40,GB001 40mg QD,,,USA
GB001-ASTHMA-201,DM,GB001-ASTHMA-201-SITE003-0306,0306,2024-03-03,2024-07-20,2024-03-03,2024-04-18,2024-02-13,2024-07-20,,,SITE003,Dr. James Wilson,1999,25,YEARS,M,OTHER,HISPANIC OR LATINO,PBO,Placebo,PBO,Placebo,,,USA
GB001-ASTHMA-201,DM,GB001-ASTHMA-201-SITE003-0309,0309,2024-03-01,2024-07-18,2024-03-01,2024-05-10,2024-02-23,2024-07-18,,,SITE003,Dr. James Wilson,1972,52,YEARS,F,OTHER,NOT HISPANIC OR LATINO,PBO,Placebo,PBO,Placebo,,,USA
GB001-ASTHMA-201,DM,GB001-ASTHMA-201-SITE003-0312,0312,2024-03-28,2024-08-14,2024-03-28,2024-05-08,2024-03-12,2024-08-14,,,SITE003,Dr. James Wilson,2006,18,YEARS,F,WHITE,NOT HISPANIC OR LATINO,GB40,GB001 40mg QD,GB40,GB001 40mg QD,,,USA
GB001-ASTHMA-201,DM,GB001-ASTHMA-201-SITE003-0315,0315,2024-02-23,2024-07-11,2024-02-23,2024-05-07,2024-01-27,2024-07-11,,,SITE003,Dr. James Wilson,1997,27,YEARS,F,BLACK OR AFRICAN AMERICAN,NOT HISPANIC OR LATINO,GB40,GB001 40mg QD,GB40,GB001 40mg QD,,,USA
GB001-ASTHMA-201,DM,GB001-ASTHMA-201-SITE003-0318,0318,2024-04-29,2024-09-15,2024-04-29,2024-07-21,2024-04-07,2024-09-15,,,SITE003,Dr. James Wilson,1979,45,YEARS,M,BLACK OR AFRICAN AMERICAN,NOT HISPANIC OR LATINO,GB40,GB001 40mg QD,GB40,GB001 40mg QD,,,USA
GB001-ASTHMA-201,DM,GB001-ASTHMA-201-SITE003-0321,0321,2024-05-07,2024-09-23,2024-05-07,2024-07-06,2024-04-04,2024-09-23,,,SITE003,Dr. James Wilson,1975,49,YEARS,F,BLACK OR AFRICAN AMERICAN,NOT HISPANIC OR LATINO,GB40,GB001 40mg QD,GB40,GB001 40mg QD,,,USA
GB001-ASTHMA-201,DM,GB001-ASTHMA-201-SITE003-0324,0324,2024-02-27,2024-04-18,2024-02-27,2024-03-29,2024-02-05,2024-04-18,,,SITE003,Dr. James Wilson,1963,61,YEARS,M,WHITE,NOT HISPANIC OR LATINO,GB40,GB001 40mg QD,GB40,GB001 40mg QD,,,USA
GB001-ASTHMA-201,DM,GB001-ASTHMA-201-SITE003-0327,0327,2024-04-16,2024-04-19,2024-04-16,2024-04-19,2024-03-12,2024-04-19,,,SITE003,Dr. James Wilson,1972,52,YEARS,F,ASIAN,NOT HISPANIC OR LATINO,GB40,GB001 40mg QD,GB40,GB001 40mg QD,,,USA
GB001-ASTHMA-201,DM,GB001-ASTHMA-201-SITE003-0330,0330,2024-03-18,2024-08-04,2024-03-18,2024-04-25,2024-03-01,2024-08-04,,,SITE003,Dr. James Wilson,1995,29,YEARS,F,WHITE,NOT HISPANIC OR LATINO,GB40,GB001 40mg QD,GB40,GB001 40mg QD,,,USA
GB001-ASTHMA-201,DM,GB001-ASTHMA-201-SITE003-0333,0333,2024-02-21,2024-07-09,2024-02-21,2024-05-02,2024-02-14,2024-07-09,,,SITE003,Dr. James Wilson,1958,66,YEARS,M,OTHER,NOT HISPANIC OR LATINO,GB40,GB001 40mg QD,GB40,GB001 40mg QD,,,USA
GB001-ASTHMA-201,DM,GB001-ASTHMA-201-SITE003-0336,0336,2024-02-22,2024-07-10,2024-02-22,2024-04-06,2024-02-13,2024-07-10,,,SITE003,Dr. James Wilson,1996,28,YEARS,F,WHITE,NOT HISPANIC OR LATINO,PBO,Placebo,PBO,Placebo,,,USA
GB001-ASTHMA-201,DM,GB001-ASTHMA-201-SITE003-0339,0339,2024-02-04,2024-06-22,2024-02-04,2024-03-19,2024-01-27,2024-06-22,,,SITE003,Dr. James Wilson,1989,35,YEARS,M,WHITE,NOT HISPANIC OR LATINO,GB40,GB001 40mg QD,GB40,GB001 40mg QD,,,USA
GB001-ASTHMA-201,DM,GB001-ASTHMA-201-SITE003-0342,0342,2024-03-31,2024-08-17,2024-03-31,2024-05-10,2024-03-03,2024-08-17,,,SITE003,Dr. James Wilson,1975,49,YEARS,F,OTHER,NOT HISPANIC OR LATINO,GB40,GB001 40mg QD,GB40,GB001 40mg QD,,,USA
GB001-ASTHMA-201,DM,GB001-ASTHMA-201-SITE003-0345,0345,2024-03-29,2024-08-15,2024-03-29,2024-06-11,2024-03-14,2024-08-15,,,SITE003,Dr. James Wilson,1949,75,YEARS,M,WHITE,NOT HISPANIC OR LATINO,PBO,Placebo,PBO,Placebo,,,USA
GB001-ASTHMA-201,DM,GB001-ASTHMA-201-SITE003-0348,0348,2024-05-07,2024-09-23,2024-05-07,2024-07-29,2024-04-06,2024-09-23,,,SITE003,Dr. James Wilson,1991,33,YEARS,M,WHITE,NOT HISPANIC OR LATINO,GB40,GB001 40mg QD,GB40,GB001 40mg QD,,,USA
GB001-ASTHMA-201,DM,GB001-ASTHMA-201-SITE003-0351,0351,2024-03-05,2024-07-22,2024-03-05,2024-04-28,2024-02-11,2024-07-22,,,SITE003,Dr. James Wilson,1997,27,YEARS,F,WHITE,NOT HISPANIC OR LATINO,PBO,Placebo,PBO,Placebo,,,USA
GB001-ASTHMA-201,DM,GB001-ASTHMA-201-SITE003-0354,0354,2024-04-21,2024-09-07,2024-04-21,2024-06-19,2024-04-07,2024-09-07,,,SITE003,Dr. James Wilson,1982,42,YEARS,M,ASIAN,NOT HISPANIC OR LATINO,PBO,Placebo,PBO,Placebo,,,USA
GB001-ASTHMA-201,DM,GB001-ASTHMA-201-SITE003-0357,0357,2024-02-16,2024-02-17,2024-02-16,2024-02-17,2024-01-31,2024-02-17,,,SITE003,Dr. James Wilson,2005,19,YEARS,M,BLACK OR AFRICAN AMERICAN,NOT HISPANIC OR LATINO,PBO,Placebo,PBO,Placebo,,,USA
GB001-ASTHMA-201,DM,GB001-ASTHMA-201-SITE003-0360,0360,2024-02-24,2024-07-12,2024-02-24,2024-04-29,2024-02-08,2024-07-12,,,SITE003,Dr. James Wilson,1986,38,YEARS,F,WHITE,UNKNOWN,GB40,GB001 40mg QD,GB40,GB001 40mg QD,,,USA
GB001-ASTHMA-201,DM,GB001-ASTHMA-201-SITE003-0363,0363,,,,,2024-02-05,,,,SITE003,Dr. James Wilson,1959,65,YEARS,F,WHITE,NOT HISPANIC OR LATINO,,,,,SCREEN FAILURE,,USA
GB001-ASTHMA-201,DM,GB001-ASTHMA-201-SITE003-0366,0366,2024-03-07,2024-07-24,2024-03-07,2024-05-23,2024-02-02,2024-07-24,,,SITE003,Dr. James Wilson,1988,36,YEARS,F,WHITE,NOT HISPANIC OR LATINO,PBO,Placebo,PBO,Placebo,,,USA
GB001-ASTHMA-201,DM,GB001-ASTHMA-201-SITE003-0369,0369,2024-03-21,2024-08-07,2024-03-21,2024-05-17,2024-02-20,2024-08-07,,,SITE003,Dr. James Wilson,2000,24,YEARS,F,BLACK OR AFRICAN AMERICAN,NOT HISPANIC OR LATINO,PBO,Placebo,PBO,Placebo,,,USA
GB001-ASTHMA-201,DM,GB001-ASTHMA-201-SITE003-0372,0372,2024-04-21,2024-09-07,2024-04-21,2024-05-26,2024-03-31,2024-09-07,,,SITE003,Dr. James Wilson,1973,51,YEARS,M,ASIAN,NOT HISPANIC OR LATINO,PBO,Placebo,PBO,Placebo,,,USA
GB001-ASTHMA-201,DM,GB001-ASTHMA-201-SITE003-0375,0375,2024-02-16,2024-07-04,2024-02-16,2024-04-20,2024-01-21,2024-07-04,,,SITE003,Dr. James Wilson,1986,38,YEARS,F,WHITE,NOT HISPANIC OR LATINO,GB40,GB001 40mg QD,GB40,GB001 40mg QD,,,USA
GB001-ASTHMA-201,DM,GB001-ASTHMA-201-SITE003-0378,0378,2024-04-16,2024-09-02,2024-04-16,2024-06-05,2024-04-08,2024-09-02,,,SITE003,Dr. James Wilson,1951,73,YEARS,M,WHITE,NOT HISPANIC OR LATINO,PBO,Placebo,PBO,Placebo,,,USA
GB001-ASTHMA-201,DM,GB001-ASTHMA-201-SITE003-0381,0381,2024-03-07,2024-07-24,2024-03-07,2024-04-17,2024-02-19,2024-07-24,,,SITE003,Dr. James Wilson,1984,40,YEARS,F,WHITE,NOT HISPANIC OR LATINO,PBO,Placebo,PBO,Placebo,,,USA
GB001-ASTHMA-201,DM,GB001-ASTHMA-201-SITE003-0384,0384,2024-05-01,2024-09-17,2024-05-01,2024-06-25,2024-04-06,2024-09-17,,,SITE003,Dr. James Wilson,1978,46,YEARS,F,BLACK OR AFRICAN AMERICAN,NOT HISPANIC OR LATINO,GB40,GB001 40mg QD,GB40,GB001 40mg QD,,,USA
GB001-ASTHMA-201,DM,GB001-ASTHMA-201-SITE003-0387,0387,2024-02-06,2024-06-24,2024-02-06,2024-04-08,2024-01-22,2024-06-24,,,SITE003,Dr. James Wilson,1989,35,YEARS,M,OTHER,NOT HISPANIC OR LATINO,GB40,GB001 40mg QD,GB40,GB001 40mg QD,,,USA
GB001-ASTHMA-201,DM,GB001-ASTHMA-201-SITE003-0390,0390,2024-04-12,2024-08-29,2024-04-12,2024-06-19,2024-03-24,2024-08-29,,,SITE003,Dr. James Wilson,1984,40,YEARS,M,BLACK OR AFRICAN AMERICAN,NOT HISPANIC OR LATINO,PBO,Placebo,PBO,Placebo,,,USA
GB001-ASTHMA-201,DM,GB001-ASTHMA-201-SITE003-0393,0393,2024-04-05,2024-08-22,2024-04-05,2024-06-17,2024-03-11,2024-08-22,,,SITE003,Dr. James Wilson,1987,37,YEARS,M,WHITE,NOT HISPANIC OR LATINO,GB40,GB001 40mg QD,GB40,GB001 40mg QD,,,USA
GB001-ASTHMA-201,DM,GB001-ASTHMA-201-SITE003-0396,0396,2024-03-24,2024-03-27,2024-03-24,2024-03-25,2024-02-26,2024-03-27,,,SITE003,Dr. James Wilson,1953,71,YEARS,F,WHITE,NOT HISPANIC OR LATINO,PBO,Placebo,PBO,Placebo,,,USA
GB001-ASTHMA-201,DM,GB001-ASTHMA-201-SITE003-0399,0399,2024-03-05,2024-07-22,2024-03-05,2024-05-17,2024-02-22,2024-07-22,,,SITE003,Dr. James Wilson,1974,50,YEARS,M,BLACK OR AFRICAN AMERICAN,NOT HISPANIC OR LATINO,GB40,GB001 40mg QD,GB40,GB001 40mg QD,,,USA
GB001-ASTHMA-201,DM,GB001-ASTHMA-201-SITE003-0402,0402,2024-05-07,2024-09-23,2024-05-07,2024-07-02,2024-04-03,2024-09-23,,,SITE003,Dr. James Wilson,1979,45,YEARS,M,WHITE,NOT HISPANIC OR LATINO,GB40,GB001 40mg QD,GB40,GB001 40mg QD,,,USA
GB001-ASTHMA-201,DM,GB001-ASTHMA-201-SITE003-0405,0405,2024-02-29,2024-03-02,2024-02-29,2024-03-01,2024-01-31,2024-03-02,,,SITE003,Dr. James Wilson,1986,38,YEARS,M,WHITE,UNKNOWN,PBO,Placebo,PBO,Placebo,,,USA
GB001-ASTHMA-201,DM,GB001-ASTHMA-201-SITE003-0408,0408,2024-05-03,2024-09-19,2024-05-03,2024-07-21,2024-04-09,2024-09-19,,,SITE003,Dr. James Wilson,1983,41,YEARS,F,WHITE,NOT HISPANIC OR LATINO,PBO,Placebo,PBO,Placebo,,,USA
GB001-ASTHMA-201,DM,GB001-ASTHMA-201-SITE003-0411,0411,2024-04-02,2024-08-19,2024-04-02,2024-05-16,2024-03-16,2024-08-19,,,SITE003,Dr. James Wilson,1983,41,YEARS,M,ASIAN,UNKNOWN,GB40,GB001 40mg QD,GB40,GB001 40mg QD,,,USA
GB001-ASTHMA-201,DM,GB001-ASTHMA-201-SITE003-0414,0414,2024-05-03,2024-09-19,2024-05-03,2024-06-08,2024-04-10,2024-09-19,,,SITE003,Dr. James Wilson,1949,75,YEARS,F,WHITE,NOT HISPANIC OR LATINO,PBO,Placebo,PBO,Placebo,,,USA
GB001-ASTHMA-201,DM,GB001-ASTHMA-201-SITE003-0417,0417,2024-03-11,2024-07-28,2024-03-11,2024-05-18,2024-02-25,2024-07-28,,,SITE003,Dr. James Wilson,1983,41,YEARS,M,BLACK OR AFRICAN AMERICAN,HISPANIC OR LATINO,GB40,GB001 40mg QD,GB40,GB001 40mg QD,,,USA
GB001-ASTHMA-201,DM,GB001-ASTHMA-201-SITE003-0420,0420,2024-02-25,2024-07-13,2024-02-25,2024-04-18,2024-02-11,2024-07-13,,,SITE003,Dr. James Wilson,1979,45,YEARS,F,WHITE,NOT HISPANIC OR LATINO,GB40,GB001 40mg QD,GB40,GB001 40mg QD,,,USA
GB001-ASTHMA-201,DM,GB001-ASTHMA-201-SITE003-0423,0423,2024-03-28,2024-03-31,2024-03-28,2024-03-29,2024-03-03,2024-03-31,,,SITE003,Dr. James Wilson,1990,34,YEARS,M,WHITE,HISPANIC OR LATINO,GB40,GB001 40mg QD,GB40,GB001 40mg QD,,,USA
GB001-ASTHMA-201,DM,GB001-ASTHMA-201-SITE003-0426,0426,2024-02-25,2024-07-13,2024-02-25,2024-04-13,2024-02-07,2024-07-13,,,SITE003,Dr. James Wilson,1976,48,YEARS,M,WHITE,NOT HISPANIC OR LATINO,PBO,Placebo,PBO,Placebo,,,USA
GB001-ASTHMA-201,DM,GB001-ASTHMA-201-SITE003-0429,0429,2024-03-30,2024-08-16,2024-03-30,2024-05-22,2024-03-02,2024-08-16,,,SITE003,Dr. James Wilson,2006,18,YEARS,M,WHITE,NOT HISPANIC OR LATINO,GB40,GB001 40mg QD,GB40,GB001 40mg QD,,,USA
GB001-ASTHMA-201,DM,GB001-ASTHMA-201-SITE003-0432,0432,2024-03-30,2024-03-31,2024-03-30,2024-03-31,2024-02-29,2024-03-31,,,SITE003,Dr. James Wilson,1991,33,YEARS,F,WHITE,NOT HISPANIC OR LATINO,PBO,Placebo,PBO,Placebo,,,USA
GB001-ASTHMA-201,DM,GB001-ASTHMA-201-SITE003-0435,0435,2024-02-06,2024-06-24,2024-02-06,2024-04-18,2024-01-15,2024-06-24,,,SITE003,Dr. James Wilson,1981,43,YEARS,M,WHITE,NOT HISPANIC OR LATINO,PBO,Placebo,PBO,Placebo,,,USA
GB001-ASTHMA-201,DM,GB001-ASTHMA-201-SITE003-0438,0438,2024-03-19,2024-08-05,2024-03-19,2024-05-09,2024-02-13,2024-08-05,,,SITE003,Dr. James Wilson,1971,53,YEARS,M,WHITE,UNKNOWN,GB40,GB001 40mg QD,GB40,GB001 40mg QD,,,USA
GB001-ASTHMA-201,DM,GB001-ASTHMA-201-SITE003-0441,0441,2024-05-07,2024-09-23,2024-05-07,2024-06-25,2024-04-08,2024-09-23,,,SITE003,Dr. James Wilson,1975,49,YEARS,F,WHITE,NOT HISPANIC OR LATINO,GB40,GB001 40mg QD,GB40,GB001 40mg QD,,,USA
GB001-ASTHMA-201,DM,GB001-ASTHMA-201-SITE003-0444,0444,2024-04-19,2024-09-05,2024-04-19,2024-06-21,2024-04-11,2024-09-05,,,SITE003,Dr. James Wilson,1972,52,YEARS,M,BLACK OR AFRICAN AMERICAN,NOT HISPANIC OR LATINO,PBO,Placebo,PBO,Placebo,,,USA
GB001-ASTHMA-201,DM,GB001-ASTHMA-201-SITE003-0447,0447,2024-04-06,2024-08-23,2024-04-06,2024-06-28,2024-03-18,2024-08-23,,,SITE003,Dr. James Wilson,1990,34,YEARS,F,WHITE,NOT HISPANIC OR LATINO,GB40,GB001 40mg QD,GB40,GB001 40mg QD,,,USA
GB001-ASTHMA-201,DM,GB001-ASTHMA-201-SITE003-0450,0450,2024-02-29,2024-07-17,2024-02-29,2024-04-16,2024-02-12,2024-07-17,,,SITE003,Dr. James Wilson,1968,56,YEARS,F,WHITE,NOT HISPANIC OR LATINO,GB40,GB001 40mg QD,GB40,GB001 40mg QD,,,USA
GB001-ASTHMA-201,DM,GB001-ASTHMA-201-SITE003-0453,0453,2024-04-22,2024-09-08,2024-04-22,2024-05-26,2024-03-28,2024-09-08,,,SITE003,Dr. James Wilson,1996,28,YEARS,F,OTHER,NOT HISPANIC OR LATINO,PBO,Placebo,PBO,Placebo,,,USA
GB001-ASTHMA-201,DM,GB001-ASTHMA-201-SITE003-0456,0456,2024-02-21,2024-07-09,2024-02-21,2024-04-30,2024-02-14,2024-07-09,,,SITE003,Dr. James Wilson,1972,52,YEARS,F,WHITE,NOT HISPANIC OR LATINO,GB40,GB001 40mg QD,GB40,GB001 40mg QD,,,USA
GB001-ASTHMA-201,DM,GB001-ASTHMA-201-SITE003-0459,0459,2024-04-03,2024-08-20,2024-04-03,2024-06-25,2024-03-21,2024-08-20,,,SITE003,Dr. James Wilson,1985,39,YEARS,F,WHITE,NOT HISPANIC OR LATINO,PBO,Placebo,PBO,Placebo,,,USA
GB001-ASTHMA-201,DM,GB001-ASTHMA-201-SITE003-0462,0462,2024-04-20,2024-09-06,2024-04-20,2024-05-21,2024-03-17,2024-09-06,,,SITE003,Dr. James Wilson,1982,42,YEARS,F,WHITE,NOT HISPANIC OR LATINO,PBO,Placebo,PBO,Placebo,,,USA
GB001-ASTHMA-201,DM,GB001-ASTHMA-201-SITE003-0465,0465,2024-05-13,2024-09-29,2024-05-13,2024-08-01,2024-04-10,2024-09-29,,,SITE003,Dr. James Wilson,2004,20,YEARS,F,WHITE,NOT HISPANIC OR LATINO,GB40,GB001 40mg QD,GB40,GB001 40mg QD,,,USA
GB001-ASTHMA-201,DM,GB001-ASTHMA-201-SITE003-0468,0468,2024-04-12,2024-08-29,2024-04-12,2024-06-06,2024-03-12,2024-08-29,,,SITE003,Dr. James Wilson,1982,42,YEARS,M,WHITE,NOT HISPANIC OR LATINO,PBO,Placebo,PBO,Placebo,,,USA
GB001-ASTHMA-201,DM,GB001-ASTHMA-201-SITE003-0471,0471,2024-04-27,2024-09-13,2024-04-27,2024-05-28,2024-03-23,2024-09-13,,,SITE003,Dr. James Wilson,1994,30,YEARS,M,WHITE,NOT HISPANIC OR LATINO,PBO,Placebo,PBO,Placebo,,,USA
GB001-ASTHMA-201,DM,GB001-ASTHMA-201-SITE003-0474,0474,2024-03-20,2024-08-06,2024-03-20,2024-04-29,2024-03-03,2024-08-06,,,SITE003,Dr. James Wilson,1989,35,YEARS,M,WHITE,NOT HISPANIC OR LATINO,GB40,GB001 40mg QD,GB40,GB001 40mg QD,,,USA
GB001-ASTHMA-201,DM,GB001-ASTHMA-201-SITE003-0477,0477,2024-02-24,2024-03-04,2024-02-24,2024-02-28,2024-02-01,2024-03-04,,,SITE003,Dr. James Wilson,1968,56,YEARS,M,WHITE,NOT HISPANIC OR LATINO,GB40,GB001 40mg QD,GB40,GB001 40mg QD,,,USA
GB001-ASTHMA-201,DM,GB001-ASTHMA-201-SITE003-0480,0480,2024-05-01,2024-05-16,2024-05-01,2024-05-09,2024-03-30,2024-05-16,,,SITE003,Dr. James Wilson,1994,30,YEARS,F,WHITE,NOT HISPANIC OR LATINO,PBO,Placebo,PBO,Placebo,,,USA
GB001-ASTHMA-201,DM,GB001-ASTHMA-201-SITE003-0483,0483,2024-05-06,2024-05-15,2024-05-06,2024-05-14,2024-04-14,2024-05-15,,,SITE003,Dr. James Wilson,1990,34,YEARS,F,OTHER,NOT HISPANIC OR LATINO,PBO,Placebo,PBO,Placebo,,,USA
GB001-ASTHMA-201,DM,GB001-ASTHMA-201-SITE003-0486,0486,,,,,2024-01-16,,,,SITE003,Dr. James Wilson,1967,57,YEARS,F,ASIAN,NOT HISPANIC OR LATINO,,,,,SCREEN FAILURE,,USA
GB001-ASTHMA-201,DM,GB001-ASTHMA-201-SITE003-0489,0489,2024-02-19,2024-07-07,2024-02-19,2024-04-09,2024-02-03,2024-07-07,,,SITE003,Dr. James Wilson,1983,41,YEARS,F,WHITE,NOT HISPANIC OR LATINO,GB40,GB001 40mg QD,GB40,GB001 40mg QD,,,USA
GB001-ASTHMA-201,DM,GB001-ASTHMA-201-SITE003-0492,0492,2024-04-09,2024-08-26,2024-04-09,2024-05-30,2024-03-17,2024-08-26,,,SITE003,Dr. James Wilson,1965,59,YEARS,F,WHITE,NOT HISPANIC OR LATINO,GB40,GB001 40mg QD,GB40,GB001 40mg QD,,,USA
GB001-ASTHMA-201,DM,GB001-ASTHMA-201-SITE003-0495,0495,2024-04-20,2024-09-06,2024-04-20,2024-06-04,2024-03-30,2024-09-06,,,SITE003,Dr. James Wilson,1982,42,YEARS,F,WHITE,NOT HISPANIC OR LATINO,GB40,GB001 40mg QD,GB40,GB001 40mg QD,,,USA
GB001-ASTHMA-201,DM,GB001-ASTHMA-201-SITE003-0498,0498,2024-02-16,2024-07-04,2024-02-16,2024-04-05,2024-01-18,2024-07-04,,,SITE003,Dr. James Wilson,1997,27,YEARS,F,WHITE,NOT HISPANIC OR LATINO,GB40,GB001 40mg QD,GB40,GB001 40mg QD,,,USA
