STUDYID,DOMAIN,USUBJID,SSSEQ,SSTESTCD,SSTEST,SSCAT,SSORRES,SSSTRESC,VISITNUM,VISIT,EPOCH,SSDTC,SSDY
GB001-ASTHMA-201,SS,GB001-ASTHMA-201-SITE001-0001,1,SURVSTAT,Survival Status,,ALIVE,ALIVE,999.0,END OF STUDY,FOLLOW-UP,2024-08-10,140
GB001-ASTHMA-201,SS,GB001-ASTHMA-201-SITE001-0004,1,SURVSTAT,Survival Status,,ALIVE,ALIVE,999.0,END OF STUDY,FOLLOW-UP,2024-05-30,50
GB001-ASTHMA-201,SS,GB001-ASTHMA-201-SITE001-0007,1,SURVSTAT,Survival Status,,ALIVE,ALIVE,999.0,END OF STUDY,FOLLOW-UP,2024-08-23,140
GB001-ASTHMA-201,SS,GB001-ASTHMA-201-SITE001-0010,1,SURVSTAT,Survival Status,,ALIVE,ALIVE,999.0,END OF STUDY,FOLLOW-UP,2024-09-19,140
GB001-ASTHMA-201,SS,GB001-ASTHMA-201-SITE001-0013,1,SURVSTAT,Survival Status,,ALIVE,ALIVE,999.0,END OF STUDY,FOLLOW-UP,2024-08-22,140
GB001-ASTHMA-201,SS,GB001-ASTHMA-201-SITE001-0019,1,SURVSTAT,Survival Status,,ALIVE,ALIVE,999.0,END OF STUDY,FOLLOW-UP,2024-03-29,2
GB001-ASTHMA-201,SS,GB001-ASTHMA-201-SITE001-0022,1,SURVSTAT,Survival Status,,ALIVE,ALIVE,999.0,END OF STUDY,FOLLOW-UP,2024-08-26,140
GB001-ASTHMA-201,SS,GB001-ASTHMA-201-SITE001-0028,1,SURVSTAT,Survival Status,,ALIVE,ALIVE,999.0,END OF STUDY,FOLLOW-UP,2024-07-24,140
GB001-ASTHMA-201,SS,GB001-ASTHMA-201-SITE001-0031,1,SURVSTAT,Survival Status,,ALIVE,ALIVE,999.0,END OF STUDY,FOLLOW-UP,2024-08-11,140
GB001-ASTHMA-201,SS,GB001-ASTHMA-201-SITE001-0040,1,SURVSTAT,Survival Status,,ALIVE,ALIVE,999.0,END OF STUDY,FOLLOW-UP,2024-09-22,140
GB001-ASTHMA-201,SS,GB001-ASTHMA-201-SITE001-0043,1,SURVSTAT,Survival Status,,ALIVE,ALIVE,999.0,END OF STUDY,FOLLOW-UP,2024-07-23,140
GB001-ASTHMA-201,SS,GB001-ASTHMA-201-SITE001-0046,1,SURVSTAT,Survival Status,,ALIVE,ALIVE,999.0,END OF STUDY,FOLLOW-UP,2024-07-26,140
GB001-ASTHMA-201,SS,GB001-ASTHMA-201-SITE001-0049,1,SURVSTAT,Survival Status,,ALIVE,ALIVE,999.0,END OF STUDY,FOLLOW-UP,2024-07-22,140
GB001-ASTHMA-201,SS,GB001-ASTHMA-201-SITE001-0052,1,SURVSTAT,Survival Status,,ALIVE,ALIVE,999.0,END OF STUDY,FOLLOW-UP,2024-08-24,140
GB001-ASTHMA-201,SS,GB001-ASTHMA-201-SITE001-0055,1,SURVSTAT,Survival Status,,ALIVE,ALIVE,999.0,END OF STUDY,FOLLOW-UP,2024-09-07,140
GB001-ASTHMA-201,SS,GB001-ASTHMA-201-SITE001-0058,1,SURVSTAT,Survival Status,,ALIVE,ALIVE,999.0,END OF STUDY,FOLLOW-UP,2024-07-10,140
GB001-ASTHMA-201,SS,GB001-ASTHMA-201-SITE001-0061,1,SURVSTAT,Survival Status,,ALIVE,ALIVE,999.0,END OF STUDY,FOLLOW-UP,2024-09-12,140
GB001-ASTHMA-201,SS,GB001-ASTHMA-201-SITE001-0064,1,SURVSTAT,Survival Status,,ALIVE,ALIVE,999.0,END OF STUDY,FOLLOW-UP,2024-08-16,140
GB001-ASTHMA-201,SS,GB001-ASTHMA-201-SITE001-0067,1,SURVSTAT,Survival Status,,ALIVE,ALIVE,999.0,END OF STUDY,FOLLOW-UP,2024-09-20,140
GB001-ASTHMA-201,SS,GB001-ASTHMA-201-SITE001-0070,1,SURVSTAT,Survival Status,,ALIVE,ALIVE,999.0,END OF STUDY,FOLLOW-UP,2024-08-11,140
GB001-ASTHMA-201,SS,GB001-ASTHMA-201-SITE001-0073,1,SURVSTAT,Survival Status,,ALIVE,ALIVE,999.0,END OF STUDY,FOLLOW-UP,2024-04-19,4
GB001-ASTHMA-201,SS,GB001-ASTHMA-201-SITE001-0076,1,SURVSTAT,Survival Status,,ALIVE,ALIVE,999.0,END OF STUDY,FOLLOW-UP,2024-09-07,140
GB001-ASTHMA-201,SS,GB001-ASTHMA-201-SITE001-0079,1,SURVSTAT,Survival Status,,ALIVE,ALIVE,999.0,END OF STUDY,FOLLOW-UP,2024-09-15,140
GB001-ASTHMA-201,SS,GB001-ASTHMA-201-SITE001-0082,1,SURVSTAT,Survival Status,,ALIVE,ALIVE,999.0,END OF STUDY,FOLLOW-UP,2024-07-06,140
GB001-ASTHMA-201,SS,GB001-ASTHMA-201-SITE001-0085,1,SURVSTAT,Survival Status,,ALIVE,ALIVE,999.0,END OF STUDY,FOLLOW-UP,2024-08-24,140
GB001-ASTHMA-201,SS,GB001-ASTHMA-201-SITE001-0088,1,SURVSTAT,Survival Status,,ALIVE,ALIVE,999.0,END OF STUDY,FOLLOW-UP,2024-07-24,140
GB001-ASTHMA-201,SS,GB001-ASTHMA-201-SITE001-0091,1,SURVSTAT,Survival Status,,ALIVE,ALIVE,999.0,END OF STUDY,FOLLOW-UP,2024-08-25,140
GB001-ASTHMA-201,SS,GB001-ASTHMA-201-SITE001-0094,1,SURVSTAT,Survival Status,,ALIVE,ALIVE,999.0,END OF STUDY,FOLLOW-UP,2024-03-07,2
GB001-ASTHMA-201,SS,GB001-ASTHMA-201-SITE001-0103,1,SURVSTAT,Survival Status,,ALIVE,ALIVE,999.0,END OF STUDY,FOLLOW-UP,2024-07-04,140
GB001-ASTHMA-201,SS,GB001-ASTHMA-201-SITE001-0106,1,SURVSTAT,Survival Status,,ALIVE,ALIVE,999.0,END OF STUDY,FOLLOW-UP,2024-07-29,140
GB001-ASTHMA-201,SS,GB001-ASTHMA-201-SITE001-0109,1,SURVSTAT,Survival Status,,ALIVE,ALIVE,999.0,END OF STUDY,FOLLOW-UP,2024-09-21,140
GB001-ASTHMA-201,SS,GB001-ASTHMA-201-SITE001-0112,1,SURVSTAT,Survival Status,,ALIVE,ALIVE,999.0,END OF STUDY,FOLLOW-UP,2024-08-28,140
GB001-ASTHMA-201,SS,GB001-ASTHMA-201-SITE001-0115,1,SURVSTAT,Survival Status,,ALIVE,ALIVE,999.0,END OF STUDY,FOLLOW-UP,2024-07-09,140
GB001-ASTHMA-201,SS,GB001-ASTHMA-201-SITE001-0118,1,SURVSTAT,Survival Status,,ALIVE,ALIVE,999.0,END OF STUDY,FOLLOW-UP,2024-04-30,31
GB001-ASTHMA-201,SS,GB001-ASTHMA-201-SITE001-0121,1,SURVSTAT,Survival Status,,ALIVE,ALIVE,999.0,END OF STUDY,FOLLOW-UP,2024-07-12,140
GB001-ASTHMA-201,SS,GB001-ASTHMA-201-SITE001-0127,1,SURVSTAT,Survival Status,,ALIVE,ALIVE,999.0,END OF STUDY,FOLLOW-UP,2024-03-23,2
GB001-ASTHMA-201,SS,GB001-ASTHMA-201-SITE001-0133,1,SURVSTAT,Survival Status,,ALIVE,ALIVE,999.0,END OF STUDY,FOLLOW-UP,2024-07-24,140
GB001-ASTHMA-201,SS,GB001-ASTHMA-201-SITE001-0136,1,SURVSTAT,Survival Status,,ALIVE,ALIVE,999.0,END OF STUDY,FOLLOW-UP,2024-09-01,140
GB001-ASTHMA-201,SS,GB001-ASTHMA-201-SITE001-0139,1,SURVSTAT,Survival Status,,ALIVE,ALIVE,999.0,END OF STUDY,FOLLOW-UP,2024-09-25,140
GB001-ASTHMA-201,SS,GB001-ASTHMA-201-SITE001-0142,1,SURVSTAT,Survival Status,,ALIVE,ALIVE,999.0,END OF STUDY,FOLLOW-UP,2024-09-07,140
GB001-ASTHMA-201,SS,GB001-ASTHMA-201-SITE001-0145,1,SURVSTAT,Survival Status,,ALIVE,ALIVE,999.0,END OF STUDY,FOLLOW-UP,2024-09-30,140
GB001-ASTHMA-201,SS,GB001-ASTHMA-201-SITE001-0148,1,SURVSTAT,Survival Status,,ALIVE,ALIVE,999.0,END OF STUDY,FOLLOW-UP,2024-09-25,140
GB001-ASTHMA-201,SS,GB001-ASTHMA-201-SITE001-0151,1,SURVSTAT,Survival Status,,ALIVE,ALIVE,999.0,END OF STUDY,FOLLOW-UP,2024-05-05,24
GB001-ASTHMA-201,SS,GB001-ASTHMA-201-SITE001-0154,1,SURVSTAT,Survival Status,,ALIVE,ALIVE,999.0,END OF STUDY,FOLLOW-UP,2024-08-21,140
GB001-ASTHMA-201,SS,GB001-ASTHMA-201-SITE001-0157,1,SURVSTAT,Survival Status,,ALIVE,ALIVE,999.0,END OF STUDY,FOLLOW-UP,2024-03-09,3
GB001-ASTHMA-201,SS,GB001-ASTHMA-201-SITE001-0160,1,SURVSTAT,Survival Status,,ALIVE,ALIVE,999.0,END OF STUDY,FOLLOW-UP,2024-04-07,2
GB001-ASTHMA-201,SS,GB001-ASTHMA-201-SITE001-0163,1,SURVSTAT,Survival Status,,ALIVE,ALIVE,999.0,END OF STUDY,FOLLOW-UP,2024-07-20,140
GB001-ASTHMA-201,SS,GB001-ASTHMA-201-SITE001-0166,1,SURVSTAT,Survival Status,,ALIVE,ALIVE,999.0,END OF STUDY,FOLLOW-UP,2024-05-03,10
GB001-ASTHMA-201,SS,GB001-ASTHMA-201-SITE001-0169,1,SURVSTAT,Survival Status,,ALIVE,ALIVE,999.0,END OF STUDY,FOLLOW-UP,2024-08-27,140
GB001-ASTHMA-201,SS,GB001-ASTHMA-201-SITE001-0172,1,SURVSTAT,Survival Status,,ALIVE,ALIVE,999.0,END OF STUDY,FOLLOW-UP,2024-04-15,11
GB001-ASTHMA-201,SS,GB001-ASTHMA-201-SITE001-0175,1,SURVSTAT,Survival Status,,ALIVE,ALIVE,999.0,END OF STUDY,FOLLOW-UP,2024-08-10,140
GB001-ASTHMA-201,SS,GB001-ASTHMA-201-SITE001-0178,1,SURVSTAT,Survival Status,,ALIVE,ALIVE,999.0,END OF STUDY,FOLLOW-UP,2024-06-29,140
GB001-ASTHMA-201,SS,GB001-ASTHMA-201-SITE001-0181,1,SURVSTAT,Survival Status,,ALIVE,ALIVE,999.0,END OF STUDY,FOLLOW-UP,2024-07-13,140
GB001-ASTHMA-201,SS,GB001-ASTHMA-201-SITE001-0184,1,SURVSTAT,Survival Status,,ALIVE,ALIVE,999.0,END OF STUDY,FOLLOW-UP,2024-08-09,140
GB001-ASTHMA-201,SS,GB001-ASTHMA-201-SITE001-0187,1,SURVSTAT,Survival Status,,ALIVE,ALIVE,999.0,END OF STUDY,FOLLOW-UP,2024-03-10,11
GB001-ASTHMA-201,SS,GB001-ASTHMA-201-SITE001-0190,1,SURVSTAT,Survival Status,,ALIVE,ALIVE,999.0,END OF STUDY,FOLLOW-UP,2024-07-10,140
GB001-ASTHMA-201,SS,GB001-ASTHMA-201-SITE001-0193,1,SURVSTAT,Survival Status,,ALIVE,ALIVE,999.0,END OF STUDY,FOLLOW-UP,2024-05-10,21
GB001-ASTHMA-201,SS,GB001-ASTHMA-201-SITE001-0196,1,SURVSTAT,Survival Status,,ALIVE,ALIVE,999.0,END OF STUDY,FOLLOW-UP,2024-03-20,2
GB001-ASTHMA-201,SS,GB001-ASTHMA-201-SITE001-0199,1,SURVSTAT,Survival Status,,ALIVE,ALIVE,999.0,END OF STUDY,FOLLOW-UP,2024-07-24,140
GB001-ASTHMA-201,SS,GB001-ASTHMA-201-SITE001-0202,1,SURVSTAT,Survival Status,,ALIVE,ALIVE,999.0,END OF STUDY,FOLLOW-UP,2024-06-30,140
GB001-ASTHMA-201,SS,GB001-ASTHMA-201-SITE001-0205,1,SURVSTAT,Survival Status,,ALIVE,ALIVE,999.0,END OF STUDY,FOLLOW-UP,2024-09-07,140
GB001-ASTHMA-201,SS,GB001-ASTHMA-201-SITE001-0208,1,SURVSTAT,Survival Status,,ALIVE,ALIVE,999.0,END OF STUDY,FOLLOW-UP,2024-03-17,2
GB001-ASTHMA-201,SS,GB001-ASTHMA-201-SITE001-0211,1,SURVSTAT,Survival Status,,ALIVE,ALIVE,999.0,END OF STUDY,FOLLOW-UP,2024-08-09,140
GB001-ASTHMA-201,SS,GB001-ASTHMA-201-SITE001-0214,1,SURVSTAT,Survival Status,,ALIVE,ALIVE,999.0,END OF STUDY,FOLLOW-UP,2024-07-18,140
GB001-ASTHMA-201,SS,GB001-ASTHMA-201-SITE001-0217,1,SURVSTAT,Survival Status,,ALIVE,ALIVE,999.0,END OF STUDY,FOLLOW-UP,2024-08-07,140
GB001-ASTHMA-201,SS,GB001-ASTHMA-201-SITE001-0220,1,SURVSTAT,Survival Status,,ALIVE,ALIVE,999.0,END OF STUDY,FOLLOW-UP,2024-07-28,140
GB001-ASTHMA-201,SS,GB001-ASTHMA-201-SITE001-0223,1,SURVSTAT,Survival Status,,ALIVE,ALIVE,999.0,END OF STUDY,FOLLOW-UP,2024-02-16,18
GB001-ASTHMA-201,SS,GB001-ASTHMA-201-SITE001-0226,1,SURVSTAT,Survival Status,,ALIVE,ALIVE,999.0,END OF STUDY,FOLLOW-UP,2024-06-27,140
GB001-ASTHMA-201,SS,GB001-ASTHMA-201-SITE001-0232,1,SURVSTAT,Survival Status,,ALIVE,ALIVE,999.0,END OF STUDY,FOLLOW-UP,2024-05-17,50
GB001-ASTHMA-201,SS,GB001-ASTHMA-201-SITE001-0238,1,SURVSTAT,Survival Status,,ALIVE,ALIVE,999.0,END OF STUDY,FOLLOW-UP,2024-06-27,140
GB001-ASTHMA-201,SS,GB001-ASTHMA-201-SITE001-0241,1,SURVSTAT,Survival Status,,ALIVE,ALIVE,999.0,END OF STUDY,FOLLOW-UP,2024-08-04,140
GB001-ASTHMA-201,SS,GB001-ASTHMA-201-SITE001-0244,1,SURVSTAT,Survival Status,,ALIVE,ALIVE,999.0,END OF STUDY,FOLLOW-UP,2024-08-25,140
GB001-ASTHMA-201,SS,GB001-ASTHMA-201-SITE001-0247,1,SURVSTAT,Survival Status,,ALIVE,ALIVE,999.0,END OF STUDY,FOLLOW-UP,2024-07-17,140
GB001-ASTHMA-201,SS,GB001-ASTHMA-201-SITE001-0250,1,SURVSTAT,Survival Status,,ALIVE,ALIVE,999.0,END OF STUDY,FOLLOW-UP,2024-08-04,140
GB001-ASTHMA-201,SS,GB001-ASTHMA-201-SITE001-0253,1,SURVSTAT,Survival Status,,ALIVE,ALIVE,999.0,END OF STUDY,FOLLOW-UP,2024-08-30,140
GB001-ASTHMA-201,SS,GB001-ASTHMA-201-SITE001-0256,1,SURVSTAT,Survival Status,,ALIVE,ALIVE,999.0,END OF STUDY,FOLLOW-UP,2024-04-17,2
GB001-ASTHMA-201,SS,GB001-ASTHMA-201-SITE001-0259,1,SURVSTAT,Survival Status,,ALIVE,ALIVE,999.0,END OF STUDY,FOLLOW-UP,2024-08-22,140
GB001-ASTHMA-201,SS,GB001-ASTHMA-201-SITE001-0262,1,SURVSTAT,Survival Status,,ALIVE,ALIVE,999.0,END OF STUDY,FOLLOW-UP,2024-08-05,140
GB001-ASTHMA-201,SS,GB001-ASTHMA-201-SITE001-0265,1,SURVSTAT,Survival Status,,ALIVE,ALIVE,999.0,END OF STUDY,FOLLOW-UP,2024-07-10,140
GB001-ASTHMA-201,SS,GB001-ASTHMA-201-SITE001-0268,1,SURVSTAT,Survival Status,,ALIVE,ALIVE,999.0,END OF STUDY,FOLLOW-UP,2024-09-17,140
GB001-ASTHMA-201,SS,GB001-ASTHMA-201-SITE001-0271,1,SURVSTAT,Survival Status,,ALIVE,ALIVE,999.0,END OF STUDY,FOLLOW-UP,2024-02-28,3
GB001-ASTHMA-201,SS,GB001-ASTHMA-201-SITE001-0274,1,SURVSTAT,Survival Status,,ALIVE,ALIVE,999.0,END OF STUDY,FOLLOW-UP,2024-06-15,140
GB001-ASTHMA-201,SS,GB001-ASTHMA-201-SITE001-0277,1,SURVSTAT,Survival Status,,ALIVE,ALIVE,999.0,END OF STUDY,FOLLOW-UP,2024-08-02,140
GB001-ASTHMA-201,SS,GB001-ASTHMA-201-SITE001-0283,1,SURVSTAT,Survival Status,,ALIVE,ALIVE,999.0,END OF STUDY,FOLLOW-UP,2024-08-19,140
GB001-ASTHMA-201,SS,GB001-ASTHMA-201-SITE001-0286,1,SURVSTAT,Survival Status,,ALIVE,ALIVE,999.0,END OF STUDY,FOLLOW-UP,2024-04-23,5
GB001-ASTHMA-201,SS,GB001-ASTHMA-201-SITE001-0289,1,SURVSTAT,Survival Status,,ALIVE,ALIVE,999.0,END OF STUDY,FOLLOW-UP,2024-08-27,140
GB001-ASTHMA-201,SS,GB001-ASTHMA-201-SITE001-0292,1,SURVSTAT,Survival Status,,ALIVE,ALIVE,999.0,END OF STUDY,FOLLOW-UP,2024-07-18,140
GB001-ASTHMA-201,SS,GB001-ASTHMA-201-SITE001-0295,1,SURVSTAT,Survival Status,,ALIVE,ALIVE,999.0,END OF STUDY,FOLLOW-UP,2024-09-02,140
GB001-ASTHMA-201,SS,GB001-ASTHMA-201-SITE001-0298,1,SURVSTAT,Survival Status,,ALIVE,ALIVE,999.0,END OF STUDY,FOLLOW-UP,2024-08-17,140
GB001-ASTHMA-201,SS,GB001-ASTHMA-201-SITE001-0301,1,SURVSTAT,Survival Status,,ALIVE,ALIVE,999.0,END OF STUDY,FOLLOW-UP,2024-09-03,140
GB001-ASTHMA-201,SS,GB001-ASTHMA-201-SITE001-0304,1,SURVSTAT,Survival Status,,ALIVE,ALIVE,999.0,END OF STUDY,FOLLOW-UP,2024-07-11,140
GB001-ASTHMA-201,SS,GB001-ASTHMA-201-SITE001-0310,1,SURVSTAT,Survival Status,,ALIVE,ALIVE,999.0,END OF STUDY,FOLLOW-UP,2024-08-16,140
GB001-ASTHMA-201,SS,GB001-ASTHMA-201-SITE001-0316,1,SURVSTAT,Survival Status,,ALIVE,ALIVE,999.0,END OF STUDY,FOLLOW-UP,2024-07-28,140
GB001-ASTHMA-201,SS,GB001-ASTHMA-201-SITE001-0319,1,SURVSTAT,Survival Status,,ALIVE,ALIVE,999.0,END OF STUDY,FOLLOW-UP,2024-06-21,140
GB001-ASTHMA-201,SS,GB001-ASTHMA-201-SITE001-0322,1,SURVSTAT,Survival Status,,ALIVE,ALIVE,999.0,END OF STUDY,FOLLOW-UP,2024-09-07,140
GB001-ASTHMA-201,SS,GB001-ASTHMA-201-SITE001-0325,1,SURVSTAT,Survival Status,,ALIVE,ALIVE,999.0,END OF STUDY,FOLLOW-UP,2024-08-15,140
GB001-ASTHMA-201,SS,GB001-ASTHMA-201-SITE001-0328,1,SURVSTAT,Survival Status,,ALIVE,ALIVE,999.0,END OF STUDY,FOLLOW-UP,2024-08-18,140
GB001-ASTHMA-201,SS,GB001-ASTHMA-201-SITE001-0331,1,SURVSTAT,Survival Status,,ALIVE,ALIVE,999.0,END OF STUDY,FOLLOW-UP,2024-08-13,140
GB001-ASTHMA-201,SS,GB001-ASTHMA-201-SITE001-0334,1,SURVSTAT,Survival Status,,ALIVE,ALIVE,999.0,END OF STUDY,FOLLOW-UP,2024-07-02,140
GB001-ASTHMA-201,SS,GB001-ASTHMA-201-SITE001-0337,1,SURVSTAT,Survival Status,,ALIVE,ALIVE,999.0,END OF STUDY,FOLLOW-UP,2024-08-25,140
GB001-ASTHMA-201,SS,GB001-ASTHMA-201-SITE001-0340,1,SURVSTAT,Survival Status,,ALIVE,ALIVE,999.0,END OF STUDY,FOLLOW-UP,2024-08-28,140
GB001-ASTHMA-201,SS,GB001-ASTHMA-201-SITE001-0343,1,SURVSTAT,Survival Status,,ALIVE,ALIVE,999.0,END OF STUDY,FOLLOW-UP,2024-07-13,140
GB001-ASTHMA-201,SS,GB001-ASTHMA-201-SITE001-0346,1,SURVSTAT,Survival Status,,ALIVE,ALIVE,999.0,END OF STUDY,FOLLOW-UP,2024-07-11,140
GB001-ASTHMA-201,SS,GB001-ASTHMA-201-SITE001-0349,1,SURVSTAT,Survival Status,,ALIVE,ALIVE,999.0,END OF STUDY,FOLLOW-UP,2024-09-01,140
GB001-ASTHMA-201,SS,GB001-ASTHMA-201-SITE001-0352,1,SURVSTAT,Survival Status,,ALIVE,ALIVE,999.0,END OF STUDY,FOLLOW-UP,2024-08-31,140
GB001-ASTHMA-201,SS,GB001-ASTHMA-201-SITE001-0355,1,SURVSTAT,Survival Status,,ALIVE,ALIVE,999.0,END OF STUDY,FOLLOW-UP,2024-07-24,140
GB001-ASTHMA-201,SS,GB001-ASTHMA-201-SITE001-0358,1,SURVSTAT,Survival Status,,ALIVE,ALIVE,999.0,END OF STUDY,FOLLOW-UP,2024-06-10,140
GB001-ASTHMA-201,SS,GB001-ASTHMA-201-SITE001-0361,1,SURVSTAT,Survival Status,,ALIVE,ALIVE,999.0,END OF STUDY,FOLLOW-UP,2024-08-31,140
GB001-ASTHMA-201,SS,GB001-ASTHMA-201-SITE001-0364,1,SURVSTAT,Survival Status,,ALIVE,ALIVE,999.0,END OF STUDY,FOLLOW-UP,2024-08-24,140
GB001-ASTHMA-201,SS,GB001-ASTHMA-201-SITE001-0367,1,SURVSTAT,Survival Status,,ALIVE,ALIVE,999.0,END OF STUDY,FOLLOW-UP,2024-08-27,140
GB001-ASTHMA-201,SS,GB001-ASTHMA-201-SITE001-0370,1,SURVSTAT,Survival Status,,ALIVE,ALIVE,999.0,END OF STUDY,FOLLOW-UP,2024-08-11,140
GB001-ASTHMA-201,SS,GB001-ASTHMA-201-SITE001-0373,1,SURVSTAT,Survival Status,,ALIVE,ALIVE,999.0,END OF STUDY,FOLLOW-UP,2024-08-06,140
GB001-ASTHMA-201,SS,GB001-ASTHMA-201-SITE001-0376,1,SURVSTAT,Survival Status,,ALIVE,ALIVE,999.0,END OF STUDY,FOLLOW-UP,2024-08-19,140
GB001-ASTHMA-201,SS,GB001-ASTHMA-201-SITE001-0379,1,SURVSTAT,Survival Status,,ALIVE,ALIVE,999.0,END OF STUDY,FOLLOW-UP,2024-09-21,140
GB001-ASTHMA-201,SS,GB001-ASTHMA-201-SITE001-0382,1,SURVSTAT,Survival Status,,ALIVE,ALIVE,999.0,END OF STUDY,FOLLOW-UP,2024-09-01,140
GB001-ASTHMA-201,SS,GB001-ASTHMA-201-SITE001-0385,1,SURVSTAT,Survival Status,,ALIVE,ALIVE,999.0,END OF STUDY,FOLLOW-UP,2024-07-27,140
GB001-ASTHMA-201,SS,GB001-ASTHMA-201-SITE001-0388,1,SURVSTAT,Survival Status,,ALIVE,ALIVE,999.0,END OF STUDY,FOLLOW-UP,2024-09-26,140
GB001-ASTHMA-201,SS,GB001-ASTHMA-201-SITE001-0391,1,SURVSTAT,Survival Status,,ALIVE,ALIVE,999.0,END OF STUDY,FOLLOW-UP,2024-02-15,7
GB001-ASTHMA-201,SS,GB001-ASTHMA-201-SITE001-0394,1,SURVSTAT,Survival Status,,ALIVE,ALIVE,999.0,END OF STUDY,FOLLOW-UP,2024-08-30,140
GB001-ASTHMA-201,SS,GB001-ASTHMA-201-SITE001-0397,1,SURVSTAT,Survival Status,,ALIVE,ALIVE,999.0,END OF STUDY,FOLLOW-UP,2024-06-21,140
GB001-ASTHMA-201,SS,GB001-ASTHMA-201-SITE001-0400,1,SURVSTAT,Survival Status,,ALIVE,ALIVE,999.0,END OF STUDY,FOLLOW-UP,2024-09-20,140
GB001-ASTHMA-201,SS,GB001-ASTHMA-201-SITE001-0403,1,SURVSTAT,Survival Status,,ALIVE,ALIVE,999.0,END OF STUDY,FOLLOW-UP,2024-07-24,140
GB001-ASTHMA-201,SS,GB001-ASTHMA-201-SITE001-0406,1,SURVSTAT,Survival Status,,ALIVE,ALIVE,999.0,END OF STUDY,FOLLOW-UP,2024-08-28,140
GB001-ASTHMA-201,SS,GB001-ASTHMA-201-SITE001-0409,1,SURVSTAT,Survival Status,,ALIVE,ALIVE,999.0,END OF STUDY,FOLLOW-UP,2024-05-10,64
GB001-ASTHMA-201,SS,GB001-ASTHMA-201-SITE001-0412,1,SURVSTAT,Survival Status,,ALIVE,ALIVE,999.0,END OF STUDY,FOLLOW-UP,2024-07-14,140
GB001-ASTHMA-201,SS,GB001-ASTHMA-201-SITE001-0415,1,SURVSTAT,Survival Status,,ALIVE,ALIVE,999.0,END OF STUDY,FOLLOW-UP,2024-07-19,140
GB001-ASTHMA-201,SS,GB001-ASTHMA-201-SITE001-0418,1,SURVSTAT,Survival Status,,ALIVE,ALIVE,999.0,END OF STUDY,FOLLOW-UP,2024-07-28,140
GB001-ASTHMA-201,SS,GB001-ASTHMA-201-SITE001-0421,1,SURVSTAT,Survival Status,,ALIVE,ALIVE,999.0,END OF STUDY,FOLLOW-UP,2024-08-02,140
GB001-ASTHMA-201,SS,GB001-ASTHMA-201-SITE001-0427,1,SURVSTAT,Survival Status,,ALIVE,ALIVE,999.0,END OF STUDY,FOLLOW-UP,2024-08-07,140
GB001-ASTHMA-201,SS,GB001-ASTHMA-201-SITE001-0430,1,SURVSTAT,Survival Status,,ALIVE,ALIVE,999.0,END OF STUDY,FOLLOW-UP,2024-09-05,140
GB001-ASTHMA-201,SS,GB001-ASTHMA-201-SITE001-0433,1,SURVSTAT,Survival Status,,ALIVE,ALIVE,999.0,END OF STUDY,FOLLOW-UP,2024-02-25,1
GB001-ASTHMA-201,SS,GB001-ASTHMA-201-SITE001-0436,1,SURVSTAT,Survival Status,,ALIVE,ALIVE,999.0,END OF STUDY,FOLLOW-UP,2024-08-01,140
GB001-ASTHMA-201,SS,GB001-ASTHMA-201-SITE001-0439,1,SURVSTAT,Survival Status,,ALIVE,ALIVE,999.0,END OF STUDY,FOLLOW-UP,2024-09-15,140
GB001-ASTHMA-201,SS,GB001-ASTHMA-201-SITE001-0442,1,SURVSTAT,Survival Status,,ALIVE,ALIVE,999.0,END OF STUDY,FOLLOW-UP,2024-03-18,2
GB001-ASTHMA-201,SS,GB001-ASTHMA-201-SITE001-0445,1,SURVSTAT,Survival Status,,ALIVE,ALIVE,999.0,END OF STUDY,FOLLOW-UP,2024-03-23,2
GB001-ASTHMA-201,SS,GB001-ASTHMA-201-SITE001-0448,1,SURVSTAT,Survival Status,,ALIVE,ALIVE,999.0,END OF STUDY,FOLLOW-UP,2024-06-13,32
GB001-ASTHMA-201,SS,GB001-ASTHMA-201-SITE001-0451,1,SURVSTAT,Survival Status,,ALIVE,ALIVE,999.0,END OF STUDY,FOLLOW-UP,2024-07-03,140
GB001-ASTHMA-201,SS,GB001-ASTHMA-201-SITE001-0454,1,SURVSTAT,Survival Status,,ALIVE,ALIVE,999.0,END OF STUDY,FOLLOW-UP,2024-08-12,140
GB001-ASTHMA-201,SS,GB001-ASTHMA-201-SITE001-0457,1,SURVSTAT,Survival Status,,ALIVE,ALIVE,999.0,END OF STUDY,FOLLOW-UP,2024-09-05,140
GB001-ASTHMA-201,SS,GB001-ASTHMA-201-SITE001-0460,1,SURVSTAT,Survival Status,,ALIVE,ALIVE,999.0,END OF STUDY,FOLLOW-UP,2024-07-30,140
GB001-ASTHMA-201,SS,GB001-ASTHMA-201-SITE001-0463,1,SURVSTAT,Survival Status,,ALIVE,ALIVE,999.0,END OF STUDY,FOLLOW-UP,2024-04-14,4
GB001-ASTHMA-201,SS,GB001-ASTHMA-201-SITE001-0466,1,SURVSTAT,Survival Status,,ALIVE,ALIVE,999.0,END OF STUDY,FOLLOW-UP,2024-08-02,140
GB001-ASTHMA-201,SS,GB001-ASTHMA-201-SITE001-0469,1,SURVSTAT,Survival Status,,ALIVE,ALIVE,999.0,END OF STUDY,FOLLOW-UP,2024-06-19,140
GB001-ASTHMA-201,SS,GB001-ASTHMA-201-SITE001-0472,1,SURVSTAT,Survival Status,,ALIVE,ALIVE,999.0,END OF STUDY,FOLLOW-UP,2024-07-12,140
GB001-ASTHMA-201,SS,GB001-ASTHMA-201-SITE001-0475,1,SURVSTAT,Survival Status,,ALIVE,ALIVE,999.0,END OF STUDY,FOLLOW-UP,2024-09-10,140
GB001-ASTHMA-201,SS,GB001-ASTHMA-201-SITE001-0478,1,SURVSTAT,Survival Status,,ALIVE,ALIVE,999.0,END OF STUDY,FOLLOW-UP,2024-04-05,65
GB001-ASTHMA-201,SS,GB001-ASTHMA-201-SITE001-0481,1,SURVSTAT,Survival Status,,ALIVE,ALIVE,999.0,END OF STUDY,FOLLOW-UP,2024-06-27,140
GB001-ASTHMA-201,SS,GB001-ASTHMA-201-SITE001-0484,1,SURVSTAT,Survival Status,,ALIVE,ALIVE,999.0,END OF STUDY,FOLLOW-UP,2024-07-21,140
GB001-ASTHMA-201,SS,GB001-ASTHMA-201-SITE001-0487,1,SURVSTAT,Survival Status,,ALIVE,ALIVE,999.0,END OF STUDY,FOLLOW-UP,2024-08-01,140
GB001-ASTHMA-201,SS,GB001-ASTHMA-201-SITE001-0490,1,SURVSTAT,Survival Status,,ALIVE,ALIVE,999.0,END OF STUDY,FOLLOW-UP,2024-06-23,140
GB001-ASTHMA-201,SS,GB001-ASTHMA-201-SITE001-0493,1,SURVSTAT,Survival Status,,ALIVE,ALIVE,999.0,END OF STUDY,FOLLOW-UP,2024-05-06,13
GB001-ASTHMA-201,SS,GB001-ASTHMA-201-SITE001-0496,1,SURVSTAT,Survival Status,,ALIVE,ALIVE,999.0,END OF STUDY,FOLLOW-UP,2024-07-20,140
GB001-ASTHMA-201,SS,GB001-ASTHMA-201-SITE002-0002,1,SURVSTAT,Survival Status,,ALIVE,ALIVE,999.0,END OF STUDY,FOLLOW-UP,2024-06-23,140
GB001-ASTHMA-201,SS,GB001-ASTHMA-201-SITE002-0005,1,SURVSTAT,Survival Status,,ALIVE,ALIVE,999.0,END OF STUDY,FOLLOW-UP,2024-09-26,140
GB001-ASTHMA-201,SS,GB001-ASTHMA-201-SITE002-0008,1,SURVSTAT,Survival Status,,ALIVE,ALIVE,999.0,END OF STUDY,FOLLOW-UP,2024-07-18,140
GB001-ASTHMA-201,SS,GB001-ASTHMA-201-SITE002-0011,1,SURVSTAT,Survival Status,,ALIVE,ALIVE,999.0,END OF STUDY,FOLLOW-UP,2024-09-15,140
GB001-ASTHMA-201,SS,GB001-ASTHMA-201-SITE002-0014,1,SURVSTAT,Survival Status,,ALIVE,ALIVE,999.0,END OF STUDY,FOLLOW-UP,2024-09-25,140
GB001-ASTHMA-201,SS,GB001-ASTHMA-201-SITE002-0017,1,SURVSTAT,Survival Status,,ALIVE,ALIVE,999.0,END OF STUDY,FOLLOW-UP,2024-08-17,140
GB001-ASTHMA-201,SS,GB001-ASTHMA-201-SITE002-0020,1,SURVSTAT,Survival Status,,ALIVE,ALIVE,999.0,END OF STUDY,FOLLOW-UP,2024-07-11,140
GB001-ASTHMA-201,SS,GB001-ASTHMA-201-SITE002-0023,1,SURVSTAT,Survival Status,,ALIVE,ALIVE,999.0,END OF STUDY,FOLLOW-UP,2024-09-16,140
GB001-ASTHMA-201,SS,GB001-ASTHMA-201-SITE002-0026,1,SURVSTAT,Survival Status,,ALIVE,ALIVE,999.0,END OF STUDY,FOLLOW-UP,2024-06-24,140
GB001-ASTHMA-201,SS,GB001-ASTHMA-201-SITE002-0029,1,SURVSTAT,Survival Status,,ALIVE,ALIVE,999.0,END OF STUDY,FOLLOW-UP,2024-07-02,140
GB001-ASTHMA-201,SS,GB001-ASTHMA-201-SITE002-0035,1,SURVSTAT,Survival Status,,ALIVE,ALIVE,999.0,END OF STUDY,FOLLOW-UP,2024-06-24,140
GB001-ASTHMA-201,SS,GB001-ASTHMA-201-SITE002-0038,1,SURVSTAT,Survival Status,,ALIVE,ALIVE,999.0,END OF STUDY,FOLLOW-UP,2024-03-23,6
GB001-ASTHMA-201,SS,GB001-ASTHMA-201-SITE002-0041,1,SURVSTAT,Survival Status,,ALIVE,ALIVE,999.0,END OF STUDY,FOLLOW-UP,2024-09-09,140
GB001-ASTHMA-201,SS,GB001-ASTHMA-201-SITE002-0044,1,SURVSTAT,Survival Status,,ALIVE,ALIVE,999.0,END OF STUDY,FOLLOW-UP,2024-09-01,140
GB001-ASTHMA-201,SS,GB001-ASTHMA-201-SITE002-0050,1,SURVSTAT,Survival Status,,ALIVE,ALIVE,999.0,END OF STUDY,FOLLOW-UP,2024-09-24,140
GB001-ASTHMA-201,SS,GB001-ASTHMA-201-SITE002-0053,1,SURVSTAT,Survival Status,,ALIVE,ALIVE,999.0,END OF STUDY,FOLLOW-UP,2024-08-22,140
GB001-ASTHMA-201,SS,GB001-ASTHMA-201-SITE002-0056,1,SURVSTAT,Survival Status,,ALIVE,ALIVE,999.0,END OF STUDY,FOLLOW-UP,2024-09-18,140
GB001-ASTHMA-201,SS,GB001-ASTHMA-201-SITE002-0059,1,SURVSTAT,Survival Status,,ALIVE,ALIVE,999.0,END OF STUDY,FOLLOW-UP,2024-08-22,140
GB001-ASTHMA-201,SS,GB001-ASTHMA-201-SITE002-0062,1,SURVSTAT,Survival Status,,ALIVE,ALIVE,999.0,END OF STUDY,FOLLOW-UP,2024-07-03,140
GB001-ASTHMA-201,SS,GB001-ASTHMA-201-SITE002-0065,1,SURVSTAT,Survival Status,,ALIVE,ALIVE,999.0,END OF STUDY,FOLLOW-UP,2024-06-26,140
GB001-ASTHMA-201,SS,GB001-ASTHMA-201-SITE002-0068,1,SURVSTAT,Survival Status,,ALIVE,ALIVE,999.0,END OF STUDY,FOLLOW-UP,2024-07-13,140
GB001-ASTHMA-201,SS,GB001-ASTHMA-201-SITE002-0071,1,SURVSTAT,Survival Status,,ALIVE,ALIVE,999.0,END OF STUDY,FOLLOW-UP,2024-08-02,140
GB001-ASTHMA-201,SS,GB001-ASTHMA-201-SITE002-0074,1,SURVSTAT,Survival Status,,ALIVE,ALIVE,999.0,END OF STUDY,FOLLOW-UP,2024-07-14,140
GB001-ASTHMA-201,SS,GB001-ASTHMA-201-SITE002-0080,1,SURVSTAT,Survival Status,,ALIVE,ALIVE,999.0,END OF STUDY,FOLLOW-UP,2024-09-24,140
GB001-ASTHMA-201,SS,GB001-ASTHMA-201-SITE002-0083,1,SURVSTAT,Survival Status,,ALIVE,ALIVE,999.0,END OF STUDY,FOLLOW-UP,2024-09-04,140
GB001-ASTHMA-201,SS,GB001-ASTHMA-201-SITE002-0086,1,SURVSTAT,Survival Status,,ALIVE,ALIVE,999.0,END OF STUDY,FOLLOW-UP,2024-07-10,140
GB001-ASTHMA-201,SS,GB001-ASTHMA-201-SITE002-0089,1,SURVSTAT,Survival Status,,ALIVE,ALIVE,999.0,END OF STUDY,FOLLOW-UP,2024-07-18,140
GB001-ASTHMA-201,SS,GB001-ASTHMA-201-SITE002-0092,1,SURVSTAT,Survival Status,,ALIVE,ALIVE,999.0,END OF STUDY,FOLLOW-UP,2024-07-06,140
GB001-ASTHMA-201,SS,GB001-ASTHMA-201-SITE002-0095,1,SURVSTAT,Survival Status,,ALIVE,ALIVE,999.0,END OF STUDY,FOLLOW-UP,2024-08-10,140
GB001-ASTHMA-201,SS,GB001-ASTHMA-201-SITE002-0098,1,SURVSTAT,Survival Status,,ALIVE,ALIVE,999.0,END OF STUDY,FOLLOW-UP,2024-07-05,73
GB001-ASTHMA-201,SS,GB001-ASTHMA-201-SITE002-0101,1,SURVSTAT,Survival Status,,ALIVE,ALIVE,999.0,END OF STUDY,FOLLOW-UP,2024-04-30,23
GB001-ASTHMA-201,SS,GB001-ASTHMA-201-SITE002-0104,1,SURVSTAT,Survival Status,,ALIVE,ALIVE,999.0,END OF STUDY,FOLLOW-UP,2024-08-14,140
GB001-ASTHMA-201,SS,GB001-ASTHMA-201-SITE002-0107,1,SURVSTAT,Survival Status,,ALIVE,ALIVE,999.0,END OF STUDY,FOLLOW-UP,2024-08-30,140
GB001-ASTHMA-201,SS,GB001-ASTHMA-201-SITE002-0110,1,SURVSTAT,Survival Status,,ALIVE,ALIVE,999.0,END OF STUDY,FOLLOW-UP,2024-07-16,140
GB001-ASTHMA-201,SS,GB001-ASTHMA-201-SITE002-0116,1,SURVSTAT,Survival Status,,ALIVE,ALIVE,999.0,END OF STUDY,FOLLOW-UP,2024-08-06,140
GB001-ASTHMA-201,SS,GB001-ASTHMA-201-SITE002-0119,1,SURVSTAT,Survival Status,,ALIVE,ALIVE,999.0,END OF STUDY,FOLLOW-UP,2024-07-26,140
GB001-ASTHMA-201,SS,GB001-ASTHMA-201-SITE002-0128,1,SURVSTAT,Survival Status,,ALIVE,ALIVE,999.0,END OF STUDY,FOLLOW-UP,2024-09-06,140
GB001-ASTHMA-201,SS,GB001-ASTHMA-201-SITE002-0134,1,SURVSTAT,Survival Status,,ALIVE,ALIVE,999.0,END OF STUDY,FOLLOW-UP,2024-08-14,140
GB001-ASTHMA-201,SS,GB001-ASTHMA-201-SITE002-0137,1,SURVSTAT,Survival Status,,ALIVE,ALIVE,999.0,END OF STUDY,FOLLOW-UP,2024-04-08,2
GB001-ASTHMA-201,SS,GB001-ASTHMA-201-SITE002-0140,1,SURVSTAT,Survival Status,,ALIVE,ALIVE,999.0,END OF STUDY,FOLLOW-UP,2024-07-21,140
GB001-ASTHMA-201,SS,GB001-ASTHMA-201-SITE002-0143,1,SURVSTAT,Survival Status,,ALIVE,ALIVE,999.0,END OF STUDY,FOLLOW-UP,2024-09-17,140
GB001-ASTHMA-201,SS,GB001-ASTHMA-201-SITE002-0146,1,SURVSTAT,Survival Status,,ALIVE,ALIVE,999.0,END OF STUDY,FOLLOW-UP,2024-10-02,140
GB001-ASTHMA-201,SS,GB001-ASTHMA-201-SITE002-0149,1,SURVSTAT,Survival Status,,ALIVE,ALIVE,999.0,END OF STUDY,FOLLOW-UP,2024-09-03,140
GB001-ASTHMA-201,SS,GB001-ASTHMA-201-SITE002-0152,1,SURVSTAT,Survival Status,,ALIVE,ALIVE,999.0,END OF STUDY,FOLLOW-UP,2024-07-21,140
GB001-ASTHMA-201,SS,GB001-ASTHMA-201-SITE002-0155,1,SURVSTAT,Survival Status,,ALIVE,ALIVE,999.0,END OF STUDY,FOLLOW-UP,2024-03-26,6
GB001-ASTHMA-201,SS,GB001-ASTHMA-201-SITE002-0158,1,SURVSTAT,Survival Status,,ALIVE,ALIVE,999.0,END OF STUDY,FOLLOW-UP,2024-09-08,140
GB001-ASTHMA-201,SS,GB001-ASTHMA-201-SITE002-0161,1,SURVSTAT,Survival Status,,ALIVE,ALIVE,999.0,END OF STUDY,FOLLOW-UP,2024-08-02,140
GB001-ASTHMA-201,SS,GB001-ASTHMA-201-SITE002-0164,1,SURVSTAT,Survival Status,,ALIVE,ALIVE,999.0,END OF STUDY,FOLLOW-UP,2024-09-01,140
GB001-ASTHMA-201,SS,GB001-ASTHMA-201-SITE002-0167,1,SURVSTAT,Survival Status,,ALIVE,ALIVE,999.0,END OF STUDY,FOLLOW-UP,2024-07-26,140
GB001-ASTHMA-201,SS,GB001-ASTHMA-201-SITE002-0170,1,SURVSTAT,Survival Status,,ALIVE,ALIVE,999.0,END OF STUDY,FOLLOW-UP,2024-03-19,9
GB001-ASTHMA-201,SS,GB001-ASTHMA-201-SITE002-0173,1,SURVSTAT,Survival Status,,ALIVE,ALIVE,999.0,END OF STUDY,FOLLOW-UP,2024-07-22,140
GB001-ASTHMA-201,SS,GB001-ASTHMA-201-SITE002-0176,1,SURVSTAT,Survival Status,,ALIVE,ALIVE,999.0,END OF STUDY,FOLLOW-UP,2024-07-07,140
GB001-ASTHMA-201,SS,GB001-ASTHMA-201-SITE002-0179,1,SURVSTAT,Survival Status,,ALIVE,ALIVE,999.0,END OF STUDY,FOLLOW-UP,2024-07-25,140
GB001-ASTHMA-201,SS,GB001-ASTHMA-201-SITE002-0185,1,SURVSTAT,Survival Status,,ALIVE,ALIVE,999.0,END OF STUDY,FOLLOW-UP,2024-08-26,140
GB001-ASTHMA-201,SS,GB001-ASTHMA-201-SITE002-0188,1,SURVSTAT,Survival Status,,ALIVE,ALIVE,999.0,END OF STUDY,FOLLOW-UP,2024-08-17,140
GB001-ASTHMA-201,SS,GB001-ASTHMA-201-SITE002-0191,1,SURVSTAT,Survival Status,,ALIVE,ALIVE,999.0,END OF STUDY,FOLLOW-UP,2024-09-07,140
GB001-ASTHMA-201,SS,GB001-ASTHMA-201-SITE002-0194,1,SURVSTAT,Survival Status,,ALIVE,ALIVE,999.0,END OF STUDY,FOLLOW-UP,2024-08-23,140
GB001-ASTHMA-201,SS,GB001-ASTHMA-201-SITE002-0197,1,SURVSTAT,Survival Status,,ALIVE,ALIVE,999.0,END OF STUDY,FOLLOW-UP,2024-07-08,140
GB001-ASTHMA-201,SS,GB001-ASTHMA-201-SITE002-0200,1,SURVSTAT,Survival Status,,ALIVE,ALIVE,999.0,END OF STUDY,FOLLOW-UP,2024-08-07,140
GB001-ASTHMA-201,SS,GB001-ASTHMA-201-SITE002-0203,1,SURVSTAT,Survival Status,,ALIVE,ALIVE,999.0,END OF STUDY,FOLLOW-UP,2024-08-08,140
GB001-ASTHMA-201,SS,GB001-ASTHMA-201-SITE002-0206,1,SURVSTAT,Survival Status,,ALIVE,ALIVE,999.0,END OF STUDY,FOLLOW-UP,2024-06-16,140
GB001-ASTHMA-201,SS,GB001-ASTHMA-201-SITE002-0209,1,SURVSTAT,Survival Status,,ALIVE,ALIVE,999.0,END OF STUDY,FOLLOW-UP,2024-06-19,140
GB001-ASTHMA-201,SS,GB001-ASTHMA-201-SITE002-0212,1,SURVSTAT,Survival Status,,ALIVE,ALIVE,999.0,END OF STUDY,FOLLOW-UP,2024-08-12,140
GB001-ASTHMA-201,SS,GB001-ASTHMA-201-SITE002-0215,1,SURVSTAT,Survival Status,,ALIVE,ALIVE,999.0,END OF STUDY,FOLLOW-UP,2024-07-19,140
GB001-ASTHMA-201,SS,GB001-ASTHMA-201-SITE002-0218,1,SURVSTAT,Survival Status,,ALIVE,ALIVE,999.0,END OF STUDY,FOLLOW-UP,2024-07-09,140
GB001-ASTHMA-201,SS,GB001-ASTHMA-201-SITE002-0221,1,SURVSTAT,Survival Status,,ALIVE,ALIVE,999.0,END OF STUDY,FOLLOW-UP,2024-07-05,140
GB001-ASTHMA-201,SS,GB001-ASTHMA-201-SITE002-0224,1,SURVSTAT,Survival Status,,ALIVE,ALIVE,999.0,END OF STUDY,FOLLOW-UP,2024-04-26,2
GB001-ASTHMA-201,SS,GB001-ASTHMA-201-SITE002-0230,1,SURVSTAT,Survival Status,,ALIVE,ALIVE,999.0,END OF STUDY,FOLLOW-UP,2024-09-05,140
GB001-ASTHMA-201,SS,GB001-ASTHMA-201-SITE002-0233,1,SURVSTAT,Survival Status,,ALIVE,ALIVE,999.0,END OF STUDY,FOLLOW-UP,2024-08-06,140
GB001-ASTHMA-201,SS,GB001-ASTHMA-201-SITE002-0236,1,SURVSTAT,Survival Status,,ALIVE,ALIVE,999.0,END OF STUDY,FOLLOW-UP,2024-08-29,140
GB001-ASTHMA-201,SS,GB001-ASTHMA-201-SITE002-0239,1,SURVSTAT,Survival Status,,ALIVE,ALIVE,999.0,END OF STUDY,FOLLOW-UP,2024-04-05,8
GB001-ASTHMA-201,SS,GB001-ASTHMA-201-SITE002-0245,1,SURVSTAT,Survival Status,,ALIVE,ALIVE,999.0,END OF STUDY,FOLLOW-UP,2024-07-31,140
GB001-ASTHMA-201,SS,GB001-ASTHMA-201-SITE002-0251,1,SURVSTAT,Survival Status,,ALIVE,ALIVE,999.0,END OF STUDY,FOLLOW-UP,2024-05-01,48
GB001-ASTHMA-201,SS,GB001-ASTHMA-201-SITE002-0254,1,SURVSTAT,Survival Status,,ALIVE,ALIVE,999.0,END OF STUDY,FOLLOW-UP,2024-06-29,140
GB001-ASTHMA-201,SS,GB001-ASTHMA-201-SITE002-0257,1,SURVSTAT,Survival Status,,ALIVE,ALIVE,999.0,END OF STUDY,FOLLOW-UP,2024-02-17,5
GB001-ASTHMA-201,SS,GB001-ASTHMA-201-SITE002-0260,1,SURVSTAT,Survival Status,,ALIVE,ALIVE,999.0,END OF STUDY,FOLLOW-UP,2024-09-23,140
GB001-ASTHMA-201,SS,GB001-ASTHMA-201-SITE002-0263,1,SURVSTAT,Survival Status,,ALIVE,ALIVE,999.0,END OF STUDY,FOLLOW-UP,2024-07-06,140
GB001-ASTHMA-201,SS,GB001-ASTHMA-201-SITE002-0266,1,SURVSTAT,Survival Status,,ALIVE,ALIVE,999.0,END OF STUDY,FOLLOW-UP,2024-09-11,140
GB001-ASTHMA-201,SS,GB001-ASTHMA-201-SITE002-0269,1,SURVSTAT,Survival Status,,ALIVE,ALIVE,999.0,END OF STUDY,FOLLOW-UP,2024-09-29,140
GB001-ASTHMA-201,SS,GB001-ASTHMA-201-SITE002-0272,1,SURVSTAT,Survival Status,,ALIVE,ALIVE,999.0,END OF STUDY,FOLLOW-UP,2024-04-27,45
GB001-ASTHMA-201,SS,GB001-ASTHMA-201-SITE002-0275,1,SURVSTAT,Survival Status,,ALIVE,ALIVE,999.0,END OF STUDY,FOLLOW-UP,2024-07-31,140
GB001-ASTHMA-201,SS,GB001-ASTHMA-201-SITE002-0278,1,SURVSTAT,Survival Status,,ALIVE,ALIVE,999.0,END OF STUDY,FOLLOW-UP,2024-07-06,140
GB001-ASTHMA-201,SS,GB001-ASTHMA-201-SITE002-0281,1,SURVSTAT,Survival Status,,ALIVE,ALIVE,999.0,END OF STUDY,FOLLOW-UP,2024-08-26,140
GB001-ASTHMA-201,SS,GB001-ASTHMA-201-SITE002-0284,1,SURVSTAT,Survival Status,,ALIVE,ALIVE,999.0,END OF STUDY,FOLLOW-UP,2024-08-23,140
GB001-ASTHMA-201,SS,GB001-ASTHMA-201-SITE002-0287,1,SURVSTAT,Survival Status,,ALIVE,ALIVE,999.0,END OF STUDY,FOLLOW-UP,2024-04-10,9
GB001-ASTHMA-201,SS,GB001-ASTHMA-201-SITE002-0290,1,SURVSTAT,Survival Status,,ALIVE,ALIVE,999.0,END OF STUDY,FOLLOW-UP,2024-07-16,140
GB001-ASTHMA-201,SS,GB001-ASTHMA-201-SITE002-0293,1,SURVSTAT,Survival Status,,ALIVE,ALIVE,999.0,END OF STUDY,FOLLOW-UP,2024-04-21,9
GB001-ASTHMA-201,SS,GB001-ASTHMA-201-SITE002-0296,1,SURVSTAT,Survival Status,,ALIVE,ALIVE,999.0,END OF STUDY,FOLLOW-UP,2024-07-09,140
GB001-ASTHMA-201,SS,GB001-ASTHMA-201-SITE002-0299,1,SURVSTAT,Survival Status,,ALIVE,ALIVE,999.0,END OF STUDY,FOLLOW-UP,2024-08-18,140
GB001-ASTHMA-201,SS,GB001-ASTHMA-201-SITE002-0302,1,SURVSTAT,Survival Status,,ALIVE,ALIVE,999.0,END OF STUDY,FOLLOW-UP,2024-08-29,140
GB001-ASTHMA-201,SS,GB001-ASTHMA-201-SITE002-0305,1,SURVSTAT,Survival Status,,ALIVE,ALIVE,999.0,END OF STUDY,FOLLOW-UP,2024-07-29,140
GB001-ASTHMA-201,SS,GB001-ASTHMA-201-SITE002-0308,1,SURVSTAT,Survival Status,,ALIVE,ALIVE,999.0,END OF STUDY,FOLLOW-UP,2024-08-19,140
GB001-ASTHMA-201,SS,GB001-ASTHMA-201-SITE002-0311,1,SURVSTAT,Survival Status,,ALIVE,ALIVE,999.0,END OF STUDY,FOLLOW-UP,2024-09-08,140
GB001-ASTHMA-201,SS,GB001-ASTHMA-201-SITE002-0314,1,SURVSTAT,Survival Status,,ALIVE,ALIVE,999.0,END OF STUDY,FOLLOW-UP,2024-06-29,140
GB001-ASTHMA-201,SS,GB001-ASTHMA-201-SITE002-0317,1,SURVSTAT,Survival Status,,ALIVE,ALIVE,999.0,END OF STUDY,FOLLOW-UP,2024-08-11,140
GB001-ASTHMA-201,SS,GB001-ASTHMA-201-SITE002-0320,1,SURVSTAT,Survival Status,,ALIVE,ALIVE,999.0,END OF STUDY,FOLLOW-UP,2024-06-25,140
GB001-ASTHMA-201,SS,GB001-ASTHMA-201-SITE002-0323,1,SURVSTAT,Survival Status,,ALIVE,ALIVE,999.0,END OF STUDY,FOLLOW-UP,2024-07-22,140
GB001-ASTHMA-201,SS,GB001-ASTHMA-201-SITE002-0326,1,SURVSTAT,Survival Status,,ALIVE,ALIVE,999.0,END OF STUDY,FOLLOW-UP,2024-08-23,140
GB001-ASTHMA-201,SS,GB001-ASTHMA-201-SITE002-0329,1,SURVSTAT,Survival Status,,ALIVE,ALIVE,999.0,END OF STUDY,FOLLOW-UP,2024-09-09,140
GB001-ASTHMA-201,SS,GB001-ASTHMA-201-SITE002-0332,1,SURVSTAT,Survival Status,,ALIVE,ALIVE,999.0,END OF STUDY,FOLLOW-UP,2024-08-03,140
GB001-ASTHMA-201,SS,GB001-ASTHMA-201-SITE002-0335,1,SURVSTAT,Survival Status,,ALIVE,ALIVE,999.0,END OF STUDY,FOLLOW-UP,2024-02-13,5
GB001-ASTHMA-201,SS,GB001-ASTHMA-201-SITE002-0338,1,SURVSTAT,Survival Status,,ALIVE,ALIVE,999.0,END OF STUDY,FOLLOW-UP,2024-02-08,3
GB001-ASTHMA-201,SS,GB001-ASTHMA-201-SITE002-0341,1,SURVSTAT,Survival Status,,ALIVE,ALIVE,999.0,END OF STUDY,FOLLOW-UP,2024-08-04,140
GB001-ASTHMA-201,SS,GB001-ASTHMA-201-SITE002-0344,1,SURVSTAT,Survival Status,,ALIVE,ALIVE,999.0,END OF STUDY,FOLLOW-UP,2024-08-17,140
GB001-ASTHMA-201,SS,GB001-ASTHMA-201-SITE002-0347,1,SURVSTAT,Survival Status,,ALIVE,ALIVE,999.0,END OF STUDY,FOLLOW-UP,2024-07-15,140
GB001-ASTHMA-201,SS,GB001-ASTHMA-201-SITE002-0350,1,SURVSTAT,Survival Status,,ALIVE,ALIVE,999.0,END OF STUDY,FOLLOW-UP,2024-07-15,140
GB001-ASTHMA-201,SS,GB001-ASTHMA-201-SITE002-0353,1,SURVSTAT,Survival Status,,ALIVE,ALIVE,999.0,END OF STUDY,FOLLOW-UP,2024-08-30,140
GB001-ASTHMA-201,SS,GB001-ASTHMA-201-SITE002-0356,1,SURVSTAT,Survival Status,,ALIVE,ALIVE,999.0,END OF STUDY,FOLLOW-UP,2024-08-02,140
GB001-ASTHMA-201,SS,GB001-ASTHMA-201-SITE002-0362,1,SURVSTAT,Survival Status,,ALIVE,ALIVE,999.0,END OF STUDY,FOLLOW-UP,2024-07-12,140
GB001-ASTHMA-201,SS,GB001-ASTHMA-201-SITE002-0365,1,SURVSTAT,Survival Status,,ALIVE,ALIVE,999.0,END OF STUDY,FOLLOW-UP,2024-08-12,140
GB001-ASTHMA-201,SS,GB001-ASTHMA-201-SITE002-0371,1,SURVSTAT,Survival Status,,ALIVE,ALIVE,999.0,END OF STUDY,FOLLOW-UP,2024-07-12,140
GB001-ASTHMA-201,SS,GB001-ASTHMA-201-SITE002-0377,1,SURVSTAT,Survival Status,,ALIVE,ALIVE,999.0,END OF STUDY,FOLLOW-UP,2024-03-30,18
GB001-ASTHMA-201,SS,GB001-ASTHMA-201-SITE002-0380,1,SURVSTAT,Survival Status,,ALIVE,ALIVE,999.0,END OF STUDY,FOLLOW-UP,2024-01-28,2
GB001-ASTHMA-201,SS,GB001-ASTHMA-201-SITE002-0386,1,SURVSTAT,Survival Status,,ALIVE,ALIVE,999.0,END OF STUDY,FOLLOW-UP,2024-09-02,140
GB001-ASTHMA-201,SS,GB001-ASTHMA-201-SITE002-0389,1,SURVSTAT,Survival Status,,ALIVE,ALIVE,999.0,END OF STUDY,FOLLOW-UP,2024-07-16,140
GB001-ASTHMA-201,SS,GB001-ASTHMA-201-SITE002-0392,1,SURVSTAT,Survival Status,,ALIVE,ALIVE,999.0,END OF STUDY,FOLLOW-UP,2024-08-29,140
GB001-ASTHMA-201,SS,GB001-ASTHMA-201-SITE002-0395,1,SURVSTAT,Survival Status,,ALIVE,ALIVE,999.0,END OF STUDY,FOLLOW-UP,2024-08-06,140
GB001-ASTHMA-201,SS,GB001-ASTHMA-201-SITE002-0404,1,SURVSTAT,Survival Status,,ALIVE,ALIVE,999.0,END OF STUDY,FOLLOW-UP,2024-07-25,140
GB001-ASTHMA-201,SS,GB001-ASTHMA-201-SITE002-0407,1,SURVSTAT,Survival Status,,ALIVE,ALIVE,999.0,END OF STUDY,FOLLOW-UP,2024-07-23,140
GB001-ASTHMA-201,SS,GB001-ASTHMA-201-SITE002-0410,1,SURVSTAT,Survival Status,,ALIVE,ALIVE,999.0,END OF STUDY,FOLLOW-UP,2024-04-01,48
GB001-ASTHMA-201,SS,GB001-ASTHMA-201-SITE002-0413,1,SURVSTAT,Survival Status,,ALIVE,ALIVE,999.0,END OF STUDY,FOLLOW-UP,2024-07-24,140
GB001-ASTHMA-201,SS,GB001-ASTHMA-201-SITE002-0416,1,SURVSTAT,Survival Status,,ALIVE,ALIVE,999.0,END OF STUDY,FOLLOW-UP,2024-08-23,140
GB001-ASTHMA-201,SS,GB001-ASTHMA-201-SITE002-0419,1,SURVSTAT,Survival Status,,ALIVE,ALIVE,999.0,END OF STUDY,FOLLOW-UP,2024-01-30,2
GB001-ASTHMA-201,SS,GB001-ASTHMA-201-SITE002-0422,1,SURVSTAT,Survival Status,,ALIVE,ALIVE,999.0,END OF STUDY,FOLLOW-UP,2024-02-23,9
GB001-ASTHMA-201,SS,GB001-ASTHMA-201-SITE002-0425,1,SURVSTAT,Survival Status,,ALIVE,ALIVE,999.0,END OF STUDY,FOLLOW-UP,2024-07-24,140
GB001-ASTHMA-201,SS,GB001-ASTHMA-201-SITE002-0431,1,SURVSTAT,Survival Status,,ALIVE,ALIVE,999.0,END OF STUDY,FOLLOW-UP,2024-09-13,140
GB001-ASTHMA-201,SS,GB001-ASTHMA-201-SITE002-0434,1,SURVSTAT,Survival Status,,ALIVE,ALIVE,999.0,END OF STUDY,FOLLOW-UP,2024-08-09,140
GB001-ASTHMA-201,SS,GB001-ASTHMA-201-SITE002-0437,1,SURVSTAT,Survival Status,,ALIVE,ALIVE,999.0,END OF STUDY,FOLLOW-UP,2024-07-09,140
GB001-ASTHMA-201,SS,GB001-ASTHMA-201-SITE002-0440,1,SURVSTAT,Survival Status,,ALIVE,ALIVE,999.0,END OF STUDY,FOLLOW-UP,2024-05-24,25
GB001-ASTHMA-201,SS,GB001-ASTHMA-201-SITE002-0443,1,SURVSTAT,Survival Status,,ALIVE,ALIVE,999.0,END OF STUDY,FOLLOW-UP,2024-09-06,140
GB001-ASTHMA-201,SS,GB001-ASTHMA-201-SITE002-0446,1,SURVSTAT,Survival Status,,ALIVE,ALIVE,999.0,END OF STUDY,FOLLOW-UP,2024-08-25,140
GB001-ASTHMA-201,SS,GB001-ASTHMA-201-SITE002-0449,1,SURVSTAT,Survival Status,,ALIVE,ALIVE,999.0,END OF STUDY,FOLLOW-UP,2024-07-24,140
GB001-ASTHMA-201,SS,GB001-ASTHMA-201-SITE002-0452,1,SURVSTAT,Survival Status,,ALIVE,ALIVE,999.0,END OF STUDY,FOLLOW-UP,2024-07-09,140
GB001-ASTHMA-201,SS,GB001-ASTHMA-201-SITE002-0455,1,SURVSTAT,Survival Status,,ALIVE,ALIVE,999.0,END OF STUDY,FOLLOW-UP,2024-08-12,140
GB001-ASTHMA-201,SS,GB001-ASTHMA-201-SITE002-0458,1,SURVSTAT,Survival Status,,ALIVE,ALIVE,999.0,END OF STUDY,FOLLOW-UP,2024-05-22,79
GB001-ASTHMA-201,SS,GB001-ASTHMA-201-SITE002-0461,1,SURVSTAT,Survival Status,,ALIVE,ALIVE,999.0,END OF STUDY,FOLLOW-UP,2024-08-15,140
GB001-ASTHMA-201,SS,GB001-ASTHMA-201-SITE002-0464,1,SURVSTAT,Survival Status,,ALIVE,ALIVE,999.0,END OF STUDY,FOLLOW-UP,2024-09-08,140
GB001-ASTHMA-201,SS,GB001-ASTHMA-201-SITE002-0467,1,SURVSTAT,Survival Status,,ALIVE,ALIVE,999.0,END OF STUDY,FOLLOW-UP,2024-07-15,140
GB001-ASTHMA-201,SS,GB001-ASTHMA-201-SITE002-0470,1,SURVSTAT,Survival Status,,ALIVE,ALIVE,999.0,END OF STUDY,FOLLOW-UP,2024-08-12,140
GB001-ASTHMA-201,SS,GB001-ASTHMA-201-SITE002-0473,1,SURVSTAT,Survival Status,,ALIVE,ALIVE,999.0,END OF STUDY,FOLLOW-UP,2024-03-01,2
GB001-ASTHMA-201,SS,GB001-ASTHMA-201-SITE002-0476,1,SURVSTAT,Survival Status,,ALIVE,ALIVE,999.0,END OF STUDY,FOLLOW-UP,2024-07-13,140
GB001-ASTHMA-201,SS,GB001-ASTHMA-201-SITE002-0479,1,SURVSTAT,Survival Status,,ALIVE,ALIVE,999.0,END OF STUDY,FOLLOW-UP,2024-08-22,140
GB001-ASTHMA-201,SS,GB001-ASTHMA-201-SITE002-0482,1,SURVSTAT,Survival Status,,ALIVE,ALIVE,999.0,END OF STUDY,FOLLOW-UP,2024-07-07,140
GB001-ASTHMA-201,SS,GB001-ASTHMA-201-SITE002-0485,1,SURVSTAT,Survival Status,,ALIVE,ALIVE,999.0,END OF STUDY,FOLLOW-UP,2024-09-07,140
GB001-ASTHMA-201,SS,GB001-ASTHMA-201-SITE002-0488,1,SURVSTAT,Survival Status,,ALIVE,ALIVE,999.0,END OF STUDY,FOLLOW-UP,2024-09-17,140
GB001-ASTHMA-201,SS,GB001-ASTHMA-201-SITE002-0491,1,SURVSTAT,Survival Status,,ALIVE,ALIVE,999.0,END OF STUDY,FOLLOW-UP,2024-07-28,140
GB001-ASTHMA-201,SS,GB001-ASTHMA-201-SITE002-0494,1,SURVSTAT,Survival Status,,ALIVE,ALIVE,999.0,END OF STUDY,FOLLOW-UP,2024-07-10,140
GB001-ASTHMA-201,SS,GB001-ASTHMA-201-SITE002-0497,1,SURVSTAT,Survival Status,,ALIVE,ALIVE,999.0,END OF STUDY,FOLLOW-UP,2024-08-03,140
GB001-ASTHMA-201,SS,GB001-ASTHMA-201-SITE002-0500,1,SURVSTAT,Survival Status,,ALIVE,ALIVE,999.0,END OF STUDY,FOLLOW-UP,2024-05-22,21
GB001-ASTHMA-201,SS,GB001-ASTHMA-201-SITE003-0003,1,SURVSTAT,Survival Status,,ALIVE,ALIVE,999.0,END OF STUDY,FOLLOW-UP,2024-07-19,140
GB001-ASTHMA-201,SS,GB001-ASTHMA-201-SITE003-0009,1,SURVSTAT,Survival Status,,ALIVE,ALIVE,999.0,END OF STUDY,FOLLOW-UP,2024-08-25,140
GB001-ASTHMA-201,SS,GB001-ASTHMA-201-SITE003-0012,1,SURVSTAT,Survival Status,,ALIVE,ALIVE,999.0,END OF STUDY,FOLLOW-UP,2024-07-24,140
GB001-ASTHMA-201,SS,GB001-ASTHMA-201-SITE003-0015,1,SURVSTAT,Survival Status,,ALIVE,ALIVE,999.0,END OF STUDY,FOLLOW-UP,2024-07-15,140
GB001-ASTHMA-201,SS,GB001-ASTHMA-201-SITE003-0018,1,SURVSTAT,Survival Status,,ALIVE,ALIVE,999.0,END OF STUDY,FOLLOW-UP,2024-08-18,140
GB001-ASTHMA-201,SS,GB001-ASTHMA-201-SITE003-0021,1,SURVSTAT,Survival Status,,ALIVE,ALIVE,999.0,END OF STUDY,FOLLOW-UP,2024-09-13,140
GB001-ASTHMA-201,SS,GB001-ASTHMA-201-SITE003-0024,1,SURVSTAT,Survival Status,,ALIVE,ALIVE,999.0,END OF STUDY,FOLLOW-UP,2024-07-10,140
GB001-ASTHMA-201,SS,GB001-ASTHMA-201-SITE003-0027,1,SURVSTAT,Survival Status,,ALIVE,ALIVE,999.0,END OF STUDY,FOLLOW-UP,2024-07-03,140
GB001-ASTHMA-201,SS,GB001-ASTHMA-201-SITE003-0033,1,SURVSTAT,Survival Status,,ALIVE,ALIVE,999.0,END OF STUDY,FOLLOW-UP,2024-08-31,140
GB001-ASTHMA-201,SS,GB001-ASTHMA-201-SITE003-0036,1,SURVSTAT,Survival Status,,ALIVE,ALIVE,999.0,END OF STUDY,FOLLOW-UP,2024-05-01,2
GB001-ASTHMA-201,SS,GB001-ASTHMA-201-SITE003-0039,1,SURVSTAT,Survival Status,,ALIVE,ALIVE,999.0,END OF STUDY,FOLLOW-UP,2024-07-17,140
GB001-ASTHMA-201,SS,GB001-ASTHMA-201-SITE003-0042,1,SURVSTAT,Survival Status,,ALIVE,ALIVE,999.0,END OF STUDY,FOLLOW-UP,2024-08-05,140
GB001-ASTHMA-201,SS,GB001-ASTHMA-201-SITE003-0045,1,SURVSTAT,Survival Status,,ALIVE,ALIVE,999.0,END OF STUDY,FOLLOW-UP,2024-05-13,9
GB001-ASTHMA-201,SS,GB001-ASTHMA-201-SITE003-0048,1,SURVSTAT,Survival Status,,ALIVE,ALIVE,999.0,END OF STUDY,FOLLOW-UP,2024-08-23,140
GB001-ASTHMA-201,SS,GB001-ASTHMA-201-SITE003-0051,1,SURVSTAT,Survival Status,,ALIVE,ALIVE,999.0,END OF STUDY,FOLLOW-UP,2024-07-09,140
GB001-ASTHMA-201,SS,GB001-ASTHMA-201-SITE003-0054,1,SURVSTAT,Survival Status,,ALIVE,ALIVE,999.0,END OF STUDY,FOLLOW-UP,2024-07-27,140
GB001-ASTHMA-201,SS,GB001-ASTHMA-201-SITE003-0060,1,SURVSTAT,Survival Status,,ALIVE,ALIVE,999.0,END OF STUDY,FOLLOW-UP,2024-08-21,140
GB001-ASTHMA-201,SS,GB001-ASTHMA-201-SITE003-0063,1,SURVSTAT,Survival Status,,ALIVE,ALIVE,999.0,END OF STUDY,FOLLOW-UP,2024-06-19,140
GB001-ASTHMA-201,SS,GB001-ASTHMA-201-SITE003-0066,1,SURVSTAT,Survival Status,,ALIVE,ALIVE,999.0,END OF STUDY,FOLLOW-UP,2024-08-24,140
GB001-ASTHMA-201,SS,GB001-ASTHMA-201-SITE003-0069,1,SURVSTAT,Survival Status,,ALIVE,ALIVE,999.0,END OF STUDY,FOLLOW-UP,2024-08-26,140
GB001-ASTHMA-201,SS,GB001-ASTHMA-201-SITE003-0072,1,SURVSTAT,Survival Status,,ALIVE,ALIVE,999.0,END OF STUDY,FOLLOW-UP,2024-08-25,140
GB001-ASTHMA-201,SS,GB001-ASTHMA-201-SITE003-0075,1,SURVSTAT,Survival Status,,ALIVE,ALIVE,999.0,END OF STUDY,FOLLOW-UP,2024-08-01,140
GB001-ASTHMA-201,SS,GB001-ASTHMA-201-SITE003-0078,1,SURVSTAT,Survival Status,,ALIVE,ALIVE,999.0,END OF STUDY,FOLLOW-UP,2024-08-26,140
GB001-ASTHMA-201,SS,GB001-ASTHMA-201-SITE003-0081,1,SURVSTAT,Survival Status,,ALIVE,ALIVE,999.0,END OF STUDY,FOLLOW-UP,2024-05-04,6
GB001-ASTHMA-201,SS,GB001-ASTHMA-201-SITE003-0087,1,SURVSTAT,Survival Status,,ALIVE,ALIVE,999.0,END OF STUDY,FOLLOW-UP,2024-09-03,140
GB001-ASTHMA-201,SS,GB001-ASTHMA-201-SITE003-0090,1,SURVSTAT,Survival Status,,ALIVE,ALIVE,999.0,END OF STUDY,FOLLOW-UP,2024-07-18,140
GB001-ASTHMA-201,SS,GB001-ASTHMA-201-SITE003-0093,1,SURVSTAT,Survival Status,,ALIVE,ALIVE,999.0,END OF STUDY,FOLLOW-UP,2024-07-30,140
GB001-ASTHMA-201,SS,GB001-ASTHMA-201-SITE003-0099,1,SURVSTAT,Survival Status,,ALIVE,ALIVE,999.0,END OF STUDY,FOLLOW-UP,2024-03-06,7
GB001-ASTHMA-201,SS,GB001-ASTHMA-201-SITE003-0102,1,SURVSTAT,Survival Status,,ALIVE,ALIVE,999.0,END OF STUDY,FOLLOW-UP,2024-09-16,140
GB001-ASTHMA-201,SS,GB001-ASTHMA-201-SITE003-0105,1,SURVSTAT,Survival Status,,ALIVE,ALIVE,999.0,END OF STUDY,FOLLOW-UP,2024-07-27,140
GB001-ASTHMA-201,SS,GB001-ASTHMA-201-SITE003-0108,1,SURVSTAT,Survival Status,,ALIVE,ALIVE,999.0,END OF STUDY,FOLLOW-UP,2024-06-30,140
GB001-ASTHMA-201,SS,GB001-ASTHMA-201-SITE003-0111,1,SURVSTAT,Survival Status,,ALIVE,ALIVE,999.0,END OF STUDY,FOLLOW-UP,2024-02-27,6
GB001-ASTHMA-201,SS,GB001-ASTHMA-201-SITE003-0114,1,SURVSTAT,Survival Status,,ALIVE,ALIVE,999.0,END OF STUDY,FOLLOW-UP,2024-05-24,30
GB001-ASTHMA-201,SS,GB001-ASTHMA-201-SITE003-0117,1,SURVSTAT,Survival Status,,ALIVE,ALIVE,999.0,END OF STUDY,FOLLOW-UP,2024-08-21,140
GB001-ASTHMA-201,SS,GB001-ASTHMA-201-SITE003-0120,1,SURVSTAT,Survival Status,,ALIVE,ALIVE,999.0,END OF STUDY,FOLLOW-UP,2024-07-22,140
GB001-ASTHMA-201,SS,GB001-ASTHMA-201-SITE003-0123,1,SURVSTAT,Survival Status,,ALIVE,ALIVE,999.0,END OF STUDY,FOLLOW-UP,2024-02-26,2
GB001-ASTHMA-201,SS,GB001-ASTHMA-201-SITE003-0129,1,SURVSTAT,Survival Status,,ALIVE,ALIVE,999.0,END OF STUDY,FOLLOW-UP,2024-06-25,140
GB001-ASTHMA-201,SS,GB001-ASTHMA-201-SITE003-0132,1,SURVSTAT,Survival Status,,ALIVE,ALIVE,999.0,END OF STUDY,FOLLOW-UP,2024-07-18,140
GB001-ASTHMA-201,SS,GB001-ASTHMA-201-SITE003-0135,1,SURVSTAT,Survival Status,,ALIVE,ALIVE,999.0,END OF STUDY,FOLLOW-UP,2024-03-28,6
GB001-ASTHMA-201,SS,GB001-ASTHMA-201-SITE003-0138,1,SURVSTAT,Survival Status,,ALIVE,ALIVE,999.0,END OF STUDY,FOLLOW-UP,2024-04-14,50
GB001-ASTHMA-201,SS,GB001-ASTHMA-201-SITE003-0144,1,SURVSTAT,Survival Status,,ALIVE,ALIVE,999.0,END OF STUDY,FOLLOW-UP,2024-02-11,2
GB001-ASTHMA-201,SS,GB001-ASTHMA-201-SITE003-0147,1,SURVSTAT,Survival Status,,ALIVE,ALIVE,999.0,END OF STUDY,FOLLOW-UP,2024-08-19,140
GB001-ASTHMA-201,SS,GB001-ASTHMA-201-SITE003-0150,1,SURVSTAT,Survival Status,,ALIVE,ALIVE,999.0,END OF STUDY,FOLLOW-UP,2024-07-12,140
GB001-ASTHMA-201,SS,GB001-ASTHMA-201-SITE003-0153,1,SURVSTAT,Survival Status,,ALIVE,ALIVE,999.0,END OF STUDY,FOLLOW-UP,2024-08-20,140
GB001-ASTHMA-201,SS,GB001-ASTHMA-201-SITE003-0156,1,SURVSTAT,Survival Status,,ALIVE,ALIVE,999.0,END OF STUDY,FOLLOW-UP,2024-08-26,140
GB001-ASTHMA-201,SS,GB001-ASTHMA-201-SITE003-0159,1,SURVSTAT,Survival Status,,ALIVE,ALIVE,999.0,END OF STUDY,FOLLOW-UP,2024-08-12,140
GB001-ASTHMA-201,SS,GB001-ASTHMA-201-SITE003-0162,1,SURVSTAT,Survival Status,,ALIVE,ALIVE,999.0,END OF STUDY,FOLLOW-UP,2024-06-27,140
GB001-ASTHMA-201,SS,GB001-ASTHMA-201-SITE003-0168,1,SURVSTAT,Survival Status,,ALIVE,ALIVE,999.0,END OF STUDY,FOLLOW-UP,2024-06-23,140
GB001-ASTHMA-201,SS,GB001-ASTHMA-201-SITE003-0174,1,SURVSTAT,Survival Status,,ALIVE,ALIVE,999.0,END OF STUDY,FOLLOW-UP,2024-08-09,140
GB001-ASTHMA-201,SS,GB001-ASTHMA-201-SITE003-0177,1,SURVSTAT,Survival Status,,ALIVE,ALIVE,999.0,END OF STUDY,FOLLOW-UP,2024-07-17,140
GB001-ASTHMA-201,SS,GB001-ASTHMA-201-SITE003-0183,1,SURVSTAT,Survival Status,,ALIVE,ALIVE,999.0,END OF STUDY,FOLLOW-UP,2024-08-17,140
GB001-ASTHMA-201,SS,GB001-ASTHMA-201-SITE003-0186,1,SURVSTAT,Survival Status,,ALIVE,ALIVE,999.0,END OF STUDY,FOLLOW-UP,2024-08-02,140
GB001-ASTHMA-201,SS,GB001-ASTHMA-201-SITE003-0189,1,SURVSTAT,Survival Status,,ALIVE,ALIVE,999.0,END OF STUDY,FOLLOW-UP,2024-07-09,140
GB001-ASTHMA-201,SS,GB001-ASTHMA-201-SITE003-0192,1,SURVSTAT,Survival Status,,ALIVE,ALIVE,999.0,END OF STUDY,FOLLOW-UP,2024-02-22,13
GB001-ASTHMA-201,SS,GB001-ASTHMA-201-SITE003-0195,1,SURVSTAT,Survival Status,,ALIVE,ALIVE,999.0,END OF STUDY,FOLLOW-UP,2024-07-29,140
GB001-ASTHMA-201,SS,GB001-ASTHMA-201-SITE003-0198,1,SURVSTAT,Survival Status,,ALIVE,ALIVE,999.0,END OF STUDY,FOLLOW-UP,2024-09-21,140
GB001-ASTHMA-201,SS,GB001-ASTHMA-201-SITE003-0201,1,SURVSTAT,Survival Status,,ALIVE,ALIVE,999.0,END OF STUDY,FOLLOW-UP,2024-07-15,140
GB001-ASTHMA-201,SS,GB001-ASTHMA-201-SITE003-0204,1,SURVSTAT,Survival Status,,ALIVE,ALIVE,999.0,END OF STUDY,FOLLOW-UP,2024-07-30,140
GB001-ASTHMA-201,SS,GB001-ASTHMA-201-SITE003-0207,1,SURVSTAT,Survival Status,,ALIVE,ALIVE,999.0,END OF STUDY,FOLLOW-UP,2024-09-01,140
GB001-ASTHMA-201,SS,GB001-ASTHMA-201-SITE003-0210,1,SURVSTAT,Survival Status,,ALIVE,ALIVE,999.0,END OF STUDY,FOLLOW-UP,2024-08-24,140
GB001-ASTHMA-201,SS,GB001-ASTHMA-201-SITE003-0213,1,SURVSTAT,Survival Status,,ALIVE,ALIVE,999.0,END OF STUDY,FOLLOW-UP,2024-09-10,140
GB001-ASTHMA-201,SS,GB001-ASTHMA-201-SITE003-0216,1,SURVSTAT,Survival Status,,ALIVE,ALIVE,999.0,END OF STUDY,FOLLOW-UP,2024-07-12,140
GB001-ASTHMA-201,SS,GB001-ASTHMA-201-SITE003-0219,1,SURVSTAT,Survival Status,,ALIVE,ALIVE,999.0,END OF STUDY,FOLLOW-UP,2024-09-12,140
GB001-ASTHMA-201,SS,GB001-ASTHMA-201-SITE003-0222,1,SURVSTAT,Survival Status,,ALIVE,ALIVE,999.0,END OF STUDY,FOLLOW-UP,2024-08-14,140
GB001-ASTHMA-201,SS,GB001-ASTHMA-201-SITE003-0225,1,SURVSTAT,Survival Status,,ALIVE,ALIVE,999.0,END OF STUDY,FOLLOW-UP,2024-08-31,140
GB001-ASTHMA-201,SS,GB001-ASTHMA-201-SITE003-0228,1,SURVSTAT,Survival Status,,ALIVE,ALIVE,999.0,END OF STUDY,FOLLOW-UP,2024-03-04,2
GB001-ASTHMA-201,SS,GB001-ASTHMA-201-SITE003-0231,1,SURVSTAT,Survival Status,,ALIVE,ALIVE,999.0,END OF STUDY,FOLLOW-UP,2024-09-02,140
GB001-ASTHMA-201,SS,GB001-ASTHMA-201-SITE003-0234,1,SURVSTAT,Survival Status,,ALIVE,ALIVE,999.0,END OF STUDY,FOLLOW-UP,2024-03-07,2
GB001-ASTHMA-201,SS,GB001-ASTHMA-201-SITE003-0237,1,SURVSTAT,Survival Status,,ALIVE,ALIVE,999.0,END OF STUDY,FOLLOW-UP,2024-09-10,140
GB001-ASTHMA-201,SS,GB001-ASTHMA-201-SITE003-0240,1,SURVSTAT,Survival Status,,ALIVE,ALIVE,999.0,END OF STUDY,FOLLOW-UP,2024-09-13,140
GB001-ASTHMA-201,SS,GB001-ASTHMA-201-SITE003-0243,1,SURVSTAT,Survival Status,,ALIVE,ALIVE,999.0,END OF STUDY,FOLLOW-UP,2024-08-22,140
GB001-ASTHMA-201,SS,GB001-ASTHMA-201-SITE003-0246,1,SURVSTAT,Survival Status,,ALIVE,ALIVE,999.0,END OF STUDY,FOLLOW-UP,2024-08-22,140
GB001-ASTHMA-201,SS,GB001-ASTHMA-201-SITE003-0249,1,SURVSTAT,Survival Status,,ALIVE,ALIVE,999.0,END OF STUDY,FOLLOW-UP,2024-07-22,140
GB001-ASTHMA-201,SS,GB001-ASTHMA-201-SITE003-0252,1,SURVSTAT,Survival Status,,ALIVE,ALIVE,999.0,END OF STUDY,FOLLOW-UP,2024-07-30,140
GB001-ASTHMA-201,SS,GB001-ASTHMA-201-SITE003-0255,1,SURVSTAT,Survival Status,,ALIVE,ALIVE,999.0,END OF STUDY,FOLLOW-UP,2024-06-30,140
GB001-ASTHMA-201,SS,GB001-ASTHMA-201-SITE003-0258,1,SURVSTAT,Survival Status,,ALIVE,ALIVE,999.0,END OF STUDY,FOLLOW-UP,2024-09-04,140
GB001-ASTHMA-201,SS,GB001-ASTHMA-201-SITE003-0261,1,SURVSTAT,Survival Status,,ALIVE,ALIVE,999.0,END OF STUDY,FOLLOW-UP,2024-02-08,9
GB001-ASTHMA-201,SS,GB001-ASTHMA-201-SITE003-0264,1,SURVSTAT,Survival Status,,ALIVE,ALIVE,999.0,END OF STUDY,FOLLOW-UP,2024-03-16,31
GB001-ASTHMA-201,SS,GB001-ASTHMA-201-SITE003-0270,1,SURVSTAT,Survival Status,,ALIVE,ALIVE,999.0,END OF STUDY,FOLLOW-UP,2024-03-18,10
GB001-ASTHMA-201,SS,GB001-ASTHMA-201-SITE003-0273,1,SURVSTAT,Survival Status,,ALIVE,ALIVE,999.0,END OF STUDY,FOLLOW-UP,2024-08-23,140
GB001-ASTHMA-201,SS,GB001-ASTHMA-201-SITE003-0276,1,SURVSTAT,Survival Status,,ALIVE,ALIVE,999.0,END OF STUDY,FOLLOW-UP,2024-06-27,140
GB001-ASTHMA-201,SS,GB001-ASTHMA-201-SITE003-0279,1,SURVSTAT,Survival Status,,ALIVE,ALIVE,999.0,END OF STUDY,FOLLOW-UP,2024-07-18,140
GB001-ASTHMA-201,SS,GB001-ASTHMA-201-SITE003-0282,1,SURVSTAT,Survival Status,,ALIVE,ALIVE,999.0,END OF STUDY,FOLLOW-UP,2024-04-02,49
GB001-ASTHMA-201,SS,GB001-ASTHMA-201-SITE003-0285,1,SURVSTAT,Survival Status,,ALIVE,ALIVE,999.0,END OF STUDY,FOLLOW-UP,2024-07-29,140
GB001-ASTHMA-201,SS,GB001-ASTHMA-201-SITE003-0288,1,SURVSTAT,Survival Status,,ALIVE,ALIVE,999.0,END OF STUDY,FOLLOW-UP,2024-09-25,140
GB001-ASTHMA-201,SS,GB001-ASTHMA-201-SITE003-0291,1,SURVSTAT,Survival Status,,ALIVE,ALIVE,999.0,END OF STUDY,FOLLOW-UP,2024-08-19,140
GB001-ASTHMA-201,SS,GB001-ASTHMA-201-SITE003-0294,1,SURVSTAT,Survival Status,,ALIVE,ALIVE,999.0,END OF STUDY,FOLLOW-UP,2024-07-06,140
GB001-ASTHMA-201,SS,GB001-ASTHMA-201-SITE003-0297,1,SURVSTAT,Survival Status,,ALIVE,ALIVE,999.0,END OF STUDY,FOLLOW-UP,2024-09-19,140
GB001-ASTHMA-201,SS,GB001-ASTHMA-201-SITE003-0300,1,SURVSTAT,Survival Status,,ALIVE,ALIVE,999.0,END OF STUDY,FOLLOW-UP,2024-04-05,14
GB001-ASTHMA-201,SS,GB001-ASTHMA-201-SITE003-0303,1,SURVSTAT,Survival Status,,ALIVE,ALIVE,999.0,END OF STUDY,FOLLOW-UP,2024-07-04,140
GB001-ASTHMA-201,SS,GB001-ASTHMA-201-SITE003-0306,1,SURVSTAT,Survival Status,,ALIVE,ALIVE,999.0,END OF STUDY,FOLLOW-UP,2024-07-20,140
GB001-ASTHMA-201,SS,GB001-ASTHMA-201-SITE003-0309,1,SURVSTAT,Survival Status,,ALIVE,ALIVE,999.0,END OF STUDY,FOLLOW-UP,2024-07-18,140
GB001-ASTHMA-201,SS,GB001-ASTHMA-201-SITE003-0312,1,SURVSTAT,Survival Status,,ALIVE,ALIVE,999.0,END OF STUDY,FOLLOW-UP,2024-08-14,140
GB001-ASTHMA-201,SS,GB001-ASTHMA-201-SITE003-0315,1,SURVSTAT,Survival Status,,ALIVE,ALIVE,999.0,END OF STUDY,FOLLOW-UP,2024-07-11,140
GB001-ASTHMA-201,SS,GB001-ASTHMA-201-SITE003-0318,1,SURVSTAT,Survival Status,,ALIVE,ALIVE,999.0,END OF STUDY,FOLLOW-UP,2024-09-15,140
GB001-ASTHMA-201,SS,GB001-ASTHMA-201-SITE003-0321,1,SURVSTAT,Survival Status,,ALIVE,ALIVE,999.0,END OF STUDY,FOLLOW-UP,2024-09-23,140
GB001-ASTHMA-201,SS,GB001-ASTHMA-201-SITE003-0324,1,SURVSTAT,Survival Status,,ALIVE,ALIVE,999.0,END OF STUDY,FOLLOW-UP,2024-04-18,52
GB001-ASTHMA-201,SS,GB001-ASTHMA-201-SITE003-0327,1,SURVSTAT,Survival Status,,ALIVE,ALIVE,999.0,END OF STUDY,FOLLOW-UP,2024-04-19,4
GB001-ASTHMA-201,SS,GB001-ASTHMA-201-SITE003-0330,1,SURVSTAT,Survival Status,,ALIVE,ALIVE,999.0,END OF STUDY,FOLLOW-UP,2024-08-04,140
GB001-ASTHMA-201,SS,GB001-ASTHMA-201-SITE003-0333,1,SURVSTAT,Survival Status,,ALIVE,ALIVE,999.0,END OF STUDY,FOLLOW-UP,2024-07-09,140
GB001-ASTHMA-201,SS,GB001-ASTHMA-201-SITE003-0336,1,SURVSTAT,Survival Status,,ALIVE,ALIVE,999.0,END OF STUDY,FOLLOW-UP,2024-07-10,140
GB001-ASTHMA-201,SS,GB001-ASTHMA-201-SITE003-0339,1,SURVSTAT,Survival Status,,ALIVE,ALIVE,999.0,END OF STUDY,FOLLOW-UP,2024-06-22,140
GB001-ASTHMA-201,SS,GB001-ASTHMA-201-SITE003-0342,1,SURVSTAT,Survival Status,,ALIVE,ALIVE,999.0,END OF STUDY,FOLLOW-UP,2024-08-17,140
GB001-ASTHMA-201,SS,GB001-ASTHMA-201-SITE003-0345,1,SURVSTAT,Survival Status,,ALIVE,ALIVE,999.0,END OF STUDY,FOLLOW-UP,2024-08-15,140
GB001-ASTHMA-201,SS,GB001-ASTHMA-201-SITE003-0348,1,SURVSTAT,Survival Status,,ALIVE,ALIVE,999.0,END OF STUDY,FOLLOW-UP,2024-09-23,140
GB001-ASTHMA-201,SS,GB001-ASTHMA-201-SITE003-0351,1,SURVSTAT,Survival Status,,ALIVE,ALIVE,999.0,END OF STUDY,FOLLOW-UP,2024-07-22,140
GB001-ASTHMA-201,SS,GB001-ASTHMA-201-SITE003-0354,1,SURVSTAT,Survival Status,,ALIVE,ALIVE,999.0,END OF STUDY,FOLLOW-UP,2024-09-07,140
GB001-ASTHMA-201,SS,GB001-ASTHMA-201-SITE003-0357,1,SURVSTAT,Survival Status,,ALIVE,ALIVE,999.0,END OF STUDY,FOLLOW-UP,2024-02-17,2
GB001-ASTHMA-201,SS,GB001-ASTHMA-201-SITE003-0360,1,SURVSTAT,Survival Status,,ALIVE,ALIVE,999.0,END OF STUDY,FOLLOW-UP,2024-07-12,140
GB001-ASTHMA-201,SS,GB001-ASTHMA-201-SITE003-0366,1,SURVSTAT,Survival Status,,ALIVE,ALIVE,999.0,END OF STUDY,FOLLOW-UP,2024-07-24,140
GB001-ASTHMA-201,SS,GB001-ASTHMA-201-SITE003-0369,1,SURVSTAT,Survival Status,,ALIVE,ALIVE,999.0,END OF STUDY,FOLLOW-UP,2024-08-07,140
GB001-ASTHMA-201,SS,GB001-ASTHMA-201-SITE003-0372,1,SURVSTAT,Survival Status,,ALIVE,ALIVE,999.0,END OF STUDY,FOLLOW-UP,2024-09-07,140
GB001-ASTHMA-201,SS,GB001-ASTHMA-201-SITE003-0375,1,SURVSTAT,Survival Status,,ALIVE,ALIVE,999.0,END OF STUDY,FOLLOW-UP,2024-07-04,140
GB001-ASTHMA-201,SS,GB001-ASTHMA-201-SITE003-0378,1,SURVSTAT,Survival Status,,ALIVE,ALIVE,999.0,END OF STUDY,FOLLOW-UP,2024-09-02,140
GB001-ASTHMA-201,SS,GB001-ASTHMA-201-SITE003-0381,1,SURVSTAT,Survival Status,,ALIVE,ALIVE,999.0,END OF STUDY,FOLLOW-UP,2024-07-24,140
GB001-ASTHMA-201,SS,GB001-ASTHMA-201-SITE003-0384,1,SURVSTAT,Survival Status,,ALIVE,ALIVE,999.0,END OF STUDY,FOLLOW-UP,2024-09-17,140
GB001-ASTHMA-201,SS,GB001-ASTHMA-201-SITE003-0387,1,SURVSTAT,Survival Status,,ALIVE,ALIVE,999.0,END OF STUDY,FOLLOW-UP,2024-06-24,140
GB001-ASTHMA-201,SS,GB001-ASTHMA-201-SITE003-0390,1,SURVSTAT,Survival Status,,ALIVE,ALIVE,999.0,END OF STUDY,FOLLOW-UP,2024-08-29,140
GB001-ASTHMA-201,SS,GB001-ASTHMA-201-SITE003-0393,1,SURVSTAT,Survival Status,,ALIVE,ALIVE,999.0,END OF STUDY,FOLLOW-UP,2024-08-22,140
GB001-ASTHMA-201,SS,GB001-ASTHMA-201-SITE003-0396,1,SURVSTAT,Survival Status,,ALIVE,ALIVE,999.0,END OF STUDY,FOLLOW-UP,2024-03-27,4
GB001-ASTHMA-201,SS,GB001-ASTHMA-201-SITE003-0399,1,SURVSTAT,Survival Status,,ALIVE,ALIVE,999.0,END OF STUDY,FOLLOW-UP,2024-07-22,140
GB001-ASTHMA-201,SS,GB001-ASTHMA-201-SITE003-0402,1,SURVSTAT,Survival Status,,ALIVE,ALIVE,999.0,END OF STUDY,FOLLOW-UP,2024-09-23,140
GB001-ASTHMA-201,SS,GB001-ASTHMA-201-SITE003-0405,1,SURVSTAT,Survival Status,,ALIVE,ALIVE,999.0,END OF STUDY,FOLLOW-UP,2024-03-02,3
GB001-ASTHMA-201,SS,GB001-ASTHMA-201-SITE003-0408,1,SURVSTAT,Survival Status,,ALIVE,ALIVE,999.0,END OF STUDY,FOLLOW-UP,2024-09-19,140
GB001-ASTHMA-201,SS,GB001-ASTHMA-201-SITE003-0411,1,SURVSTAT,Survival Status,,ALIVE,ALIVE,999.0,END OF STUDY,FOLLOW-UP,2024-08-19,140
GB001-ASTHMA-201,SS,GB001-ASTHMA-201-SITE003-0414,1,SURVSTAT,Survival Status,,ALIVE,ALIVE,999.0,END OF STUDY,FOLLOW-UP,2024-09-19,140
GB001-ASTHMA-201,SS,GB001-ASTHMA-201-SITE003-0417,1,SURVSTAT,Survival Status,,ALIVE,ALIVE,999.0,END OF STUDY,FOLLOW-UP,2024-07-28,140
GB001-ASTHMA-201,SS,GB001-ASTHMA-201-SITE003-0420,1,SURVSTAT,Survival Status,,ALIVE,ALIVE,999.0,END OF STUDY,FOLLOW-UP,2024-07-13,140
GB001-ASTHMA-201,SS,GB001-ASTHMA-201-SITE003-0423,1,SURVSTAT,Survival Status,,ALIVE,ALIVE,999.0,END OF STUDY,FOLLOW-UP,2024-03-31,4
GB001-ASTHMA-201,SS,GB001-ASTHMA-201-SITE003-0426,1,SURVSTAT,Survival Status,,ALIVE,ALIVE,999.0,END OF STUDY,FOLLOW-UP,2024-07-13,140
GB001-ASTHMA-201,SS,GB001-ASTHMA-201-SITE003-0429,1,SURVSTAT,Survival Status,,ALIVE,ALIVE,999.0,END OF STUDY,FOLLOW-UP,2024-08-16,140
GB001-ASTHMA-201,SS,GB001-ASTHMA-201-SITE003-0432,1,SURVSTAT,Survival Status,,ALIVE,ALIVE,999.0,END OF STUDY,FOLLOW-UP,2024-03-31,2
GB001-ASTHMA-201,SS,GB001-ASTHMA-201-SITE003-0435,1,SURVSTAT,Survival Status,,ALIVE,ALIVE,999.0,END OF STUDY,FOLLOW-UP,2024-06-24,140
GB001-ASTHMA-201,SS,GB001-ASTHMA-201-SITE003-0438,1,SURVSTAT,Survival Status,,ALIVE,ALIVE,999.0,END OF STUDY,FOLLOW-UP,2024-08-05,140
GB001-ASTHMA-201,SS,GB001-ASTHMA-201-SITE003-0441,1,SURVSTAT,Survival Status,,ALIVE,ALIVE,999.0,END OF STUDY,FOLLOW-UP,2024-09-23,140
GB001-ASTHMA-201,SS,GB001-ASTHMA-201-SITE003-0444,1,SURVSTAT,Survival Status,,ALIVE,ALIVE,999.0,END OF STUDY,FOLLOW-UP,2024-09-05,140
GB001-ASTHMA-201,SS,GB001-ASTHMA-201-SITE003-0447,1,SURVSTAT,Survival Status,,ALIVE,ALIVE,999.0,END OF STUDY,FOLLOW-UP,2024-08-23,140
GB001-ASTHMA-201,SS,GB001-ASTHMA-201-SITE003-0450,1,SURVSTAT,Survival Status,,ALIVE,ALIVE,999.0,END OF STUDY,FOLLOW-UP,2024-07-17,140
GB001-ASTHMA-201,SS,GB001-ASTHMA-201-SITE003-0453,1,SURVSTAT,Survival Status,,ALIVE,ALIVE,999.0,END OF STUDY,FOLLOW-UP,2024-09-08,140
GB001-ASTHMA-201,SS,GB001-ASTHMA-201-SITE003-0456,1,SURVSTAT,Survival Status,,ALIVE,ALIVE,999.0,END OF STUDY,FOLLOW-UP,2024-07-09,140
GB001-ASTHMA-201,SS,GB001-ASTHMA-201-SITE003-0459,1,SURVSTAT,Survival Status,,ALIVE,ALIVE,999.0,END OF STUDY,FOLLOW-UP,2024-08-20,140
GB001-ASTHMA-201,SS,GB001-ASTHMA-201-SITE003-0462,1,SURVSTAT,Survival Status,,ALIVE,ALIVE,999.0,END OF STUDY,FOLLOW-UP,2024-09-06,140
GB001-ASTHMA-201,SS,GB001-ASTHMA-201-SITE003-0465,1,SURVSTAT,Survival Status,,ALIVE,ALIVE,999.0,END OF STUDY,FOLLOW-UP,2024-09-29,140
GB001-ASTHMA-201,SS,GB001-ASTHMA-201-SITE003-0468,1,SURVSTAT,Survival Status,,ALIVE,ALIVE,999.0,END OF STUDY,FOLLOW-UP,2024-08-29,140
GB001-ASTHMA-201,SS,GB001-ASTHMA-201-SITE003-0471,1,SURVSTAT,Survival Status,,ALIVE,ALIVE,999.0,END OF STUDY,FOLLOW-UP,2024-09-13,140
GB001-ASTHMA-201,SS,GB001-ASTHMA-201-SITE003-0474,1,SURVSTAT,Survival Status,,ALIVE,ALIVE,999.0,END OF STUDY,FOLLOW-UP,2024-08-06,140
GB001-ASTHMA-201,SS,GB001-ASTHMA-201-SITE003-0477,1,SURVSTAT,Survival Status,,ALIVE,ALIVE,999.0,END OF STUDY,FOLLOW-UP,2024-03-04,10
GB001-ASTHMA-201,SS,GB001-ASTHMA-201-SITE003-0480,1,SURVSTAT,Survival Status,,ALIVE,ALIVE,999.0,END OF STUDY,FOLLOW-UP,2024-05-16,16
GB001-ASTHMA-201,SS,GB001-ASTHMA-201-SITE003-0483,1,SURVSTAT,Survival Status,,ALIVE,ALIVE,999.0,END OF STUDY,FOLLOW-UP,2024-05-15,10
GB001-ASTHMA-201,SS,GB001-ASTHMA-201-SITE003-0489,1,SURVSTAT,Survival Status,,ALIVE,ALIVE,999.0,END OF STUDY,FOLLOW-UP,2024-07-07,140
GB001-ASTHMA-201,SS,GB001-ASTHMA-201-SITE003-0492,1,SURVSTAT,Survival Status,,ALIVE,ALIVE,999.0,END OF STUDY,FOLLOW-UP,2024-08-26,140
GB001-ASTHMA-201,SS,GB001-ASTHMA-201-SITE003-0495,1,SURVSTAT,Survival Status,,ALIVE,ALIVE,999.0,END OF STUDY,FOLLOW-UP,2024-09-06,140
GB001-ASTHMA-201,SS,GB001-ASTHMA-201-SITE003-0498,1,SURVSTAT,Survival Status,,ALIVE,ALIVE,999.0,END OF STUDY,FOLLOW-UP,2024-07-04,140
