STUDYID,DOMAIN,USUBJID,VSSEQ,VSTESTCD,VSTEST,VSORRES,VSORRESU,VSSTRESC,VSSTRESN,VSSTRESU,VSSTAT,VSLOBXFL,VSBLFL,VISITNUM,VISIT,EPOCH,VSDTC,VSDY
GB001-ASTHMA-201,VS,GB001-ASTHMA-201-SITE001-0001,1,BMI,BMI,26.4,kg/m2,26.4,26.4,kg/m2,,,,1.0,SCREENING,SCREENING,2024-02-22,-31
GB001-ASTHMA-201,VS,GB001-ASTHMA-201-SITE001-0001,2,DIABP,Diastolic Blood Pressure,88.3,mmHg,88.3,88.3,mmHg,,Y,Y,1.0,SCREENING,SCREENING,2024-02-22,-31
GB001-ASTHMA-201,VS,GB001-ASTHMA-201-SITE001-0001,3,HEIGHT,Height,179.0,cm,179.0,179.0,cm,,,,1.0,SCREENING,SCREENING,2024-02-22,-31
GB001-ASTHMA-201,VS,GB001-ASTHMA-201-SITE001-0001,4,PULSE,Pulse Rate,78.0,beats/min,78.0,78.0,beats/min,,,,1.0,SCREENING,SCREENING,2024-02-22,-31
GB001-ASTHMA-201,VS,GB001-ASTHMA-201-SITE001-0001,5,RESP,Respiratory Rate,21.1,breaths/min,21.1,21.1,breaths/min,,,,1.0,SCREENING,SCREENING,2024-02-22,-31
GB001-ASTHMA-201,VS,GB001-ASTHMA-201-SITE001-0001,6,SYSBP,Systolic Blood Pressure,126.3,mmHg,126.3,126.3,mmHg,,,,1.0,SCREENING,SCREENING,2024-02-22,-31
GB001-ASTHMA-201,VS,GB001-ASTHMA-201-SITE001-0001,7,TEMP,Temperature,37.0,C,37.0,37.0,C,,,,1.0,SCREENING,SCREENING,2024-02-22,-31
GB001-ASTHMA-201,VS,GB001-ASTHMA-201-SITE001-0001,8,WEIGHT,Weight,84.6,kg,84.6,84.6,kg,,,,1.0,SCREENING,SCREENING,2024-02-22,-31
GB001-ASTHMA-201,VS,GB001-ASTHMA-201-SITE001-0001,9,BMI,BMI,27.0,kg/m2,27.0,27.0,kg/m2,,Y,Y,2.0,BASELINE,TREATMENT,2024-03-24,1
GB001-ASTHMA-201,VS,GB001-ASTHMA-201-SITE001-0001,10,DIABP,Diastolic Blood Pressure,,,,,,NOT DONE,,,2.0,BASELINE,TREATMENT,2024-03-24,1
GB001-ASTHMA-201,VS,GB001-ASTHMA-201-SITE001-0001,11,HEIGHT,Height,178.5,cm,178.5,178.5,cm,,Y,Y,2.0,BASELINE,TREATMENT,2024-03-24,1
GB001-ASTHMA-201,VS,GB001-ASTHMA-201-SITE001-0001,12,PULSE,Pulse Rate,81.8,beats/min,81.8,81.8,beats/min,,Y,Y,2.0,BASELINE,TREATMENT,2024-03-24,1
GB001-ASTHMA-201,VS,GB001-ASTHMA-201-SITE001-0001,13,RESP,Respiratory Rate,20.3,breaths/min,20.3,20.3,breaths/min,,Y,Y,2.0,BASELINE,TREATMENT,2024-03-24,1
GB001-ASTHMA-201,VS,GB001-ASTHMA-201-SITE001-0001,14,SYSBP,Systolic Blood Pressure,126.1,mmHg,126.1,126.1,mmHg,,Y,Y,2.0,BASELINE,TREATMENT,2024-03-24,1
GB001-ASTHMA-201,VS,GB001-ASTHMA-201-SITE001-0001,15,TEMP,Temperature,37.0,C,37.0,37.0,C,,Y,Y,2.0,BASELINE,TREATMENT,2024-03-24,1
GB001-ASTHMA-201,VS,GB001-ASTHMA-201-SITE001-0001,16,WEIGHT,Weight,86.0,kg,86.0,86.0,kg,,Y,Y,2.0,BASELINE,TREATMENT,2024-03-24,1
GB001-ASTHMA-201,VS,GB001-ASTHMA-201-SITE001-0001,17,BMI,BMI,26.1,kg/m2,26.1,26.1,kg/m2,,,,3.0,WEEK 2,TREATMENT,2024-04-09,17
GB001-ASTHMA-201,VS,GB001-ASTHMA-201-SITE001-0001,18,DIABP,Diastolic Blood Pressure,87.7,mmHg,87.7,87.7,mmHg,,,,3.0,WEEK 2,TREATMENT,2024-04-09,17
GB001-ASTHMA-201,VS,GB001-ASTHMA-201-SITE001-0001,19,HEIGHT,Height,179.4,cm,179.4,179.4,cm,,,,3.0,WEEK 2,TREATMENT,2024-04-09,17
GB001-ASTHMA-201,VS,GB001-ASTHMA-201-SITE001-0001,20,PULSE,Pulse Rate,83.5,beats/min,83.5,83.5,beats/min,,,,3.0,WEEK 2,TREATMENT,2024-04-09,17
GB001-ASTHMA-201,VS,GB001-ASTHMA-201-SITE001-0001,21,RESP,Respiratory Rate,22.9,breaths/min,22.9,22.9,breaths/min,,,,3.0,WEEK 2,TREATMENT,2024-04-09,17
GB001-ASTHMA-201,VS,GB001-ASTHMA-201-SITE001-0001,22,SYSBP,Systolic Blood Pressure,128.7,mmHg,128.7,128.7,mmHg,,,,3.0,WEEK 2,TREATMENT,2024-04-09,17
GB001-ASTHMA-201,VS,GB001-ASTHMA-201-SITE001-0001,23,TEMP,Temperature,37.0,C,37.0,37.0,C,,,,3.0,WEEK 2,TREATMENT,2024-04-09,17
GB001-ASTHMA-201,VS,GB001-ASTHMA-201-SITE001-0001,24,WEIGHT,Weight,84.1,kg,84.1,84.1,kg,,,,3.0,WEEK 2,TREATMENT,2024-04-09,17
GB001-ASTHMA-201,VS,GB001-ASTHMA-201-SITE001-0001,25,BMI,BMI,26.2,kg/m2,26.2,26.2,kg/m2,,,,4.0,WEEK 4,TREATMENT,2024-04-24,32
GB001-ASTHMA-201,VS,GB001-ASTHMA-201-SITE001-0001,26,DIABP,Diastolic Blood Pressure,87.8,mmHg,87.8,87.8,mmHg,,,,4.0,WEEK 4,TREATMENT,2024-04-24,32
GB001-ASTHMA-201,VS,GB001-ASTHMA-201-SITE001-0001,27,HEIGHT,Height,179.2,cm,179.2,179.2,cm,,,,4.0,WEEK 4,TREATMENT,2024-04-24,32
GB001-ASTHMA-201,VS,GB001-ASTHMA-201-SITE001-0001,28,PULSE,Pulse Rate,85.9,beats/min,85.9,85.9,beats/min,,,,4.0,WEEK 4,TREATMENT,2024-04-24,32
GB001-ASTHMA-201,VS,GB001-ASTHMA-201-SITE001-0001,29,RESP,Respiratory Rate,20.4,breaths/min,20.4,20.4,breaths/min,,,,4.0,WEEK 4,TREATMENT,2024-04-24,32
GB001-ASTHMA-201,VS,GB001-ASTHMA-201-SITE001-0001,30,SYSBP,Systolic Blood Pressure,129.9,mmHg,129.9,129.9,mmHg,,,,4.0,WEEK 4,TREATMENT,2024-04-24,32
GB001-ASTHMA-201,VS,GB001-ASTHMA-201-SITE001-0001,31,TEMP,Temperature,37.0,C,37.0,37.0,C,,,,4.0,WEEK 4,TREATMENT,2024-04-24,32
GB001-ASTHMA-201,VS,GB001-ASTHMA-201-SITE001-0001,32,WEIGHT,Weight,84.1,kg,84.1,84.1,kg,,,,4.0,WEEK 4,TREATMENT,2024-04-24,32
GB001-ASTHMA-201,VS,GB001-ASTHMA-201-SITE001-0001,33,BMI,BMI,24.6,kg/m2,24.6,24.6,kg/m2,,,,5.0,WEEK 8,TREATMENT,2024-05-19,57
GB001-ASTHMA-201,VS,GB001-ASTHMA-201-SITE001-0001,34,DIABP,Diastolic Blood Pressure,87.8,mmHg,87.8,87.8,mmHg,,,,5.0,WEEK 8,TREATMENT,2024-05-19,57
GB001-ASTHMA-201,VS,GB001-ASTHMA-201-SITE001-0001,35,HEIGHT,Height,179.6,cm,179.6,179.6,cm,,,,5.0,WEEK 8,TREATMENT,2024-05-19,57
GB001-ASTHMA-201,VS,GB001-ASTHMA-201-SITE001-0001,36,PULSE,Pulse Rate,82.4,beats/min,82.4,82.4,beats/min,,,,5.0,WEEK 8,TREATMENT,2024-05-19,57
GB001-ASTHMA-201,VS,GB001-ASTHMA-201-SITE001-0001,37,RESP,Respiratory Rate,20.2,breaths/min,20.2,20.2,breaths/min,,,,5.0,WEEK 8,TREATMENT,2024-05-19,57
GB001-ASTHMA-201,VS,GB001-ASTHMA-201-SITE001-0001,38,SYSBP,Systolic Blood Pressure,129.1,mmHg,129.1,129.1,mmHg,,,,5.0,WEEK 8,TREATMENT,2024-05-19,57
GB001-ASTHMA-201,VS,GB001-ASTHMA-201-SITE001-0001,39,TEMP,Temperature,36.9,C,36.9,36.9,C,,,,5.0,WEEK 8,TREATMENT,2024-05-19,57
GB001-ASTHMA-201,VS,GB001-ASTHMA-201-SITE001-0001,40,WEIGHT,Weight,79.5,kg,79.5,79.5,kg,,,,5.0,WEEK 8,TREATMENT,2024-05-19,57
GB001-ASTHMA-201,VS,GB001-ASTHMA-201-SITE001-0001,41,BMI,BMI,24.3,kg/m2,24.3,24.3,kg/m2,,,,6.0,WEEK 12,TREATMENT,2024-06-16,85
GB001-ASTHMA-201,VS,GB001-ASTHMA-201-SITE001-0001,42,DIABP,Diastolic Blood Pressure,88.9,mmHg,88.9,88.9,mmHg,,,,6.0,WEEK 12,TREATMENT,2024-06-16,85
GB001-ASTHMA-201,VS,GB001-ASTHMA-201-SITE001-0001,43,HEIGHT,Height,179.8,cm,179.8,179.8,cm,,,,6.0,WEEK 12,TREATMENT,2024-06-16,85
GB001-ASTHMA-201,VS,GB001-ASTHMA-201-SITE001-0001,44,PULSE,Pulse Rate,79.7,beats/min,79.7,79.7,beats/min,,,,6.0,WEEK 12,TREATMENT,2024-06-16,85
GB001-ASTHMA-201,VS,GB001-ASTHMA-201-SITE001-0001,45,RESP,Respiratory Rate,20.0,breaths/min,20.0,20.0,breaths/min,,,,6.0,WEEK 12,TREATMENT,2024-06-16,85
GB001-ASTHMA-201,VS,GB001-ASTHMA-201-SITE001-0001,46,SYSBP,Systolic Blood Pressure,132.5,mmHg,132.5,132.5,mmHg,,,,6.0,WEEK 12,TREATMENT,2024-06-16,85
GB001-ASTHMA-201,VS,GB001-ASTHMA-201-SITE001-0001,47,TEMP,Temperature,37.1,C,37.1,37.1,C,,,,6.0,WEEK 12,TREATMENT,2024-06-16,85
GB001-ASTHMA-201,VS,GB001-ASTHMA-201-SITE001-0001,48,WEIGHT,Weight,78.6,kg,78.6,78.6,kg,,,,6.0,WEEK 12,TREATMENT,2024-06-16,85
GB001-ASTHMA-201,VS,GB001-ASTHMA-201-SITE001-0001,49,BMI,BMI,24.6,kg/m2,24.6,24.6,kg/m2,,,,7.0,FOLLOW-UP,FOLLOW-UP,2024-07-21,120
GB001-ASTHMA-201,VS,GB001-ASTHMA-201-SITE001-0001,50,DIABP,Diastolic Blood Pressure,90.0,mmHg,90.0,90.0,mmHg,,,,7.0,FOLLOW-UP,FOLLOW-UP,2024-07-21,120
GB001-ASTHMA-201,VS,GB001-ASTHMA-201-SITE001-0001,51,HEIGHT,Height,179.9,cm,179.9,179.9,cm,,,,7.0,FOLLOW-UP,FOLLOW-UP,2024-07-21,120
GB001-ASTHMA-201,VS,GB001-ASTHMA-201-SITE001-0001,52,PULSE,Pulse Rate,78.4,beats/min,78.4,78.4,beats/min,,,,7.0,FOLLOW-UP,FOLLOW-UP,2024-07-21,120
GB001-ASTHMA-201,VS,GB001-ASTHMA-201-SITE001-0001,53,RESP,Respiratory Rate,20.5,breaths/min,20.5,20.5,breaths/min,,,,7.0,FOLLOW-UP,FOLLOW-UP,2024-07-21,120
GB001-ASTHMA-201,VS,GB001-ASTHMA-201-SITE001-0001,54,SYSBP,Systolic Blood Pressure,135.5,mmHg,135.5,135.5,mmHg,,,,7.0,FOLLOW-UP,FOLLOW-UP,2024-07-21,120
GB001-ASTHMA-201,VS,GB001-ASTHMA-201-SITE001-0001,55,TEMP,Temperature,37.2,C,37.2,37.2,C,,,,7.0,FOLLOW-UP,FOLLOW-UP,2024-07-21,120
GB001-ASTHMA-201,VS,GB001-ASTHMA-201-SITE001-0001,56,WEIGHT,Weight,79.7,kg,79.7,79.7,kg,,,,7.0,FOLLOW-UP,FOLLOW-UP,2024-07-21,120
GB001-ASTHMA-201,VS,GB001-ASTHMA-201-SITE001-0004,1,BMI,BMI,19.3,kg/m2,19.3,19.3,kg/m2,,,,1.0,SCREENING,SCREENING,2024-03-26,-16
GB001-ASTHMA-201,VS,GB001-ASTHMA-201-SITE001-0004,2,DIABP,Diastolic Blood Pressure,,,,,,NOT DONE,,,1.0,SCREENING,SCREENING,2024-03-26,-16
GB001-ASTHMA-201,VS,GB001-ASTHMA-201-SITE001-0004,3,HEIGHT,Height,157.1,cm,157.1,157.1,cm,,,,1.0,SCREENING,SCREENING,2024-03-26,-16
GB001-ASTHMA-201,VS,GB001-ASTHMA-201-SITE001-0004,4,PULSE,Pulse Rate,68.3,beats/min,68.3,68.3,beats/min,,,,1.0,SCREENING,SCREENING,2024-03-26,-16
GB001-ASTHMA-201,VS,GB001-ASTHMA-201-SITE001-0004,5,RESP,Respiratory Rate,11.9,breaths/min,11.9,11.9,breaths/min,,,,1.0,SCREENING,SCREENING,2024-03-26,-16
GB001-ASTHMA-201,VS,GB001-ASTHMA-201-SITE001-0004,6,SYSBP,Systolic Blood Pressure,118.6,mmHg,118.6,118.6,mmHg,,,,1.0,SCREENING,SCREENING,2024-03-26,-16
GB001-ASTHMA-201,VS,GB001-ASTHMA-201-SITE001-0004,7,TEMP,Temperature,37.9,C,37.9,37.9,C,,,,1.0,SCREENING,SCREENING,2024-03-26,-16
GB001-ASTHMA-201,VS,GB001-ASTHMA-201-SITE001-0004,8,WEIGHT,Weight,47.6,kg,47.6,47.6,kg,,,,1.0,SCREENING,SCREENING,2024-03-26,-16
GB001-ASTHMA-201,VS,GB001-ASTHMA-201-SITE001-0004,9,BMI,BMI,19.0,kg/m2,19.0,19.0,kg/m2,,Y,Y,2.0,BASELINE,TREATMENT,2024-04-11,1
GB001-ASTHMA-201,VS,GB001-ASTHMA-201-SITE001-0004,10,DIABP,Diastolic Blood Pressure,92.2,mmHg,92.2,92.2,mmHg,,Y,Y,2.0,BASELINE,TREATMENT,2024-04-11,1
GB001-ASTHMA-201,VS,GB001-ASTHMA-201-SITE001-0004,11,HEIGHT,Height,157.4,cm,157.4,157.4,cm,,Y,Y,2.0,BASELINE,TREATMENT,2024-04-11,1
GB001-ASTHMA-201,VS,GB001-ASTHMA-201-SITE001-0004,12,PULSE,Pulse Rate,68.6,beats/min,68.6,68.6,beats/min,,Y,Y,2.0,BASELINE,TREATMENT,2024-04-11,1
GB001-ASTHMA-201,VS,GB001-ASTHMA-201-SITE001-0004,13,RESP,Respiratory Rate,12.5,breaths/min,12.5,12.5,breaths/min,,Y,Y,2.0,BASELINE,TREATMENT,2024-04-11,1
GB001-ASTHMA-201,VS,GB001-ASTHMA-201-SITE001-0004,14,SYSBP,Systolic Blood Pressure,117.8,mmHg,117.8,117.8,mmHg,,Y,Y,2.0,BASELINE,TREATMENT,2024-04-11,1
GB001-ASTHMA-201,VS,GB001-ASTHMA-201-SITE001-0004,15,TEMP,Temperature,37.9,C,37.9,37.9,C,,Y,Y,2.0,BASELINE,TREATMENT,2024-04-11,1
GB001-ASTHMA-201,VS,GB001-ASTHMA-201-SITE001-0004,16,WEIGHT,Weight,47.0,kg,47.0,47.0,kg,,Y,Y,2.0,BASELINE,TREATMENT,2024-04-11,1
GB001-ASTHMA-201,VS,GB001-ASTHMA-201-SITE001-0004,17,BMI,BMI,18.7,kg/m2,18.7,18.7,kg/m2,,,,3.0,WEEK 2,TREATMENT,2024-04-25,15
GB001-ASTHMA-201,VS,GB001-ASTHMA-201-SITE001-0004,18,DIABP,Diastolic Blood Pressure,90.5,mmHg,90.5,90.5,mmHg,,,,3.0,WEEK 2,TREATMENT,2024-04-25,15
GB001-ASTHMA-201,VS,GB001-ASTHMA-201-SITE001-0004,19,HEIGHT,Height,157.2,cm,157.2,157.2,cm,,,,3.0,WEEK 2,TREATMENT,2024-04-25,15
GB001-ASTHMA-201,VS,GB001-ASTHMA-201-SITE001-0004,20,PULSE,Pulse Rate,66.0,beats/min,66.0,66.0,beats/min,,,,3.0,WEEK 2,TREATMENT,2024-04-25,15
GB001-ASTHMA-201,VS,GB001-ASTHMA-201-SITE001-0004,21,RESP,Respiratory Rate,13.1,breaths/min,13.1,13.1,breaths/min,,,,3.0,WEEK 2,TREATMENT,2024-04-25,15
GB001-ASTHMA-201,VS,GB001-ASTHMA-201-SITE001-0004,22,SYSBP,Systolic Blood Pressure,113.2,mmHg,113.2,113.2,mmHg,,,,3.0,WEEK 2,TREATMENT,2024-04-25,15
GB001-ASTHMA-201,VS,GB001-ASTHMA-201-SITE001-0004,23,TEMP,Temperature,37.6,C,37.6,37.6,C,,,,3.0,WEEK 2,TREATMENT,2024-04-25,15
GB001-ASTHMA-201,VS,GB001-ASTHMA-201-SITE001-0004,24,WEIGHT,Weight,46.2,kg,46.2,46.2,kg,,,,3.0,WEEK 2,TREATMENT,2024-04-25,15
GB001-ASTHMA-201,VS,GB001-ASTHMA-201-SITE001-0004,25,BMI,BMI,19.2,kg/m2,19.2,19.2,kg/m2,,,,4.0,WEEK 4,TREATMENT,2024-05-08,28
GB001-ASTHMA-201,VS,GB001-ASTHMA-201-SITE001-0004,26,DIABP,Diastolic Blood Pressure,90.8,mmHg,90.8,90.8,mmHg,,,,4.0,WEEK 4,TREATMENT,2024-05-08,28
GB001-ASTHMA-201,VS,GB001-ASTHMA-201-SITE001-0004,27,HEIGHT,Height,157.2,cm,157.2,157.2,cm,,,,4.0,WEEK 4,TREATMENT,2024-05-08,28
GB001-ASTHMA-201,VS,GB001-ASTHMA-201-SITE001-0004,28,PULSE,Pulse Rate,70.2,beats/min,70.2,70.2,beats/min,,,,4.0,WEEK 4,TREATMENT,2024-05-08,28
GB001-ASTHMA-201,VS,GB001-ASTHMA-201-SITE001-0004,29,RESP,Respiratory Rate,12.7,breaths/min,12.7,12.7,breaths/min,,,,4.0,WEEK 4,TREATMENT,2024-05-08,28
GB001-ASTHMA-201,VS,GB001-ASTHMA-201-SITE001-0004,30,SYSBP,Systolic Blood Pressure,115.3,mmHg,115.3,115.3,mmHg,,,,4.0,WEEK 4,TREATMENT,2024-05-08,28
GB001-ASTHMA-201,VS,GB001-ASTHMA-201-SITE001-0004,31,TEMP,Temperature,37.8,C,37.8,37.8,C,,,,4.0,WEEK 4,TREATMENT,2024-05-08,28
GB001-ASTHMA-201,VS,GB001-ASTHMA-201-SITE001-0004,32,WEIGHT,Weight,47.4,kg,47.4,47.4,kg,,,,4.0,WEEK 4,TREATMENT,2024-05-08,28
GB001-ASTHMA-201,VS,GB001-ASTHMA-201-SITE001-0007,1,BMI,BMI,29.5,kg/m2,29.5,29.5,kg/m2,,,,1.0,SCREENING,SCREENING,2024-02-27,-39
GB001-ASTHMA-201,VS,GB001-ASTHMA-201-SITE001-0007,2,DIABP,Diastolic Blood Pressure,76.9,mmHg,76.9,76.9,mmHg,,,,1.0,SCREENING,SCREENING,2024-02-27,-39
GB001-ASTHMA-201,VS,GB001-ASTHMA-201-SITE001-0007,3,HEIGHT,Height,151.5,cm,151.5,151.5,cm,,,,1.0,SCREENING,SCREENING,2024-02-27,-39
GB001-ASTHMA-201,VS,GB001-ASTHMA-201-SITE001-0007,4,PULSE,Pulse Rate,65.8,beats/min,65.8,65.8,beats/min,,,,1.0,SCREENING,SCREENING,2024-02-27,-39
GB001-ASTHMA-201,VS,GB001-ASTHMA-201-SITE001-0007,5,RESP,Respiratory Rate,18.1,breaths/min,18.1,18.1,breaths/min,,,,1.0,SCREENING,SCREENING,2024-02-27,-39
GB001-ASTHMA-201,VS,GB001-ASTHMA-201-SITE001-0007,6,SYSBP,Systolic Blood Pressure,116.2,mmHg,116.2,116.2,mmHg,,,,1.0,SCREENING,SCREENING,2024-02-27,-39
GB001-ASTHMA-201,VS,GB001-ASTHMA-201-SITE001-0007,7,TEMP,Temperature,36.5,C,36.5,36.5,C,,,,1.0,SCREENING,SCREENING,2024-02-27,-39
GB001-ASTHMA-201,VS,GB001-ASTHMA-201-SITE001-0007,8,WEIGHT,Weight,67.8,kg,67.8,67.8,kg,,,,1.0,SCREENING,SCREENING,2024-02-27,-39
GB001-ASTHMA-201,VS,GB001-ASTHMA-201-SITE001-0007,9,BMI,BMI,30.5,kg/m2,30.5,30.5,kg/m2,,Y,Y,2.0,BASELINE,TREATMENT,2024-04-06,1
GB001-ASTHMA-201,VS,GB001-ASTHMA-201-SITE001-0007,10,DIABP,Diastolic Blood Pressure,76.2,mmHg,76.2,76.2,mmHg,,Y,Y,2.0,BASELINE,TREATMENT,2024-04-06,1
GB001-ASTHMA-201,VS,GB001-ASTHMA-201-SITE001-0007,11,HEIGHT,Height,151.2,cm,151.2,151.2,cm,,Y,Y,2.0,BASELINE,TREATMENT,2024-04-06,1
GB001-ASTHMA-201,VS,GB001-ASTHMA-201-SITE001-0007,12,PULSE,Pulse Rate,66.5,beats/min,66.5,66.5,beats/min,,Y,Y,2.0,BASELINE,TREATMENT,2024-04-06,1
GB001-ASTHMA-201,VS,GB001-ASTHMA-201-SITE001-0007,13,RESP,Respiratory Rate,16.2,breaths/min,16.2,16.2,breaths/min,,Y,Y,2.0,BASELINE,TREATMENT,2024-04-06,1
GB001-ASTHMA-201,VS,GB001-ASTHMA-201-SITE001-0007,14,SYSBP,Systolic Blood Pressure,114.4,mmHg,114.4,114.4,mmHg,,Y,Y,2.0,BASELINE,TREATMENT,2024-04-06,1
GB001-ASTHMA-201,VS,GB001-ASTHMA-201-SITE001-0007,15,TEMP,Temperature,36.1,C,36.1,36.1,C,,Y,Y,2.0,BASELINE,TREATMENT,2024-04-06,1
GB001-ASTHMA-201,VS,GB001-ASTHMA-201-SITE001-0007,16,WEIGHT,Weight,69.7,kg,69.7,69.7,kg,,Y,Y,2.0,BASELINE,TREATMENT,2024-04-06,1
GB001-ASTHMA-201,VS,GB001-ASTHMA-201-SITE001-0007,17,BMI,BMI,29.9,kg/m2,29.9,29.9,kg/m2,,,,3.0,WEEK 2,TREATMENT,2024-04-23,18
GB001-ASTHMA-201,VS,GB001-ASTHMA-201-SITE001-0007,18,DIABP,Diastolic Blood Pressure,73.5,mmHg,73.5,73.5,mmHg,,,,3.0,WEEK 2,TREATMENT,2024-04-23,18
GB001-ASTHMA-201,VS,GB001-ASTHMA-201-SITE001-0007,19,HEIGHT,Height,151.4,cm,151.4,151.4,cm,,,,3.0,WEEK 2,TREATMENT,2024-04-23,18
GB001-ASTHMA-201,VS,GB001-ASTHMA-201-SITE001-0007,20,PULSE,Pulse Rate,70.2,beats/min,70.2,70.2,beats/min,,,,3.0,WEEK 2,TREATMENT,2024-04-23,18
GB001-ASTHMA-201,VS,GB001-ASTHMA-201-SITE001-0007,21,RESP,Respiratory Rate,18.9,breaths/min,18.9,18.9,breaths/min,,,,3.0,WEEK 2,TREATMENT,2024-04-23,18
GB001-ASTHMA-201,VS,GB001-ASTHMA-201-SITE001-0007,22,SYSBP,Systolic Blood Pressure,113.7,mmHg,113.7,113.7,mmHg,,,,3.0,WEEK 2,TREATMENT,2024-04-23,18
GB001-ASTHMA-201,VS,GB001-ASTHMA-201-SITE001-0007,23,TEMP,Temperature,36.3,C,36.3,36.3,C,,,,3.0,WEEK 2,TREATMENT,2024-04-23,18
GB001-ASTHMA-201,VS,GB001-ASTHMA-201-SITE001-0007,24,WEIGHT,Weight,68.5,kg,68.5,68.5,kg,,,,3.0,WEEK 2,TREATMENT,2024-04-23,18
GB001-ASTHMA-201,VS,GB001-ASTHMA-201-SITE001-0007,25,BMI,BMI,29.9,kg/m2,29.9,29.9,kg/m2,,,,4.0,WEEK 4,TREATMENT,2024-05-07,32
GB001-ASTHMA-201,VS,GB001-ASTHMA-201-SITE001-0007,26,DIABP,Diastolic Blood Pressure,72.9,mmHg,72.9,72.9,mmHg,,,,4.0,WEEK 4,TREATMENT,2024-05-07,32
GB001-ASTHMA-201,VS,GB001-ASTHMA-201-SITE001-0007,27,HEIGHT,Height,150.8,cm,150.8,150.8,cm,,,,4.0,WEEK 4,TREATMENT,2024-05-07,32
GB001-ASTHMA-201,VS,GB001-ASTHMA-201-SITE001-0007,28,PULSE,Pulse Rate,68.7,beats/min,68.7,68.7,beats/min,,,,4.0,WEEK 4,TREATMENT,2024-05-07,32
GB001-ASTHMA-201,VS,GB001-ASTHMA-201-SITE001-0007,29,RESP,Respiratory Rate,18.6,breaths/min,18.6,18.6,breaths/min,,,,4.0,WEEK 4,TREATMENT,2024-05-07,32
GB001-ASTHMA-201,VS,GB001-ASTHMA-201-SITE001-0007,30,SYSBP,Systolic Blood Pressure,111.6,mmHg,111.6,111.6,mmHg,,,,4.0,WEEK 4,TREATMENT,2024-05-07,32
GB001-ASTHMA-201,VS,GB001-ASTHMA-201-SITE001-0007,31,TEMP,Temperature,36.3,C,36.3,36.3,C,,,,4.0,WEEK 4,TREATMENT,2024-05-07,32
GB001-ASTHMA-201,VS,GB001-ASTHMA-201-SITE001-0007,32,WEIGHT,Weight,68.0,kg,68.0,68.0,kg,,,,4.0,WEEK 4,TREATMENT,2024-05-07,32
GB001-ASTHMA-201,VS,GB001-ASTHMA-201-SITE001-0007,33,BMI,BMI,30.8,kg/m2,30.8,30.8,kg/m2,,,,5.0,WEEK 8,TREATMENT,2024-06-03,59
GB001-ASTHMA-201,VS,GB001-ASTHMA-201-SITE001-0007,34,DIABP,Diastolic Blood Pressure,72.6,mmHg,72.6,72.6,mmHg,,,,5.0,WEEK 8,TREATMENT,2024-06-03,59
GB001-ASTHMA-201,VS,GB001-ASTHMA-201-SITE001-0007,35,HEIGHT,Height,150.4,cm,150.4,150.4,cm,,,,5.0,WEEK 8,TREATMENT,2024-06-03,59
GB001-ASTHMA-201,VS,GB001-ASTHMA-201-SITE001-0007,36,PULSE,Pulse Rate,62.9,beats/min,62.9,62.9,beats/min,,,,5.0,WEEK 8,TREATMENT,2024-06-03,59
GB001-ASTHMA-201,VS,GB001-ASTHMA-201-SITE001-0007,37,RESP,Respiratory Rate,18.3,breaths/min,18.3,18.3,breaths/min,,,,5.0,WEEK 8,TREATMENT,2024-06-03,59
GB001-ASTHMA-201,VS,GB001-ASTHMA-201-SITE001-0007,38,SYSBP,Systolic Blood Pressure,110.9,mmHg,110.9,110.9,mmHg,,,,5.0,WEEK 8,TREATMENT,2024-06-03,59
GB001-ASTHMA-201,VS,GB001-ASTHMA-201-SITE001-0007,39,TEMP,Temperature,36.2,C,36.2,36.2,C,,,,5.0,WEEK 8,TREATMENT,2024-06-03,59
GB001-ASTHMA-201,VS,GB001-ASTHMA-201-SITE001-0007,40,WEIGHT,Weight,69.7,kg,69.7,69.7,kg,,,,5.0,WEEK 8,TREATMENT,2024-06-03,59
GB001-ASTHMA-201,VS,GB001-ASTHMA-201-SITE001-0007,41,BMI,BMI,30.5,kg/m2,30.5,30.5,kg/m2,,,,6.0,WEEK 12,TREATMENT,2024-07-02,88
GB001-ASTHMA-201,VS,GB001-ASTHMA-201-SITE001-0007,42,DIABP,Diastolic Blood Pressure,73.9,mmHg,73.9,73.9,mmHg,,,,6.0,WEEK 12,TREATMENT,2024-07-02,88
GB001-ASTHMA-201,VS,GB001-ASTHMA-201-SITE001-0007,43,HEIGHT,Height,150.4,cm,150.4,150.4,cm,,,,6.0,WEEK 12,TREATMENT,2024-07-02,88
GB001-ASTHMA-201,VS,GB001-ASTHMA-201-SITE001-0007,44,PULSE,Pulse Rate,60.6,beats/min,60.6,60.6,beats/min,,,,6.0,WEEK 12,TREATMENT,2024-07-02,88
GB001-ASTHMA-201,VS,GB001-ASTHMA-201-SITE001-0007,45,RESP,Respiratory Rate,18.6,breaths/min,18.6,18.6,breaths/min,,,,6.0,WEEK 12,TREATMENT,2024-07-02,88
GB001-ASTHMA-201,VS,GB001-ASTHMA-201-SITE001-0007,46,SYSBP,Systolic Blood Pressure,,,,,,NOT DONE,,,6.0,WEEK 12,TREATMENT,2024-07-02,88
GB001-ASTHMA-201,VS,GB001-ASTHMA-201-SITE001-0007,47,TEMP,Temperature,36.2,C,36.2,36.2,C,,,,6.0,WEEK 12,TREATMENT,2024-07-02,88
GB001-ASTHMA-201,VS,GB001-ASTHMA-201-SITE001-0007,48,WEIGHT,Weight,69.1,kg,69.1,69.1,kg,,,,6.0,WEEK 12,TREATMENT,2024-07-02,88
GB001-ASTHMA-201,VS,GB001-ASTHMA-201-SITE001-0007,49,BMI,BMI,31.2,kg/m2,31.2,31.2,kg/m2,,,,7.0,FOLLOW-UP,FOLLOW-UP,2024-07-28,114
GB001-ASTHMA-201,VS,GB001-ASTHMA-201-SITE001-0007,50,DIABP,Diastolic Blood Pressure,73.9,mmHg,73.9,73.9,mmHg,,,,7.0,FOLLOW-UP,FOLLOW-UP,2024-07-28,114
GB001-ASTHMA-201,VS,GB001-ASTHMA-201-SITE001-0007,51,HEIGHT,Height,150.4,cm,150.4,150.4,cm,,,,7.0,FOLLOW-UP,FOLLOW-UP,2024-07-28,114
GB001-ASTHMA-201,VS,GB001-ASTHMA-201-SITE001-0007,52,PULSE,Pulse Rate,63.0,beats/min,63.0,63.0,beats/min,,,,7.0,FOLLOW-UP,FOLLOW-UP,2024-07-28,114
GB001-ASTHMA-201,VS,GB001-ASTHMA-201-SITE001-0007,53,RESP,Respiratory Rate,18.2,breaths/min,18.2,18.2,breaths/min,,,,7.0,FOLLOW-UP,FOLLOW-UP,2024-07-28,114
GB001-ASTHMA-201,VS,GB001-ASTHMA-201-SITE001-0007,54,SYSBP,Systolic Blood Pressure,109.7,mmHg,109.7,109.7,mmHg,,,,7.0,FOLLOW-UP,FOLLOW-UP,2024-07-28,114
GB001-ASTHMA-201,VS,GB001-ASTHMA-201-SITE001-0007,55,TEMP,Temperature,36.1,C,36.1,36.1,C,,,,7.0,FOLLOW-UP,FOLLOW-UP,2024-07-28,114
GB001-ASTHMA-201,VS,GB001-ASTHMA-201-SITE001-0007,56,WEIGHT,Weight,70.6,kg,70.6,70.6,kg,,,,7.0,FOLLOW-UP,FOLLOW-UP,2024-07-28,114
GB001-ASTHMA-201,VS,GB001-ASTHMA-201-SITE001-0010,1,BMI,BMI,28.8,kg/m2,28.8,28.8,kg/m2,,,,1.0,SCREENING,SCREENING,2024-04-11,-22
GB001-ASTHMA-201,VS,GB001-ASTHMA-201-SITE001-0010,2,DIABP,Diastolic Blood Pressure,80.7,mmHg,80.7,80.7,mmHg,,,,1.0,SCREENING,SCREENING,2024-04-11,-22
GB001-ASTHMA-201,VS,GB001-ASTHMA-201-SITE001-0010,3,HEIGHT,Height,159.0,cm,159.0,159.0,cm,,,,1.0,SCREENING,SCREENING,2024-04-11,-22
GB001-ASTHMA-201,VS,GB001-ASTHMA-201-SITE001-0010,4,PULSE,Pulse Rate,54.1,beats/min,54.1,54.1,beats/min,,,,1.0,SCREENING,SCREENING,2024-04-11,-22
GB001-ASTHMA-201,VS,GB001-ASTHMA-201-SITE001-0010,5,RESP,Respiratory Rate,17.3,breaths/min,17.3,17.3,breaths/min,,,,1.0,SCREENING,SCREENING,2024-04-11,-22
GB001-ASTHMA-201,VS,GB001-ASTHMA-201-SITE001-0010,6,SYSBP,Systolic Blood Pressure,152.2,mmHg,152.2,152.2,mmHg,,,,1.0,SCREENING,SCREENING,2024-04-11,-22
GB001-ASTHMA-201,VS,GB001-ASTHMA-201-SITE001-0010,7,TEMP,Temperature,37.2,C,37.2,37.2,C,,,,1.0,SCREENING,SCREENING,2024-04-11,-22
GB001-ASTHMA-201,VS,GB001-ASTHMA-201-SITE001-0010,8,WEIGHT,Weight,72.9,kg,72.9,72.9,kg,,,,1.0,SCREENING,SCREENING,2024-04-11,-22
GB001-ASTHMA-201,VS,GB001-ASTHMA-201-SITE001-0010,9,BMI,BMI,27.4,kg/m2,27.4,27.4,kg/m2,,Y,Y,2.0,BASELINE,TREATMENT,2024-05-03,1
GB001-ASTHMA-201,VS,GB001-ASTHMA-201-SITE001-0010,10,DIABP,Diastolic Blood Pressure,80.3,mmHg,80.3,80.3,mmHg,,Y,Y,2.0,BASELINE,TREATMENT,2024-05-03,1
GB001-ASTHMA-201,VS,GB001-ASTHMA-201-SITE001-0010,11,HEIGHT,Height,160.2,cm,160.2,160.2,cm,,Y,Y,2.0,BASELINE,TREATMENT,2024-05-03,1
GB001-ASTHMA-201,VS,GB001-ASTHMA-201-SITE001-0010,12,PULSE,Pulse Rate,53.1,beats/min,53.1,53.1,beats/min,,Y,Y,2.0,BASELINE,TREATMENT,2024-05-03,1
GB001-ASTHMA-201,VS,GB001-ASTHMA-201-SITE001-0010,13,RESP,Respiratory Rate,17.8,breaths/min,17.8,17.8,breaths/min,,Y,Y,2.0,BASELINE,TREATMENT,2024-05-03,1
GB001-ASTHMA-201,VS,GB001-ASTHMA-201-SITE001-0010,14,SYSBP,Systolic Blood Pressure,153.6,mmHg,153.6,153.6,mmHg,,Y,Y,2.0,BASELINE,TREATMENT,2024-05-03,1
GB001-ASTHMA-201,VS,GB001-ASTHMA-201-SITE001-0010,15,TEMP,Temperature,37.1,C,37.1,37.1,C,,Y,Y,2.0,BASELINE,TREATMENT,2024-05-03,1
GB001-ASTHMA-201,VS,GB001-ASTHMA-201-SITE001-0010,16,WEIGHT,Weight,70.4,kg,70.4,70.4,kg,,Y,Y,2.0,BASELINE,TREATMENT,2024-05-03,1
GB001-ASTHMA-201,VS,GB001-ASTHMA-201-SITE001-0010,17,BMI,BMI,27.3,kg/m2,27.3,27.3,kg/m2,,,,3.0,WEEK 2,TREATMENT,2024-05-15,13
GB001-ASTHMA-201,VS,GB001-ASTHMA-201-SITE001-0010,18,DIABP,Diastolic Blood Pressure,78.8,mmHg,78.8,78.8,mmHg,,,,3.0,WEEK 2,TREATMENT,2024-05-15,13
GB001-ASTHMA-201,VS,GB001-ASTHMA-201-SITE001-0010,19,HEIGHT,Height,159.7,cm,159.7,159.7,cm,,,,3.0,WEEK 2,TREATMENT,2024-05-15,13
GB001-ASTHMA-201,VS,GB001-ASTHMA-201-SITE001-0010,20,PULSE,Pulse Rate,,,,,,NOT DONE,,,3.0,WEEK 2,TREATMENT,2024-05-15,13
GB001-ASTHMA-201,VS,GB001-ASTHMA-201-SITE001-0010,21,RESP,Respiratory Rate,17.8,breaths/min,17.8,17.8,breaths/min,,,,3.0,WEEK 2,TREATMENT,2024-05-15,13
GB001-ASTHMA-201,VS,GB001-ASTHMA-201-SITE001-0010,22,SYSBP,Systolic Blood Pressure,152.9,mmHg,152.9,152.9,mmHg,,,,3.0,WEEK 2,TREATMENT,2024-05-15,13
GB001-ASTHMA-201,VS,GB001-ASTHMA-201-SITE001-0010,23,TEMP,Temperature,37.0,C,37.0,37.0,C,,,,3.0,WEEK 2,TREATMENT,2024-05-15,13
GB001-ASTHMA-201,VS,GB001-ASTHMA-201-SITE001-0010,24,WEIGHT,Weight,69.6,kg,69.6,69.6,kg,,,,3.0,WEEK 2,TREATMENT,2024-05-15,13
GB001-ASTHMA-201,VS,GB001-ASTHMA-201-SITE001-0010,25,BMI,BMI,27.8,kg/m2,27.8,27.8,kg/m2,,,,4.0,WEEK 4,TREATMENT,2024-06-01,30
GB001-ASTHMA-201,VS,GB001-ASTHMA-201-SITE001-0010,26,DIABP,Diastolic Blood Pressure,76.7,mmHg,76.7,76.7,mmHg,,,,4.0,WEEK 4,TREATMENT,2024-06-01,30
GB001-ASTHMA-201,VS,GB001-ASTHMA-201-SITE001-0010,27,HEIGHT,Height,159.6,cm,159.6,159.6,cm,,,,4.0,WEEK 4,TREATMENT,2024-06-01,30
GB001-ASTHMA-201,VS,GB001-ASTHMA-201-SITE001-0010,28,PULSE,Pulse Rate,55.0,beats/min,55.0,55.0,beats/min,,,,4.0,WEEK 4,TREATMENT,2024-06-01,30
GB001-ASTHMA-201,VS,GB001-ASTHMA-201-SITE001-0010,29,RESP,Respiratory Rate,16.4,breaths/min,16.4,16.4,breaths/min,,,,4.0,WEEK 4,TREATMENT,2024-06-01,30
GB001-ASTHMA-201,VS,GB001-ASTHMA-201-SITE001-0010,30,SYSBP,Systolic Blood Pressure,150.3,mmHg,150.3,150.3,mmHg,,,,4.0,WEEK 4,TREATMENT,2024-06-01,30
GB001-ASTHMA-201,VS,GB001-ASTHMA-201-SITE001-0010,31,TEMP,Temperature,37.1,C,37.1,37.1,C,,,,4.0,WEEK 4,TREATMENT,2024-06-01,30
GB001-ASTHMA-201,VS,GB001-ASTHMA-201-SITE001-0010,32,WEIGHT,Weight,70.9,kg,70.9,70.9,kg,,,,4.0,WEEK 4,TREATMENT,2024-06-01,30
GB001-ASTHMA-201,VS,GB001-ASTHMA-201-SITE001-0010,33,BMI,BMI,28.7,kg/m2,28.7,28.7,kg/m2,,,,5.0,WEEK 8,TREATMENT,2024-07-01,60
GB001-ASTHMA-201,VS,GB001-ASTHMA-201-SITE001-0010,34,DIABP,Diastolic Blood Pressure,77.6,mmHg,77.6,77.6,mmHg,,,,5.0,WEEK 8,TREATMENT,2024-07-01,60
GB001-ASTHMA-201,VS,GB001-ASTHMA-201-SITE001-0010,35,HEIGHT,Height,158.6,cm,158.6,158.6,cm,,,,5.0,WEEK 8,TREATMENT,2024-07-01,60
GB001-ASTHMA-201,VS,GB001-ASTHMA-201-SITE001-0010,36,PULSE,Pulse Rate,49.2,beats/min,49.2,49.2,beats/min,,,,5.0,WEEK 8,TREATMENT,2024-07-01,60
GB001-ASTHMA-201,VS,GB001-ASTHMA-201-SITE001-0010,37,RESP,Respiratory Rate,18.6,breaths/min,18.6,18.6,breaths/min,,,,5.0,WEEK 8,TREATMENT,2024-07-01,60
GB001-ASTHMA-201,VS,GB001-ASTHMA-201-SITE001-0010,38,SYSBP,Systolic Blood Pressure,152.9,mmHg,152.9,152.9,mmHg,,,,5.0,WEEK 8,TREATMENT,2024-07-01,60
GB001-ASTHMA-201,VS,GB001-ASTHMA-201-SITE001-0010,39,TEMP,Temperature,37.1,C,37.1,37.1,C,,,,5.0,WEEK 8,TREATMENT,2024-07-01,60
GB001-ASTHMA-201,VS,GB001-ASTHMA-201-SITE001-0010,40,WEIGHT,Weight,72.2,kg,72.2,72.2,kg,,,,5.0,WEEK 8,TREATMENT,2024-07-01,60
GB001-ASTHMA-201,VS,GB001-ASTHMA-201-SITE001-0010,41,BMI,BMI,28.3,kg/m2,28.3,28.3,kg/m2,,,,7.0,FOLLOW-UP,FOLLOW-UP,2024-08-21,111
GB001-ASTHMA-201,VS,GB001-ASTHMA-201-SITE001-0010,42,DIABP,Diastolic Blood Pressure,76.4,mmHg,76.4,76.4,mmHg,,,,7.0,FOLLOW-UP,FOLLOW-UP,2024-08-21,111
GB001-ASTHMA-201,VS,GB001-ASTHMA-201-SITE001-0010,43,HEIGHT,Height,158.6,cm,158.6,158.6,cm,,,,7.0,FOLLOW-UP,FOLLOW-UP,2024-08-21,111
GB001-ASTHMA-201,VS,GB001-ASTHMA-201-SITE001-0010,44,PULSE,Pulse Rate,51.7,beats/min,51.7,51.7,beats/min,,,,7.0,FOLLOW-UP,FOLLOW-UP,2024-08-21,111
GB001-ASTHMA-201,VS,GB001-ASTHMA-201-SITE001-0010,45,RESP,Respiratory Rate,19.3,breaths/min,19.3,19.3,breaths/min,,,,7.0,FOLLOW-UP,FOLLOW-UP,2024-08-21,111
GB001-ASTHMA-201,VS,GB001-ASTHMA-201-SITE001-0010,46,SYSBP,Systolic Blood Pressure,151.7,mmHg,151.7,151.7,mmHg,,,,7.0,FOLLOW-UP,FOLLOW-UP,2024-08-21,111
GB001-ASTHMA-201,VS,GB001-ASTHMA-201-SITE001-0010,47,TEMP,Temperature,37.2,C,37.2,37.2,C,,,,7.0,FOLLOW-UP,FOLLOW-UP,2024-08-21,111
GB001-ASTHMA-201,VS,GB001-ASTHMA-201-SITE001-0010,48,WEIGHT,Weight,71.2,kg,71.2,71.2,kg,,,,7.0,FOLLOW-UP,FOLLOW-UP,2024-08-21,111
GB001-ASTHMA-201,VS,GB001-ASTHMA-201-SITE001-0013,1,BMI,BMI,19.0,kg/m2,19.0,19.0,kg/m2,,,,1.0,SCREENING,SCREENING,2024-02-15,-50
GB001-ASTHMA-201,VS,GB001-ASTHMA-201-SITE001-0013,2,DIABP,Diastolic Blood Pressure,95.4,mmHg,95.4,95.4,mmHg,,,,1.0,SCREENING,SCREENING,2024-02-15,-50
GB001-ASTHMA-201,VS,GB001-ASTHMA-201-SITE001-0013,3,HEIGHT,Height,155.1,cm,155.1,155.1,cm,,,,1.0,SCREENING,SCREENING,2024-02-15,-50
GB001-ASTHMA-201,VS,GB001-ASTHMA-201-SITE001-0013,4,PULSE,Pulse Rate,59.4,beats/min,59.4,59.4,beats/min,,,,1.0,SCREENING,SCREENING,2024-02-15,-50
GB001-ASTHMA-201,VS,GB001-ASTHMA-201-SITE001-0013,5,RESP,Respiratory Rate,18.1,breaths/min,18.1,18.1,breaths/min,,,,1.0,SCREENING,SCREENING,2024-02-15,-50
GB001-ASTHMA-201,VS,GB001-ASTHMA-201-SITE001-0013,6,SYSBP,Systolic Blood Pressure,118.9,mmHg,118.9,118.9,mmHg,,,,1.0,SCREENING,SCREENING,2024-02-15,-50
GB001-ASTHMA-201,VS,GB001-ASTHMA-201-SITE001-0013,7,TEMP,Temperature,37.1,C,37.1,37.1,C,,,,1.0,SCREENING,SCREENING,2024-02-15,-50
GB001-ASTHMA-201,VS,GB001-ASTHMA-201-SITE001-0013,8,WEIGHT,Weight,45.8,kg,45.8,45.8,kg,,,,1.0,SCREENING,SCREENING,2024-02-15,-50
GB001-ASTHMA-201,VS,GB001-ASTHMA-201-SITE001-0013,9,BMI,BMI,18.9,kg/m2,18.9,18.9,kg/m2,,Y,Y,2.0,BASELINE,TREATMENT,2024-04-05,1
GB001-ASTHMA-201,VS,GB001-ASTHMA-201-SITE001-0013,10,DIABP,Diastolic Blood Pressure,96.7,mmHg,96.7,96.7,mmHg,,Y,Y,2.0,BASELINE,TREATMENT,2024-04-05,1
GB001-ASTHMA-201,VS,GB001-ASTHMA-201-SITE001-0013,11,HEIGHT,Height,155.1,cm,155.1,155.1,cm,,Y,Y,2.0,BASELINE,TREATMENT,2024-04-05,1
GB001-ASTHMA-201,VS,GB001-ASTHMA-201-SITE001-0013,12,PULSE,Pulse Rate,57.2,beats/min,57.2,57.2,beats/min,,Y,Y,2.0,BASELINE,TREATMENT,2024-04-05,1
GB001-ASTHMA-201,VS,GB001-ASTHMA-201-SITE001-0013,13,RESP,Respiratory Rate,18.7,breaths/min,18.7,18.7,breaths/min,,Y,Y,2.0,BASELINE,TREATMENT,2024-04-05,1
GB001-ASTHMA-201,VS,GB001-ASTHMA-201-SITE001-0013,14,SYSBP,Systolic Blood Pressure,119.4,mmHg,119.4,119.4,mmHg,,Y,Y,2.0,BASELINE,TREATMENT,2024-04-05,1
GB001-ASTHMA-201,VS,GB001-ASTHMA-201-SITE001-0013,15,TEMP,Temperature,37.0,C,37.0,37.0,C,,Y,Y,2.0,BASELINE,TREATMENT,2024-04-05,1
GB001-ASTHMA-201,VS,GB001-ASTHMA-201-SITE001-0013,16,WEIGHT,Weight,45.4,kg,45.4,45.4,kg,,Y,Y,2.0,BASELINE,TREATMENT,2024-04-05,1
GB001-ASTHMA-201,VS,GB001-ASTHMA-201-SITE001-0013,17,DIABP,Diastolic Blood Pressure,97.0,mmHg,97.0,97.0,mmHg,,,,3.0,WEEK 2,TREATMENT,2024-04-22,18
GB001-ASTHMA-201,VS,GB001-ASTHMA-201-SITE001-0013,18,HEIGHT,Height,155.8,cm,155.8,155.8,cm,,,,3.0,WEEK 2,TREATMENT,2024-04-22,18
GB001-ASTHMA-201,VS,GB001-ASTHMA-201-SITE001-0013,19,PULSE,Pulse Rate,57.5,beats/min,57.5,57.5,beats/min,,,,3.0,WEEK 2,TREATMENT,2024-04-22,18
GB001-ASTHMA-201,VS,GB001-ASTHMA-201-SITE001-0013,20,RESP,Respiratory Rate,19.1,breaths/min,19.1,19.1,breaths/min,,,,3.0,WEEK 2,TREATMENT,2024-04-22,18
GB001-ASTHMA-201,VS,GB001-ASTHMA-201-SITE001-0013,21,SYSBP,Systolic Blood Pressure,121.3,mmHg,121.3,121.3,mmHg,,,,3.0,WEEK 2,TREATMENT,2024-04-22,18
GB001-ASTHMA-201,VS,GB001-ASTHMA-201-SITE001-0013,22,TEMP,Temperature,37.1,C,37.1,37.1,C,,,,3.0,WEEK 2,TREATMENT,2024-04-22,18
GB001-ASTHMA-201,VS,GB001-ASTHMA-201-SITE001-0013,23,WEIGHT,Weight,,,,,,NOT DONE,,,3.0,WEEK 2,TREATMENT,2024-04-22,18
GB001-ASTHMA-201,VS,GB001-ASTHMA-201-SITE001-0013,24,BMI,BMI,18.7,kg/m2,18.7,18.7,kg/m2,,,,4.0,WEEK 4,TREATMENT,2024-05-03,29
GB001-ASTHMA-201,VS,GB001-ASTHMA-201-SITE001-0013,25,DIABP,Diastolic Blood Pressure,94.6,mmHg,94.6,94.6,mmHg,,,,4.0,WEEK 4,TREATMENT,2024-05-03,29
GB001-ASTHMA-201,VS,GB001-ASTHMA-201-SITE001-0013,26,HEIGHT,Height,155.1,cm,155.1,155.1,cm,,,,4.0,WEEK 4,TREATMENT,2024-05-03,29
GB001-ASTHMA-201,VS,GB001-ASTHMA-201-SITE001-0013,27,PULSE,Pulse Rate,60.7,beats/min,60.7,60.7,beats/min,,,,4.0,WEEK 4,TREATMENT,2024-05-03,29
GB001-ASTHMA-201,VS,GB001-ASTHMA-201-SITE001-0013,28,RESP,Respiratory Rate,18.8,breaths/min,18.8,18.8,breaths/min,,,,4.0,WEEK 4,TREATMENT,2024-05-03,29
GB001-ASTHMA-201,VS,GB001-ASTHMA-201-SITE001-0013,29,SYSBP,Systolic Blood Pressure,117.4,mmHg,117.4,117.4,mmHg,,,,4.0,WEEK 4,TREATMENT,2024-05-03,29
GB001-ASTHMA-201,VS,GB001-ASTHMA-201-SITE001-0013,30,TEMP,Temperature,37.1,C,37.1,37.1,C,,,,4.0,WEEK 4,TREATMENT,2024-05-03,29
GB001-ASTHMA-201,VS,GB001-ASTHMA-201-SITE001-0013,31,WEIGHT,Weight,45.1,kg,45.1,45.1,kg,,,,4.0,WEEK 4,TREATMENT,2024-05-03,29
GB001-ASTHMA-201,VS,GB001-ASTHMA-201-SITE001-0013,32,BMI,BMI,19.3,kg/m2,19.3,19.3,kg/m2,,,,5.0,WEEK 8,TREATMENT,2024-06-02,59
GB001-ASTHMA-201,VS,GB001-ASTHMA-201-SITE001-0013,33,DIABP,Diastolic Blood Pressure,94.1,mmHg,94.1,94.1,mmHg,,,,5.0,WEEK 8,TREATMENT,2024-06-02,59
GB001-ASTHMA-201,VS,GB001-ASTHMA-201-SITE001-0013,34,HEIGHT,Height,154.5,cm,154.5,154.5,cm,,,,5.0,WEEK 8,TREATMENT,2024-06-02,59
GB001-ASTHMA-201,VS,GB001-ASTHMA-201-SITE001-0013,35,PULSE,Pulse Rate,68.8,beats/min,68.8,68.8,beats/min,,,,5.0,WEEK 8,TREATMENT,2024-06-02,59
GB001-ASTHMA-201,VS,GB001-ASTHMA-201-SITE001-0013,36,RESP,Respiratory Rate,19.2,breaths/min,19.2,19.2,breaths/min,,,,5.0,WEEK 8,TREATMENT,2024-06-02,59
GB001-ASTHMA-201,VS,GB001-ASTHMA-201-SITE001-0013,37,SYSBP,Systolic Blood Pressure,117.1,mmHg,117.1,117.1,mmHg,,,,5.0,WEEK 8,TREATMENT,2024-06-02,59
GB001-ASTHMA-201,VS,GB001-ASTHMA-201-SITE001-0013,38,TEMP,Temperature,37.1,C,37.1,37.1,C,,,,5.0,WEEK 8,TREATMENT,2024-06-02,59
GB001-ASTHMA-201,VS,GB001-ASTHMA-201-SITE001-0013,39,WEIGHT,Weight,46.1,kg,46.1,46.1,kg,,,,5.0,WEEK 8,TREATMENT,2024-06-02,59
GB001-ASTHMA-201,VS,GB001-ASTHMA-201-SITE001-0013,40,BMI,BMI,18.8,kg/m2,18.8,18.8,kg/m2,,,,6.0,WEEK 12,TREATMENT,2024-06-26,83
GB001-ASTHMA-201,VS,GB001-ASTHMA-201-SITE001-0013,41,DIABP,Diastolic Blood Pressure,95.8,mmHg,95.8,95.8,mmHg,,,,6.0,WEEK 12,TREATMENT,2024-06-26,83
GB001-ASTHMA-201,VS,GB001-ASTHMA-201-SITE001-0013,42,HEIGHT,Height,153.7,cm,153.7,153.7,cm,,,,6.0,WEEK 12,TREATMENT,2024-06-26,83
GB001-ASTHMA-201,VS,GB001-ASTHMA-201-SITE001-0013,43,PULSE,Pulse Rate,64.0,beats/min,64.0,64.0,beats/min,,,,6.0,WEEK 12,TREATMENT,2024-06-26,83
GB001-ASTHMA-201,VS,GB001-ASTHMA-201-SITE001-0013,44,RESP,Respiratory Rate,18.8,breaths/min,18.8,18.8,breaths/min,,,,6.0,WEEK 12,TREATMENT,2024-06-26,83
GB001-ASTHMA-201,VS,GB001-ASTHMA-201-SITE001-0013,45,SYSBP,Systolic Blood Pressure,120.1,mmHg,120.1,120.1,mmHg,,,,6.0,WEEK 12,TREATMENT,2024-06-26,83
GB001-ASTHMA-201,VS,GB001-ASTHMA-201-SITE001-0013,46,TEMP,Temperature,37.1,C,37.1,37.1,C,,,,6.0,WEEK 12,TREATMENT,2024-06-26,83
GB001-ASTHMA-201,VS,GB001-ASTHMA-201-SITE001-0013,47,WEIGHT,Weight,44.3,kg,44.3,44.3,kg,,,,6.0,WEEK 12,TREATMENT,2024-06-26,83
GB001-ASTHMA-201,VS,GB001-ASTHMA-201-SITE001-0013,48,BMI,BMI,19.3,kg/m2,19.3,19.3,kg/m2,,,,7.0,FOLLOW-UP,FOLLOW-UP,2024-07-27,114
GB001-ASTHMA-201,VS,GB001-ASTHMA-201-SITE001-0013,49,DIABP,Diastolic Blood Pressure,94.3,mmHg,94.3,94.3,mmHg,,,,7.0,FOLLOW-UP,FOLLOW-UP,2024-07-27,114
GB001-ASTHMA-201,VS,GB001-ASTHMA-201-SITE001-0013,50,HEIGHT,Height,154.1,cm,154.1,154.1,cm,,,,7.0,FOLLOW-UP,FOLLOW-UP,2024-07-27,114
GB001-ASTHMA-201,VS,GB001-ASTHMA-201-SITE001-0013,51,PULSE,Pulse Rate,62.8,beats/min,62.8,62.8,beats/min,,,,7.0,FOLLOW-UP,FOLLOW-UP,2024-07-27,114
GB001-ASTHMA-201,VS,GB001-ASTHMA-201-SITE001-0013,52,RESP,Respiratory Rate,17.7,breaths/min,17.7,17.7,breaths/min,,,,7.0,FOLLOW-UP,FOLLOW-UP,2024-07-27,114
GB001-ASTHMA-201,VS,GB001-ASTHMA-201-SITE001-0013,53,SYSBP,Systolic Blood Pressure,118.5,mmHg,118.5,118.5,mmHg,,,,7.0,FOLLOW-UP,FOLLOW-UP,2024-07-27,114
GB001-ASTHMA-201,VS,GB001-ASTHMA-201-SITE001-0013,54,TEMP,Temperature,37.1,C,37.1,37.1,C,,,,7.0,FOLLOW-UP,FOLLOW-UP,2024-07-27,114
GB001-ASTHMA-201,VS,GB001-ASTHMA-201-SITE001-0013,55,WEIGHT,Weight,45.8,kg,45.8,45.8,kg,,,,7.0,FOLLOW-UP,FOLLOW-UP,2024-07-27,114
GB001-ASTHMA-201,VS,GB001-ASTHMA-201-SITE001-0019,1,BMI,BMI,24.0,kg/m2,24.0,24.0,kg/m2,,,,1.0,SCREENING,SCREENING,2024-03-08,-20
GB001-ASTHMA-201,VS,GB001-ASTHMA-201-SITE001-0019,2,DIABP,Diastolic Blood Pressure,77.2,mmHg,77.2,77.2,mmHg,,,,1.0,SCREENING,SCREENING,2024-03-08,-20
GB001-ASTHMA-201,VS,GB001-ASTHMA-201-SITE001-0019,3,HEIGHT,Height,168.2,cm,168.2,168.2,cm,,,,1.0,SCREENING,SCREENING,2024-03-08,-20
GB001-ASTHMA-201,VS,GB001-ASTHMA-201-SITE001-0019,4,PULSE,Pulse Rate,77.3,beats/min,77.3,77.3,beats/min,,,,1.0,SCREENING,SCREENING,2024-03-08,-20
GB001-ASTHMA-201,VS,GB001-ASTHMA-201-SITE001-0019,5,RESP,Respiratory Rate,18.9,breaths/min,18.9,18.9,breaths/min,,Y,Y,1.0,SCREENING,SCREENING,2024-03-08,-20
GB001-ASTHMA-201,VS,GB001-ASTHMA-201-SITE001-0019,6,SYSBP,Systolic Blood Pressure,121.5,mmHg,121.5,121.5,mmHg,,,,1.0,SCREENING,SCREENING,2024-03-08,-20
GB001-ASTHMA-201,VS,GB001-ASTHMA-201-SITE001-0019,7,TEMP,Temperature,37.1,C,37.1,37.1,C,,,,1.0,SCREENING,SCREENING,2024-03-08,-20
GB001-ASTHMA-201,VS,GB001-ASTHMA-201-SITE001-0019,8,WEIGHT,Weight,67.9,kg,67.9,67.9,kg,,,,1.0,SCREENING,SCREENING,2024-03-08,-20
GB001-ASTHMA-201,VS,GB001-ASTHMA-201-SITE001-0019,9,BMI,BMI,24.0,kg/m2,24.0,24.0,kg/m2,,Y,Y,2.0,BASELINE,TREATMENT,2024-03-28,1
GB001-ASTHMA-201,VS,GB001-ASTHMA-201-SITE001-0019,10,DIABP,Diastolic Blood Pressure,74.8,mmHg,74.8,74.8,mmHg,,Y,Y,2.0,BASELINE,TREATMENT,2024-03-28,1
GB001-ASTHMA-201,VS,GB001-ASTHMA-201-SITE001-0019,11,HEIGHT,Height,167.6,cm,167.6,167.6,cm,,Y,Y,2.0,BASELINE,TREATMENT,2024-03-28,1
GB001-ASTHMA-201,VS,GB001-ASTHMA-201-SITE001-0019,12,PULSE,Pulse Rate,73.7,beats/min,73.7,73.7,beats/min,,Y,Y,2.0,BASELINE,TREATMENT,2024-03-28,1
GB001-ASTHMA-201,VS,GB001-ASTHMA-201-SITE001-0019,13,RESP,Respiratory Rate,,,,,,NOT DONE,,,2.0,BASELINE,TREATMENT,2024-03-28,1
GB001-ASTHMA-201,VS,GB001-ASTHMA-201-SITE001-0019,14,SYSBP,Systolic Blood Pressure,118.7,mmHg,118.7,118.7,mmHg,,Y,Y,2.0,BASELINE,TREATMENT,2024-03-28,1
GB001-ASTHMA-201,VS,GB001-ASTHMA-201-SITE001-0019,15,TEMP,Temperature,37.1,C,37.1,37.1,C,,Y,Y,2.0,BASELINE,TREATMENT,2024-03-28,1
GB001-ASTHMA-201,VS,GB001-ASTHMA-201-SITE001-0019,16,WEIGHT,Weight,67.4,kg,67.4,67.4,kg,,Y,Y,2.0,BASELINE,TREATMENT,2024-03-28,1
GB001-ASTHMA-201,VS,GB001-ASTHMA-201-SITE001-0022,1,BMI,BMI,17.9,kg/m2,17.9,17.9,kg/m2,,,,1.0,SCREENING,SCREENING,2024-02-20,-49
GB001-ASTHMA-201,VS,GB001-ASTHMA-201-SITE001-0022,2,DIABP,Diastolic Blood Pressure,81.1,mmHg,81.1,81.1,mmHg,,,,1.0,SCREENING,SCREENING,2024-02-20,-49
GB001-ASTHMA-201,VS,GB001-ASTHMA-201-SITE001-0022,3,HEIGHT,Height,158.7,cm,158.7,158.7,cm,,,,1.0,SCREENING,SCREENING,2024-02-20,-49
GB001-ASTHMA-201,VS,GB001-ASTHMA-201-SITE001-0022,4,PULSE,Pulse Rate,70.4,beats/min,70.4,70.4,beats/min,,,,1.0,SCREENING,SCREENING,2024-02-20,-49
GB001-ASTHMA-201,VS,GB001-ASTHMA-201-SITE001-0022,5,RESP,Respiratory Rate,19.0,breaths/min,19.0,19.0,breaths/min,,,,1.0,SCREENING,SCREENING,2024-02-20,-49
GB001-ASTHMA-201,VS,GB001-ASTHMA-201-SITE001-0022,6,SYSBP,Systolic Blood Pressure,119.1,mmHg,119.1,119.1,mmHg,,,,1.0,SCREENING,SCREENING,2024-02-20,-49
GB001-ASTHMA-201,VS,GB001-ASTHMA-201-SITE001-0022,7,TEMP,Temperature,36.1,C,36.1,36.1,C,,,,1.0,SCREENING,SCREENING,2024-02-20,-49
GB001-ASTHMA-201,VS,GB001-ASTHMA-201-SITE001-0022,8,WEIGHT,Weight,45.1,kg,45.1,45.1,kg,,,,1.0,SCREENING,SCREENING,2024-02-20,-49
GB001-ASTHMA-201,VS,GB001-ASTHMA-201-SITE001-0022,9,BMI,BMI,17.7,kg/m2,17.7,17.7,kg/m2,,Y,Y,2.0,BASELINE,TREATMENT,2024-04-09,1
GB001-ASTHMA-201,VS,GB001-ASTHMA-201-SITE001-0022,10,DIABP,Diastolic Blood Pressure,78.7,mmHg,78.7,78.7,mmHg,,Y,Y,2.0,BASELINE,TREATMENT,2024-04-09,1
GB001-ASTHMA-201,VS,GB001-ASTHMA-201-SITE001-0022,11,HEIGHT,Height,158.6,cm,158.6,158.6,cm,,Y,Y,2.0,BASELINE,TREATMENT,2024-04-09,1
GB001-ASTHMA-201,VS,GB001-ASTHMA-201-SITE001-0022,12,PULSE,Pulse Rate,68.5,beats/min,68.5,68.5,beats/min,,Y,Y,2.0,BASELINE,TREATMENT,2024-04-09,1
GB001-ASTHMA-201,VS,GB001-ASTHMA-201-SITE001-0022,13,RESP,Respiratory Rate,18.6,breaths/min,18.6,18.6,breaths/min,,Y,Y,2.0,BASELINE,TREATMENT,2024-04-09,1
GB001-ASTHMA-201,VS,GB001-ASTHMA-201-SITE001-0022,14,SYSBP,Systolic Blood Pressure,115.8,mmHg,115.8,115.8,mmHg,,Y,Y,2.0,BASELINE,TREATMENT,2024-04-09,1
GB001-ASTHMA-201,VS,GB001-ASTHMA-201-SITE001-0022,15,TEMP,Temperature,36.1,C,36.1,36.1,C,,Y,Y,2.0,BASELINE,TREATMENT,2024-04-09,1
GB001-ASTHMA-201,VS,GB001-ASTHMA-201-SITE001-0022,16,WEIGHT,Weight,44.6,kg,44.6,44.6,kg,,Y,Y,2.0,BASELINE,TREATMENT,2024-04-09,1
GB001-ASTHMA-201,VS,GB001-ASTHMA-201-SITE001-0022,17,BMI,BMI,19.2,kg/m2,19.2,19.2,kg/m2,,,,3.0,WEEK 2,TREATMENT,2024-04-23,15
GB001-ASTHMA-201,VS,GB001-ASTHMA-201-SITE001-0022,18,DIABP,Diastolic Blood Pressure,80.1,mmHg,80.1,80.1,mmHg,,,,3.0,WEEK 2,TREATMENT,2024-04-23,15
GB001-ASTHMA-201,VS,GB001-ASTHMA-201-SITE001-0022,19,HEIGHT,Height,158.3,cm,158.3,158.3,cm,,,,3.0,WEEK 2,TREATMENT,2024-04-23,15
GB001-ASTHMA-201,VS,GB001-ASTHMA-201-SITE001-0022,20,PULSE,Pulse Rate,69.1,beats/min,69.1,69.1,beats/min,,,,3.0,WEEK 2,TREATMENT,2024-04-23,15
GB001-ASTHMA-201,VS,GB001-ASTHMA-201-SITE001-0022,21,RESP,Respiratory Rate,19.5,breaths/min,19.5,19.5,breaths/min,,,,3.0,WEEK 2,TREATMENT,2024-04-23,15
GB001-ASTHMA-201,VS,GB001-ASTHMA-201-SITE001-0022,22,SYSBP,Systolic Blood Pressure,115.5,mmHg,115.5,115.5,mmHg,,,,3.0,WEEK 2,TREATMENT,2024-04-23,15
GB001-ASTHMA-201,VS,GB001-ASTHMA-201-SITE001-0022,23,TEMP,Temperature,36.0,C,36.0,36.0,C,,,,3.0,WEEK 2,TREATMENT,2024-04-23,15
GB001-ASTHMA-201,VS,GB001-ASTHMA-201-SITE001-0022,24,WEIGHT,Weight,48.0,kg,48.0,48.0,kg,,,,3.0,WEEK 2,TREATMENT,2024-04-23,15
GB001-ASTHMA-201,VS,GB001-ASTHMA-201-SITE001-0022,25,BMI,BMI,19.4,kg/m2,19.4,19.4,kg/m2,,,,5.0,WEEK 8,TREATMENT,2024-06-07,60
GB001-ASTHMA-201,VS,GB001-ASTHMA-201-SITE001-0022,26,DIABP,Diastolic Blood Pressure,81.0,mmHg,81.0,81.0,mmHg,,,,5.0,WEEK 8,TREATMENT,2024-06-07,60
GB001-ASTHMA-201,VS,GB001-ASTHMA-201-SITE001-0022,27,HEIGHT,Height,158.8,cm,158.8,158.8,cm,,,,5.0,WEEK 8,TREATMENT,2024-06-07,60
GB001-ASTHMA-201,VS,GB001-ASTHMA-201-SITE001-0022,28,PULSE,Pulse Rate,66.9,beats/min,66.9,66.9,beats/min,,,,5.0,WEEK 8,TREATMENT,2024-06-07,60
GB001-ASTHMA-201,VS,GB001-ASTHMA-201-SITE001-0022,29,RESP,Respiratory Rate,20.3,breaths/min,20.3,20.3,breaths/min,,,,5.0,WEEK 8,TREATMENT,2024-06-07,60
GB001-ASTHMA-201,VS,GB001-ASTHMA-201-SITE001-0022,30,SYSBP,Systolic Blood Pressure,115.3,mmHg,115.3,115.3,mmHg,,,,5.0,WEEK 8,TREATMENT,2024-06-07,60
GB001-ASTHMA-201,VS,GB001-ASTHMA-201-SITE001-0022,31,TEMP,Temperature,36.1,C,36.1,36.1,C,,,,5.0,WEEK 8,TREATMENT,2024-06-07,60
GB001-ASTHMA-201,VS,GB001-ASTHMA-201-SITE001-0022,32,WEIGHT,Weight,48.8,kg,48.8,48.8,kg,,,,5.0,WEEK 8,TREATMENT,2024-06-07,60
GB001-ASTHMA-201,VS,GB001-ASTHMA-201-SITE001-0022,33,BMI,BMI,18.2,kg/m2,18.2,18.2,kg/m2,,,,6.0,WEEK 12,TREATMENT,2024-06-30,83
GB001-ASTHMA-201,VS,GB001-ASTHMA-201-SITE001-0022,34,DIABP,Diastolic Blood Pressure,79.1,mmHg,79.1,79.1,mmHg,,,,6.0,WEEK 12,TREATMENT,2024-06-30,83
GB001-ASTHMA-201,VS,GB001-ASTHMA-201-SITE001-0022,35,HEIGHT,Height,158.6,cm,158.6,158.6,cm,,,,6.0,WEEK 12,TREATMENT,2024-06-30,83
GB001-ASTHMA-201,VS,GB001-ASTHMA-201-SITE001-0022,36,PULSE,Pulse Rate,59.9,beats/min,59.9,59.9,beats/min,,,,6.0,WEEK 12,TREATMENT,2024-06-30,83
GB001-ASTHMA-201,VS,GB001-ASTHMA-201-SITE001-0022,37,RESP,Respiratory Rate,19.7,breaths/min,19.7,19.7,breaths/min,,,,6.0,WEEK 12,TREATMENT,2024-06-30,83
GB001-ASTHMA-201,VS,GB001-ASTHMA-201-SITE001-0022,38,SYSBP,Systolic Blood Pressure,111.6,mmHg,111.6,111.6,mmHg,,,,6.0,WEEK 12,TREATMENT,2024-06-30,83
GB001-ASTHMA-201,VS,GB001-ASTHMA-201-SITE001-0022,39,TEMP,Temperature,36.1,C,36.1,36.1,C,,,,6.0,WEEK 12,TREATMENT,2024-06-30,83
GB001-ASTHMA-201,VS,GB001-ASTHMA-201-SITE001-0022,40,WEIGHT,Weight,45.9,kg,45.9,45.9,kg,,,,6.0,WEEK 12,TREATMENT,2024-06-30,83
GB001-ASTHMA-201,VS,GB001-ASTHMA-201-SITE001-0022,41,BMI,BMI,18.0,kg/m2,18.0,18.0,kg/m2,,,,7.0,FOLLOW-UP,FOLLOW-UP,2024-08-01,115
GB001-ASTHMA-201,VS,GB001-ASTHMA-201-SITE001-0022,42,DIABP,Diastolic Blood Pressure,77.4,mmHg,77.4,77.4,mmHg,,,,7.0,FOLLOW-UP,FOLLOW-UP,2024-08-01,115
GB001-ASTHMA-201,VS,GB001-ASTHMA-201-SITE001-0022,43,HEIGHT,Height,158.6,cm,158.6,158.6,cm,,,,7.0,FOLLOW-UP,FOLLOW-UP,2024-08-01,115
GB001-ASTHMA-201,VS,GB001-ASTHMA-201-SITE001-0022,44,PULSE,Pulse Rate,62.7,beats/min,62.7,62.7,beats/min,,,,7.0,FOLLOW-UP,FOLLOW-UP,2024-08-01,115
GB001-ASTHMA-201,VS,GB001-ASTHMA-201-SITE001-0022,45,RESP,Respiratory Rate,18.0,breaths/min,18.0,18.0,breaths/min,,,,7.0,FOLLOW-UP,FOLLOW-UP,2024-08-01,115
GB001-ASTHMA-201,VS,GB001-ASTHMA-201-SITE001-0022,46,SYSBP,Systolic Blood Pressure,112.8,mmHg,112.8,112.8,mmHg,,,,7.0,FOLLOW-UP,FOLLOW-UP,2024-08-01,115
GB001-ASTHMA-201,VS,GB001-ASTHMA-201-SITE001-0022,47,TEMP,Temperature,36.0,C,36.0,36.0,C,,,,7.0,FOLLOW-UP,FOLLOW-UP,2024-08-01,115
GB001-ASTHMA-201,VS,GB001-ASTHMA-201-SITE001-0022,48,WEIGHT,Weight,45.3,kg,45.3,45.3,kg,,,,7.0,FOLLOW-UP,FOLLOW-UP,2024-08-01,115
GB001-ASTHMA-201,VS,GB001-ASTHMA-201-SITE001-0028,1,BMI,BMI,28.2,kg/m2,28.2,28.2,kg/m2,,,,1.0,SCREENING,SCREENING,2024-01-28,-39
GB001-ASTHMA-201,VS,GB001-ASTHMA-201-SITE001-0028,2,DIABP,Diastolic Blood Pressure,68.3,mmHg,68.3,68.3,mmHg,,,,1.0,SCREENING,SCREENING,2024-01-28,-39
GB001-ASTHMA-201,VS,GB001-ASTHMA-201-SITE001-0028,3,HEIGHT,Height,172.6,cm,172.6,172.6,cm,,,,1.0,SCREENING,SCREENING,2024-01-28,-39
GB001-ASTHMA-201,VS,GB001-ASTHMA-201-SITE001-0028,4,PULSE,Pulse Rate,84.1,beats/min,84.1,84.1,beats/min,,,,1.0,SCREENING,SCREENING,2024-01-28,-39
GB001-ASTHMA-201,VS,GB001-ASTHMA-201-SITE001-0028,5,RESP,Respiratory Rate,9.6,breaths/min,9.6,9.6,breaths/min,,,,1.0,SCREENING,SCREENING,2024-01-28,-39
GB001-ASTHMA-201,VS,GB001-ASTHMA-201-SITE001-0028,6,SYSBP,Systolic Blood Pressure,124.6,mmHg,124.6,124.6,mmHg,,,,1.0,SCREENING,SCREENING,2024-01-28,-39
GB001-ASTHMA-201,VS,GB001-ASTHMA-201-SITE001-0028,7,TEMP,Temperature,37.4,C,37.4,37.4,C,,,,1.0,SCREENING,SCREENING,2024-01-28,-39
GB001-ASTHMA-201,VS,GB001-ASTHMA-201-SITE001-0028,8,WEIGHT,Weight,84.0,kg,84.0,84.0,kg,,,,1.0,SCREENING,SCREENING,2024-01-28,-39
GB001-ASTHMA-201,VS,GB001-ASTHMA-201-SITE001-0028,9,BMI,BMI,28.7,kg/m2,28.7,28.7,kg/m2,,Y,Y,2.0,BASELINE,TREATMENT,2024-03-07,1
GB001-ASTHMA-201,VS,GB001-ASTHMA-201-SITE001-0028,10,DIABP,Diastolic Blood Pressure,67.1,mmHg,67.1,67.1,mmHg,,Y,Y,2.0,BASELINE,TREATMENT,2024-03-07,1
GB001-ASTHMA-201,VS,GB001-ASTHMA-201-SITE001-0028,11,HEIGHT,Height,172.4,cm,172.4,172.4,cm,,Y,Y,2.0,BASELINE,TREATMENT,2024-03-07,1
GB001-ASTHMA-201,VS,GB001-ASTHMA-201-SITE001-0028,12,PULSE,Pulse Rate,86.0,beats/min,86.0,86.0,beats/min,,Y,Y,2.0,BASELINE,TREATMENT,2024-03-07,1
GB001-ASTHMA-201,VS,GB001-ASTHMA-201-SITE001-0028,13,RESP,Respiratory Rate,10.9,breaths/min,10.9,10.9,breaths/min,,Y,Y,2.0,BASELINE,TREATMENT,2024-03-07,1
GB001-ASTHMA-201,VS,GB001-ASTHMA-201-SITE001-0028,14,SYSBP,Systolic Blood Pressure,120.3,mmHg,120.3,120.3,mmHg,,Y,Y,2.0,BASELINE,TREATMENT,2024-03-07,1
GB001-ASTHMA-201,VS,GB001-ASTHMA-201-SITE001-0028,15,TEMP,Temperature,37.3,C,37.3,37.3,C,,Y,Y,2.0,BASELINE,TREATMENT,2024-03-07,1
GB001-ASTHMA-201,VS,GB001-ASTHMA-201-SITE001-0028,16,WEIGHT,Weight,85.3,kg,85.3,85.3,kg,,Y,Y,2.0,BASELINE,TREATMENT,2024-03-07,1
GB001-ASTHMA-201,VS,GB001-ASTHMA-201-SITE001-0028,17,BMI,BMI,28.1,kg/m2,28.1,28.1,kg/m2,,,,3.0,WEEK 2,TREATMENT,2024-03-24,18
GB001-ASTHMA-201,VS,GB001-ASTHMA-201-SITE001-0028,18,DIABP,Diastolic Blood Pressure,65.4,mmHg,65.4,65.4,mmHg,,,,3.0,WEEK 2,TREATMENT,2024-03-24,18
GB001-ASTHMA-201,VS,GB001-ASTHMA-201-SITE001-0028,19,HEIGHT,Height,172.9,cm,172.9,172.9,cm,,,,3.0,WEEK 2,TREATMENT,2024-03-24,18
GB001-ASTHMA-201,VS,GB001-ASTHMA-201-SITE001-0028,20,PULSE,Pulse Rate,85.9,beats/min,85.9,85.9,beats/min,,,,3.0,WEEK 2,TREATMENT,2024-03-24,18
GB001-ASTHMA-201,VS,GB001-ASTHMA-201-SITE001-0028,21,RESP,Respiratory Rate,10.6,breaths/min,10.6,10.6,breaths/min,,,,3.0,WEEK 2,TREATMENT,2024-03-24,18
GB001-ASTHMA-201,VS,GB001-ASTHMA-201-SITE001-0028,22,SYSBP,Systolic Blood Pressure,117.8,mmHg,117.8,117.8,mmHg,,,,3.0,WEEK 2,TREATMENT,2024-03-24,18
GB001-ASTHMA-201,VS,GB001-ASTHMA-201-SITE001-0028,23,TEMP,Temperature,37.2,C,37.2,37.2,C,,,,3.0,WEEK 2,TREATMENT,2024-03-24,18
GB001-ASTHMA-201,VS,GB001-ASTHMA-201-SITE001-0028,24,WEIGHT,Weight,84.0,kg,84.0,84.0,kg,,,,3.0,WEEK 2,TREATMENT,2024-03-24,18
GB001-ASTHMA-201,VS,GB001-ASTHMA-201-SITE001-0028,25,BMI,BMI,28.9,kg/m2,28.9,28.9,kg/m2,,,,4.0,WEEK 4,TREATMENT,2024-04-05,30
GB001-ASTHMA-201,VS,GB001-ASTHMA-201-SITE001-0028,26,DIABP,Diastolic Blood Pressure,66.0,mmHg,66.0,66.0,mmHg,,,,4.0,WEEK 4,TREATMENT,2024-04-05,30
GB001-ASTHMA-201,VS,GB001-ASTHMA-201-SITE001-0028,27,HEIGHT,Height,173.3,cm,173.3,173.3,cm,,,,4.0,WEEK 4,TREATMENT,2024-04-05,30
GB001-ASTHMA-201,VS,GB001-ASTHMA-201-SITE001-0028,28,PULSE,Pulse Rate,88.9,beats/min,88.9,88.9,beats/min,,,,4.0,WEEK 4,TREATMENT,2024-04-05,30
GB001-ASTHMA-201,VS,GB001-ASTHMA-201-SITE001-0028,29,RESP,Respiratory Rate,10.9,breaths/min,10.9,10.9,breaths/min,,,,4.0,WEEK 4,TREATMENT,2024-04-05,30
GB001-ASTHMA-201,VS,GB001-ASTHMA-201-SITE001-0028,30,SYSBP,Systolic Blood Pressure,117.8,mmHg,117.8,117.8,mmHg,,,,4.0,WEEK 4,TREATMENT,2024-04-05,30
GB001-ASTHMA-201,VS,GB001-ASTHMA-201-SITE001-0028,31,TEMP,Temperature,37.2,C,37.2,37.2,C,,,,4.0,WEEK 4,TREATMENT,2024-04-05,30
GB001-ASTHMA-201,VS,GB001-ASTHMA-201-SITE001-0028,32,WEIGHT,Weight,86.9,kg,86.9,86.9,kg,,,,4.0,WEEK 4,TREATMENT,2024-04-05,30
GB001-ASTHMA-201,VS,GB001-ASTHMA-201-SITE001-0028,33,BMI,BMI,29.0,kg/m2,29.0,29.0,kg/m2,,,,6.0,WEEK 12,TREATMENT,2024-05-30,85
GB001-ASTHMA-201,VS,GB001-ASTHMA-201-SITE001-0028,34,DIABP,Diastolic Blood Pressure,66.0,mmHg,66.0,66.0,mmHg,,,,6.0,WEEK 12,TREATMENT,2024-05-30,85
GB001-ASTHMA-201,VS,GB001-ASTHMA-201-SITE001-0028,35,HEIGHT,Height,173.5,cm,173.5,173.5,cm,,,,6.0,WEEK 12,TREATMENT,2024-05-30,85
GB001-ASTHMA-201,VS,GB001-ASTHMA-201-SITE001-0028,36,PULSE,Pulse Rate,87.3,beats/min,87.3,87.3,beats/min,,,,6.0,WEEK 12,TREATMENT,2024-05-30,85
GB001-ASTHMA-201,VS,GB001-ASTHMA-201-SITE001-0028,37,RESP,Respiratory Rate,9.7,breaths/min,9.7,9.7,breaths/min,,,,6.0,WEEK 12,TREATMENT,2024-05-30,85
GB001-ASTHMA-201,VS,GB001-ASTHMA-201-SITE001-0028,38,SYSBP,Systolic Blood Pressure,121.4,mmHg,121.4,121.4,mmHg,,,,6.0,WEEK 12,TREATMENT,2024-05-30,85
GB001-ASTHMA-201,VS,GB001-ASTHMA-201-SITE001-0028,39,TEMP,Temperature,37.0,C,37.0,37.0,C,,,,6.0,WEEK 12,TREATMENT,2024-05-30,85
GB001-ASTHMA-201,VS,GB001-ASTHMA-201-SITE001-0028,40,WEIGHT,Weight,87.3,kg,87.3,87.3,kg,,,,6.0,WEEK 12,TREATMENT,2024-05-30,85
GB001-ASTHMA-201,VS,GB001-ASTHMA-201-SITE001-0028,41,BMI,BMI,28.4,kg/m2,28.4,28.4,kg/m2,,,,7.0,FOLLOW-UP,FOLLOW-UP,2024-07-04,120
GB001-ASTHMA-201,VS,GB001-ASTHMA-201-SITE001-0028,42,DIABP,Diastolic Blood Pressure,66.8,mmHg,66.8,66.8,mmHg,,,,7.0,FOLLOW-UP,FOLLOW-UP,2024-07-04,120
GB001-ASTHMA-201,VS,GB001-ASTHMA-201-SITE001-0028,43,HEIGHT,Height,174.3,cm,174.3,174.3,cm,,,,7.0,FOLLOW-UP,FOLLOW-UP,2024-07-04,120
GB001-ASTHMA-201,VS,GB001-ASTHMA-201-SITE001-0028,44,PULSE,Pulse Rate,88.8,beats/min,88.8,88.8,beats/min,,,,7.0,FOLLOW-UP,FOLLOW-UP,2024-07-04,120
GB001-ASTHMA-201,VS,GB001-ASTHMA-201-SITE001-0028,45,RESP,Respiratory Rate,11.0,breaths/min,11.0,11.0,breaths/min,,,,7.0,FOLLOW-UP,FOLLOW-UP,2024-07-04,120
GB001-ASTHMA-201,VS,GB001-ASTHMA-201-SITE001-0028,46,SYSBP,Systolic Blood Pressure,123.8,mmHg,123.8,123.8,mmHg,,,,7.0,FOLLOW-UP,FOLLOW-UP,2024-07-04,120
GB001-ASTHMA-201,VS,GB001-ASTHMA-201-SITE001-0028,47,TEMP,Temperature,37.3,C,37.3,37.3,C,,,,7.0,FOLLOW-UP,FOLLOW-UP,2024-07-04,120
GB001-ASTHMA-201,VS,GB001-ASTHMA-201-SITE001-0028,48,WEIGHT,Weight,86.3,kg,86.3,86.3,kg,,,,7.0,FOLLOW-UP,FOLLOW-UP,2024-07-04,120
GB001-ASTHMA-201,VS,GB001-ASTHMA-201-SITE001-0031,1,BMI,BMI,32.0,kg/m2,32.0,32.0,kg/m2,,,,1.0,SCREENING,SCREENING,2024-01-28,-57
GB001-ASTHMA-201,VS,GB001-ASTHMA-201-SITE001-0031,2,DIABP,Diastolic Blood Pressure,91.6,mmHg,91.6,91.6,mmHg,,,,1.0,SCREENING,SCREENING,2024-01-28,-57
GB001-ASTHMA-201,VS,GB001-ASTHMA-201-SITE001-0031,3,HEIGHT,Height,158.6,cm,158.6,158.6,cm,,,,1.0,SCREENING,SCREENING,2024-01-28,-57
GB001-ASTHMA-201,VS,GB001-ASTHMA-201-SITE001-0031,4,PULSE,Pulse Rate,84.1,beats/min,84.1,84.1,beats/min,,,,1.0,SCREENING,SCREENING,2024-01-28,-57
GB001-ASTHMA-201,VS,GB001-ASTHMA-201-SITE001-0031,5,RESP,Respiratory Rate,16.3,breaths/min,16.3,16.3,breaths/min,,,,1.0,SCREENING,SCREENING,2024-01-28,-57
GB001-ASTHMA-201,VS,GB001-ASTHMA-201-SITE001-0031,6,SYSBP,Systolic Blood Pressure,123.2,mmHg,123.2,123.2,mmHg,,,,1.0,SCREENING,SCREENING,2024-01-28,-57
GB001-ASTHMA-201,VS,GB001-ASTHMA-201-SITE001-0031,7,TEMP,Temperature,36.7,C,36.7,36.7,C,,,,1.0,SCREENING,SCREENING,2024-01-28,-57
GB001-ASTHMA-201,VS,GB001-ASTHMA-201-SITE001-0031,8,WEIGHT,Weight,80.6,kg,80.6,80.6,kg,,,,1.0,SCREENING,SCREENING,2024-01-28,-57
GB001-ASTHMA-201,VS,GB001-ASTHMA-201-SITE001-0031,9,BMI,BMI,32.6,kg/m2,32.6,32.6,kg/m2,,Y,Y,2.0,BASELINE,TREATMENT,2024-03-25,1
GB001-ASTHMA-201,VS,GB001-ASTHMA-201-SITE001-0031,10,DIABP,Diastolic Blood Pressure,92.1,mmHg,92.1,92.1,mmHg,,Y,Y,2.0,BASELINE,TREATMENT,2024-03-25,1
GB001-ASTHMA-201,VS,GB001-ASTHMA-201-SITE001-0031,11,HEIGHT,Height,158.0,cm,158.0,158.0,cm,,Y,Y,2.0,BASELINE,TREATMENT,2024-03-25,1
GB001-ASTHMA-201,VS,GB001-ASTHMA-201-SITE001-0031,12,PULSE,Pulse Rate,89.8,beats/min,89.8,89.8,beats/min,,Y,Y,2.0,BASELINE,TREATMENT,2024-03-25,1
GB001-ASTHMA-201,VS,GB001-ASTHMA-201-SITE001-0031,13,RESP,Respiratory Rate,16.1,breaths/min,16.1,16.1,breaths/min,,Y,Y,2.0,BASELINE,TREATMENT,2024-03-25,1
GB001-ASTHMA-201,VS,GB001-ASTHMA-201-SITE001-0031,14,SYSBP,Systolic Blood Pressure,122.9,mmHg,122.9,122.9,mmHg,,Y,Y,2.0,BASELINE,TREATMENT,2024-03-25,1
GB001-ASTHMA-201,VS,GB001-ASTHMA-201-SITE001-0031,15,TEMP,Temperature,36.8,C,36.8,36.8,C,,Y,Y,2.0,BASELINE,TREATMENT,2024-03-25,1
GB001-ASTHMA-201,VS,GB001-ASTHMA-201-SITE001-0031,16,WEIGHT,Weight,81.5,kg,81.5,81.5,kg,,Y,Y,2.0,BASELINE,TREATMENT,2024-03-25,1
GB001-ASTHMA-201,VS,GB001-ASTHMA-201-SITE001-0031,17,BMI,BMI,32.4,kg/m2,32.4,32.4,kg/m2,,,,3.0,WEEK 2,TREATMENT,2024-04-08,15
GB001-ASTHMA-201,VS,GB001-ASTHMA-201-SITE001-0031,18,DIABP,Diastolic Blood Pressure,91.0,mmHg,91.0,91.0,mmHg,,,,3.0,WEEK 2,TREATMENT,2024-04-08,15
GB001-ASTHMA-201,VS,GB001-ASTHMA-201-SITE001-0031,19,HEIGHT,Height,157.7,cm,157.7,157.7,cm,,,,3.0,WEEK 2,TREATMENT,2024-04-08,15
GB001-ASTHMA-201,VS,GB001-ASTHMA-201-SITE001-0031,20,PULSE,Pulse Rate,94.7,beats/min,94.7,94.7,beats/min,,,,3.0,WEEK 2,TREATMENT,2024-04-08,15
GB001-ASTHMA-201,VS,GB001-ASTHMA-201-SITE001-0031,21,RESP,Respiratory Rate,15.4,breaths/min,15.4,15.4,breaths/min,,,,3.0,WEEK 2,TREATMENT,2024-04-08,15
GB001-ASTHMA-201,VS,GB001-ASTHMA-201-SITE001-0031,22,SYSBP,Systolic Blood Pressure,120.0,mmHg,120.0,120.0,mmHg,,,,3.0,WEEK 2,TREATMENT,2024-04-08,15
GB001-ASTHMA-201,VS,GB001-ASTHMA-201-SITE001-0031,23,TEMP,Temperature,36.7,C,36.7,36.7,C,,,,3.0,WEEK 2,TREATMENT,2024-04-08,15
GB001-ASTHMA-201,VS,GB001-ASTHMA-201-SITE001-0031,24,WEIGHT,Weight,80.6,kg,80.6,80.6,kg,,,,3.0,WEEK 2,TREATMENT,2024-04-08,15
GB001-ASTHMA-201,VS,GB001-ASTHMA-201-SITE001-0031,25,BMI,BMI,32.4,kg/m2,32.4,32.4,kg/m2,,,,4.0,WEEK 4,TREATMENT,2024-04-22,29
GB001-ASTHMA-201,VS,GB001-ASTHMA-201-SITE001-0031,26,DIABP,Diastolic Blood Pressure,89.8,mmHg,89.8,89.8,mmHg,,,,4.0,WEEK 4,TREATMENT,2024-04-22,29
GB001-ASTHMA-201,VS,GB001-ASTHMA-201-SITE001-0031,27,HEIGHT,Height,158.4,cm,158.4,158.4,cm,,,,4.0,WEEK 4,TREATMENT,2024-04-22,29
GB001-ASTHMA-201,VS,GB001-ASTHMA-201-SITE001-0031,28,PULSE,Pulse Rate,90.3,beats/min,90.3,90.3,beats/min,,,,4.0,WEEK 4,TREATMENT,2024-04-22,29
GB001-ASTHMA-201,VS,GB001-ASTHMA-201-SITE001-0031,29,RESP,Respiratory Rate,15.6,breaths/min,15.6,15.6,breaths/min,,,,4.0,WEEK 4,TREATMENT,2024-04-22,29
GB001-ASTHMA-201,VS,GB001-ASTHMA-201-SITE001-0031,30,SYSBP,Systolic Blood Pressure,119.8,mmHg,119.8,119.8,mmHg,,,,4.0,WEEK 4,TREATMENT,2024-04-22,29
GB001-ASTHMA-201,VS,GB001-ASTHMA-201-SITE001-0031,31,TEMP,Temperature,36.8,C,36.8,36.8,C,,,,4.0,WEEK 4,TREATMENT,2024-04-22,29
GB001-ASTHMA-201,VS,GB001-ASTHMA-201-SITE001-0031,32,WEIGHT,Weight,81.2,kg,81.2,81.2,kg,,,,4.0,WEEK 4,TREATMENT,2024-04-22,29
GB001-ASTHMA-201,VS,GB001-ASTHMA-201-SITE001-0031,33,BMI,BMI,31.4,kg/m2,31.4,31.4,kg/m2,,,,5.0,WEEK 8,TREATMENT,2024-05-19,56
GB001-ASTHMA-201,VS,GB001-ASTHMA-201-SITE001-0031,34,DIABP,Diastolic Blood Pressure,90.0,mmHg,90.0,90.0,mmHg,,,,5.0,WEEK 8,TREATMENT,2024-05-19,56
GB001-ASTHMA-201,VS,GB001-ASTHMA-201-SITE001-0031,35,HEIGHT,Height,159.6,cm,159.6,159.6,cm,,,,5.0,WEEK 8,TREATMENT,2024-05-19,56
GB001-ASTHMA-201,VS,GB001-ASTHMA-201-SITE001-0031,36,PULSE,Pulse Rate,88.3,beats/min,88.3,88.3,beats/min,,,,5.0,WEEK 8,TREATMENT,2024-05-19,56
GB001-ASTHMA-201,VS,GB001-ASTHMA-201-SITE001-0031,37,RESP,Respiratory Rate,15.7,breaths/min,15.7,15.7,breaths/min,,,,5.0,WEEK 8,TREATMENT,2024-05-19,56
GB001-ASTHMA-201,VS,GB001-ASTHMA-201-SITE001-0031,38,SYSBP,Systolic Blood Pressure,119.1,mmHg,119.1,119.1,mmHg,,,,5.0,WEEK 8,TREATMENT,2024-05-19,56
GB001-ASTHMA-201,VS,GB001-ASTHMA-201-SITE001-0031,39,TEMP,Temperature,37.0,C,37.0,37.0,C,,,,5.0,WEEK 8,TREATMENT,2024-05-19,56
GB001-ASTHMA-201,VS,GB001-ASTHMA-201-SITE001-0031,40,WEIGHT,Weight,80.0,kg,80.0,80.0,kg,,,,5.0,WEEK 8,TREATMENT,2024-05-19,56
GB001-ASTHMA-201,VS,GB001-ASTHMA-201-SITE001-0031,41,BMI,BMI,31.0,kg/m2,31.0,31.0,kg/m2,,,,6.0,WEEK 12,TREATMENT,2024-06-19,87
GB001-ASTHMA-201,VS,GB001-ASTHMA-201-SITE001-0031,42,DIABP,Diastolic Blood Pressure,90.1,mmHg,90.1,90.1,mmHg,,,,6.0,WEEK 12,TREATMENT,2024-06-19,87
GB001-ASTHMA-201,VS,GB001-ASTHMA-201-SITE001-0031,43,HEIGHT,Height,159.2,cm,159.2,159.2,cm,,,,6.0,WEEK 12,TREATMENT,2024-06-19,87
GB001-ASTHMA-201,VS,GB001-ASTHMA-201-SITE001-0031,44,PULSE,Pulse Rate,86.8,beats/min,86.8,86.8,beats/min,,,,6.0,WEEK 12,TREATMENT,2024-06-19,87
GB001-ASTHMA-201,VS,GB001-ASTHMA-201-SITE001-0031,45,RESP,Respiratory Rate,16.9,breaths/min,16.9,16.9,breaths/min,,,,6.0,WEEK 12,TREATMENT,2024-06-19,87
GB001-ASTHMA-201,VS,GB001-ASTHMA-201-SITE001-0031,46,SYSBP,Systolic Blood Pressure,122.1,mmHg,122.1,122.1,mmHg,,,,6.0,WEEK 12,TREATMENT,2024-06-19,87
GB001-ASTHMA-201,VS,GB001-ASTHMA-201-SITE001-0031,47,TEMP,Temperature,36.8,C,36.8,36.8,C,,,,6.0,WEEK 12,TREATMENT,2024-06-19,87
GB001-ASTHMA-201,VS,GB001-ASTHMA-201-SITE001-0031,48,WEIGHT,Weight,78.6,kg,78.6,78.6,kg,,,,6.0,WEEK 12,TREATMENT,2024-06-19,87
GB001-ASTHMA-201,VS,GB001-ASTHMA-201-SITE001-0031,49,BMI,BMI,32.1,kg/m2,32.1,32.1,kg/m2,,,,7.0,FOLLOW-UP,FOLLOW-UP,2024-07-14,112
GB001-ASTHMA-201,VS,GB001-ASTHMA-201-SITE001-0031,50,DIABP,Diastolic Blood Pressure,88.2,mmHg,88.2,88.2,mmHg,,,,7.0,FOLLOW-UP,FOLLOW-UP,2024-07-14,112
GB001-ASTHMA-201,VS,GB001-ASTHMA-201-SITE001-0031,51,HEIGHT,Height,158.7,cm,158.7,158.7,cm,,,,7.0,FOLLOW-UP,FOLLOW-UP,2024-07-14,112
GB001-ASTHMA-201,VS,GB001-ASTHMA-201-SITE001-0031,52,PULSE,Pulse Rate,88.3,beats/min,88.3,88.3,beats/min,,,,7.0,FOLLOW-UP,FOLLOW-UP,2024-07-14,112
GB001-ASTHMA-201,VS,GB001-ASTHMA-201-SITE001-0031,53,RESP,Respiratory Rate,15.6,breaths/min,15.6,15.6,breaths/min,,,,7.0,FOLLOW-UP,FOLLOW-UP,2024-07-14,112
GB001-ASTHMA-201,VS,GB001-ASTHMA-201-SITE001-0031,54,SYSBP,Systolic Blood Pressure,120.3,mmHg,120.3,120.3,mmHg,,,,7.0,FOLLOW-UP,FOLLOW-UP,2024-07-14,112
GB001-ASTHMA-201,VS,GB001-ASTHMA-201-SITE001-0031,55,TEMP,Temperature,36.7,C,36.7,36.7,C,,,,7.0,FOLLOW-UP,FOLLOW-UP,2024-07-14,112
GB001-ASTHMA-201,VS,GB001-ASTHMA-201-SITE001-0031,56,WEIGHT,Weight,80.9,kg,80.9,80.9,kg,,,,7.0,FOLLOW-UP,FOLLOW-UP,2024-07-14,112
GB001-ASTHMA-201,VS,GB001-ASTHMA-201-SITE001-0040,1,BMI,BMI,24.4,kg/m2,24.4,24.4,kg/m2,,,,1.0,SCREENING,SCREENING,2024-04-15,-21
GB001-ASTHMA-201,VS,GB001-ASTHMA-201-SITE001-0040,2,DIABP,Diastolic Blood Pressure,72.2,mmHg,72.2,72.2,mmHg,,,,1.0,SCREENING,SCREENING,2024-04-15,-21
GB001-ASTHMA-201,VS,GB001-ASTHMA-201-SITE001-0040,3,HEIGHT,Height,156.6,cm,156.6,156.6,cm,,,,1.0,SCREENING,SCREENING,2024-04-15,-21
GB001-ASTHMA-201,VS,GB001-ASTHMA-201-SITE001-0040,4,PULSE,Pulse Rate,51.3,beats/min,51.3,51.3,beats/min,,,,1.0,SCREENING,SCREENING,2024-04-15,-21
GB001-ASTHMA-201,VS,GB001-ASTHMA-201-SITE001-0040,5,RESP,Respiratory Rate,20.0,breaths/min,20.0,20.0,breaths/min,,,,1.0,SCREENING,SCREENING,2024-04-15,-21
GB001-ASTHMA-201,VS,GB001-ASTHMA-201-SITE001-0040,6,SYSBP,Systolic Blood Pressure,134.4,mmHg,134.4,134.4,mmHg,,,,1.0,SCREENING,SCREENING,2024-04-15,-21
GB001-ASTHMA-201,VS,GB001-ASTHMA-201-SITE001-0040,7,TEMP,Temperature,37.3,C,37.3,37.3,C,,,,1.0,SCREENING,SCREENING,2024-04-15,-21
GB001-ASTHMA-201,VS,GB001-ASTHMA-201-SITE001-0040,8,WEIGHT,Weight,59.8,kg,59.8,59.8,kg,,,,1.0,SCREENING,SCREENING,2024-04-15,-21
GB001-ASTHMA-201,VS,GB001-ASTHMA-201-SITE001-0040,9,BMI,BMI,25.6,kg/m2,25.6,25.6,kg/m2,,Y,Y,2.0,BASELINE,TREATMENT,2024-05-06,1
GB001-ASTHMA-201,VS,GB001-ASTHMA-201-SITE001-0040,10,DIABP,Diastolic Blood Pressure,71.8,mmHg,71.8,71.8,mmHg,,Y,Y,2.0,BASELINE,TREATMENT,2024-05-06,1
GB001-ASTHMA-201,VS,GB001-ASTHMA-201-SITE001-0040,11,HEIGHT,Height,156.6,cm,156.6,156.6,cm,,Y,Y,2.0,BASELINE,TREATMENT,2024-05-06,1
GB001-ASTHMA-201,VS,GB001-ASTHMA-201-SITE001-0040,12,PULSE,Pulse Rate,51.0,beats/min,51.0,51.0,beats/min,,Y,Y,2.0,BASELINE,TREATMENT,2024-05-06,1
GB001-ASTHMA-201,VS,GB001-ASTHMA-201-SITE001-0040,13,RESP,Respiratory Rate,21.3,breaths/min,21.3,21.3,breaths/min,,Y,Y,2.0,BASELINE,TREATMENT,2024-05-06,1
GB001-ASTHMA-201,VS,GB001-ASTHMA-201-SITE001-0040,14,SYSBP,Systolic Blood Pressure,133.1,mmHg,133.1,133.1,mmHg,,Y,Y,2.0,BASELINE,TREATMENT,2024-05-06,1
GB001-ASTHMA-201,VS,GB001-ASTHMA-201-SITE001-0040,15,TEMP,Temperature,37.3,C,37.3,37.3,C,,Y,Y,2.0,BASELINE,TREATMENT,2024-05-06,1
GB001-ASTHMA-201,VS,GB001-ASTHMA-201-SITE001-0040,16,WEIGHT,Weight,62.7,kg,62.7,62.7,kg,,Y,Y,2.0,BASELINE,TREATMENT,2024-05-06,1
GB001-ASTHMA-201,VS,GB001-ASTHMA-201-SITE001-0040,17,BMI,BMI,24.6,kg/m2,24.6,24.6,kg/m2,,,,3.0,WEEK 2,TREATMENT,2024-05-18,13
GB001-ASTHMA-201,VS,GB001-ASTHMA-201-SITE001-0040,18,DIABP,Diastolic Blood Pressure,73.1,mmHg,73.1,73.1,mmHg,,,,3.0,WEEK 2,TREATMENT,2024-05-18,13
GB001-ASTHMA-201,VS,GB001-ASTHMA-201-SITE001-0040,19,HEIGHT,Height,157.9,cm,157.9,157.9,cm,,,,3.0,WEEK 2,TREATMENT,2024-05-18,13
GB001-ASTHMA-201,VS,GB001-ASTHMA-201-SITE001-0040,20,PULSE,Pulse Rate,52.7,beats/min,52.7,52.7,beats/min,,,,3.0,WEEK 2,TREATMENT,2024-05-18,13
GB001-ASTHMA-201,VS,GB001-ASTHMA-201-SITE001-0040,21,RESP,Respiratory Rate,22.6,breaths/min,22.6,22.6,breaths/min,,,,3.0,WEEK 2,TREATMENT,2024-05-18,13
GB001-ASTHMA-201,VS,GB001-ASTHMA-201-SITE001-0040,22,SYSBP,Systolic Blood Pressure,135.1,mmHg,135.1,135.1,mmHg,,,,3.0,WEEK 2,TREATMENT,2024-05-18,13
GB001-ASTHMA-201,VS,GB001-ASTHMA-201-SITE001-0040,23,TEMP,Temperature,37.3,C,37.3,37.3,C,,,,3.0,WEEK 2,TREATMENT,2024-05-18,13
GB001-ASTHMA-201,VS,GB001-ASTHMA-201-SITE001-0040,24,WEIGHT,Weight,61.3,kg,61.3,61.3,kg,,,,3.0,WEEK 2,TREATMENT,2024-05-18,13
GB001-ASTHMA-201,VS,GB001-ASTHMA-201-SITE001-0040,25,BMI,BMI,25.1,kg/m2,25.1,25.1,kg/m2,,,,4.0,WEEK 4,TREATMENT,2024-06-01,27
GB001-ASTHMA-201,VS,GB001-ASTHMA-201-SITE001-0040,26,DIABP,Diastolic Blood Pressure,75.1,mmHg,75.1,75.1,mmHg,,,,4.0,WEEK 4,TREATMENT,2024-06-01,27
GB001-ASTHMA-201,VS,GB001-ASTHMA-201-SITE001-0040,27,HEIGHT,Height,156.5,cm,156.5,156.5,cm,,,,4.0,WEEK 4,TREATMENT,2024-06-01,27
GB001-ASTHMA-201,VS,GB001-ASTHMA-201-SITE001-0040,28,PULSE,Pulse Rate,48.8,beats/min,48.8,48.8,beats/min,,,,4.0,WEEK 4,TREATMENT,2024-06-01,27
GB001-ASTHMA-201,VS,GB001-ASTHMA-201-SITE001-0040,29,RESP,Respiratory Rate,22.7,breaths/min,22.7,22.7,breaths/min,,,,4.0,WEEK 4,TREATMENT,2024-06-01,27
GB001-ASTHMA-201,VS,GB001-ASTHMA-201-SITE001-0040,30,SYSBP,Systolic Blood Pressure,137.3,mmHg,137.3,137.3,mmHg,,,,4.0,WEEK 4,TREATMENT,2024-06-01,27
GB001-ASTHMA-201,VS,GB001-ASTHMA-201-SITE001-0040,31,TEMP,Temperature,37.2,C,37.2,37.2,C,,,,4.0,WEEK 4,TREATMENT,2024-06-01,27
GB001-ASTHMA-201,VS,GB001-ASTHMA-201-SITE001-0040,32,WEIGHT,Weight,61.5,kg,61.5,61.5,kg,,,,4.0,WEEK 4,TREATMENT,2024-06-01,27
GB001-ASTHMA-201,VS,GB001-ASTHMA-201-SITE001-0040,33,BMI,BMI,24.6,kg/m2,24.6,24.6,kg/m2,,,,5.0,WEEK 8,TREATMENT,2024-07-02,58
GB001-ASTHMA-201,VS,GB001-ASTHMA-201-SITE001-0040,34,DIABP,Diastolic Blood Pressure,75.6,mmHg,75.6,75.6,mmHg,,,,5.0,WEEK 8,TREATMENT,2024-07-02,58
GB001-ASTHMA-201,VS,GB001-ASTHMA-201-SITE001-0040,35,HEIGHT,Height,157.4,cm,157.4,157.4,cm,,,,5.0,WEEK 8,TREATMENT,2024-07-02,58
GB001-ASTHMA-201,VS,GB001-ASTHMA-201-SITE001-0040,36,PULSE,Pulse Rate,48.0,beats/min,48.0,48.0,beats/min,,,,5.0,WEEK 8,TREATMENT,2024-07-02,58
GB001-ASTHMA-201,VS,GB001-ASTHMA-201-SITE001-0040,37,RESP,Respiratory Rate,20.7,breaths/min,20.7,20.7,breaths/min,,,,5.0,WEEK 8,TREATMENT,2024-07-02,58
GB001-ASTHMA-201,VS,GB001-ASTHMA-201-SITE001-0040,38,SYSBP,Systolic Blood Pressure,137.2,mmHg,137.2,137.2,mmHg,,,,5.0,WEEK 8,TREATMENT,2024-07-02,58
GB001-ASTHMA-201,VS,GB001-ASTHMA-201-SITE001-0040,39,TEMP,Temperature,37.2,C,37.2,37.2,C,,,,5.0,WEEK 8,TREATMENT,2024-07-02,58
GB001-ASTHMA-201,VS,GB001-ASTHMA-201-SITE001-0040,40,WEIGHT,Weight,61.0,kg,61.0,61.0,kg,,,,5.0,WEEK 8,TREATMENT,2024-07-02,58
GB001-ASTHMA-201,VS,GB001-ASTHMA-201-SITE001-0040,41,BMI,BMI,23.9,kg/m2,23.9,23.9,kg/m2,,,,6.0,WEEK 12,TREATMENT,2024-07-27,83
GB001-ASTHMA-201,VS,GB001-ASTHMA-201-SITE001-0040,42,DIABP,Diastolic Blood Pressure,75.6,mmHg,75.6,75.6,mmHg,,,,6.0,WEEK 12,TREATMENT,2024-07-27,83
GB001-ASTHMA-201,VS,GB001-ASTHMA-201-SITE001-0040,43,HEIGHT,Height,157.8,cm,157.8,157.8,cm,,,,6.0,WEEK 12,TREATMENT,2024-07-27,83
GB001-ASTHMA-201,VS,GB001-ASTHMA-201-SITE001-0040,44,PULSE,Pulse Rate,51.4,beats/min,51.4,51.4,beats/min,,,,6.0,WEEK 12,TREATMENT,2024-07-27,83
GB001-ASTHMA-201,VS,GB001-ASTHMA-201-SITE001-0040,45,RESP,Respiratory Rate,19.7,breaths/min,19.7,19.7,breaths/min,,,,6.0,WEEK 12,TREATMENT,2024-07-27,83
GB001-ASTHMA-201,VS,GB001-ASTHMA-201-SITE001-0040,46,SYSBP,Systolic Blood Pressure,138.0,mmHg,138.0,138.0,mmHg,,,,6.0,WEEK 12,TREATMENT,2024-07-27,83
GB001-ASTHMA-201,VS,GB001-ASTHMA-201-SITE001-0040,47,TEMP,Temperature,37.2,C,37.2,37.2,C,,,,6.0,WEEK 12,TREATMENT,2024-07-27,83
GB001-ASTHMA-201,VS,GB001-ASTHMA-201-SITE001-0040,48,WEIGHT,Weight,59.4,kg,59.4,59.4,kg,,,,6.0,WEEK 12,TREATMENT,2024-07-27,83
GB001-ASTHMA-201,VS,GB001-ASTHMA-201-SITE001-0043,1,BMI,BMI,22.5,kg/m2,22.5,22.5,kg/m2,,,,1.0,SCREENING,SCREENING,2024-02-09,-26
GB001-ASTHMA-201,VS,GB001-ASTHMA-201-SITE001-0043,2,DIABP,Diastolic Blood Pressure,75.4,mmHg,75.4,75.4,mmHg,,,,1.0,SCREENING,SCREENING,2024-02-09,-26
GB001-ASTHMA-201,VS,GB001-ASTHMA-201-SITE001-0043,3,HEIGHT,Height,171.1,cm,171.1,171.1,cm,,,,1.0,SCREENING,SCREENING,2024-02-09,-26
GB001-ASTHMA-201,VS,GB001-ASTHMA-201-SITE001-0043,4,PULSE,Pulse Rate,58.3,beats/min,58.3,58.3,beats/min,,,,1.0,SCREENING,SCREENING,2024-02-09,-26
GB001-ASTHMA-201,VS,GB001-ASTHMA-201-SITE001-0043,5,RESP,Respiratory Rate,18.2,breaths/min,18.2,18.2,breaths/min,,,,1.0,SCREENING,SCREENING,2024-02-09,-26
GB001-ASTHMA-201,VS,GB001-ASTHMA-201-SITE001-0043,6,SYSBP,Systolic Blood Pressure,123.0,mmHg,123.0,123.0,mmHg,,,,1.0,SCREENING,SCREENING,2024-02-09,-26
GB001-ASTHMA-201,VS,GB001-ASTHMA-201-SITE001-0043,7,TEMP,Temperature,36.7,C,36.7,36.7,C,,,,1.0,SCREENING,SCREENING,2024-02-09,-26
GB001-ASTHMA-201,VS,GB001-ASTHMA-201-SITE001-0043,8,WEIGHT,Weight,65.9,kg,65.9,65.9,kg,,,,1.0,SCREENING,SCREENING,2024-02-09,-26
GB001-ASTHMA-201,VS,GB001-ASTHMA-201-SITE001-0043,9,BMI,BMI,21.3,kg/m2,21.3,21.3,kg/m2,,Y,Y,2.0,BASELINE,TREATMENT,2024-03-06,1
GB001-ASTHMA-201,VS,GB001-ASTHMA-201-SITE001-0043,10,DIABP,Diastolic Blood Pressure,74.8,mmHg,74.8,74.8,mmHg,,Y,Y,2.0,BASELINE,TREATMENT,2024-03-06,1
GB001-ASTHMA-201,VS,GB001-ASTHMA-201-SITE001-0043,11,HEIGHT,Height,171.3,cm,171.3,171.3,cm,,Y,Y,2.0,BASELINE,TREATMENT,2024-03-06,1
GB001-ASTHMA-201,VS,GB001-ASTHMA-201-SITE001-0043,12,PULSE,Pulse Rate,61.0,beats/min,61.0,61.0,beats/min,,Y,Y,2.0,BASELINE,TREATMENT,2024-03-06,1
GB001-ASTHMA-201,VS,GB001-ASTHMA-201-SITE001-0043,13,RESP,Respiratory Rate,17.9,breaths/min,17.9,17.9,breaths/min,,Y,Y,2.0,BASELINE,TREATMENT,2024-03-06,1
GB001-ASTHMA-201,VS,GB001-ASTHMA-201-SITE001-0043,14,SYSBP,Systolic Blood Pressure,123.5,mmHg,123.5,123.5,mmHg,,Y,Y,2.0,BASELINE,TREATMENT,2024-03-06,1
GB001-ASTHMA-201,VS,GB001-ASTHMA-201-SITE001-0043,15,TEMP,Temperature,36.6,C,36.6,36.6,C,,Y,Y,2.0,BASELINE,TREATMENT,2024-03-06,1
GB001-ASTHMA-201,VS,GB001-ASTHMA-201-SITE001-0043,16,WEIGHT,Weight,62.4,kg,62.4,62.4,kg,,Y,Y,2.0,BASELINE,TREATMENT,2024-03-06,1
GB001-ASTHMA-201,VS,GB001-ASTHMA-201-SITE001-0043,17,BMI,BMI,20.7,kg/m2,20.7,20.7,kg/m2,,,,3.0,WEEK 2,TREATMENT,2024-03-21,16
GB001-ASTHMA-201,VS,GB001-ASTHMA-201-SITE001-0043,18,DIABP,Diastolic Blood Pressure,75.7,mmHg,75.7,75.7,mmHg,,,,3.0,WEEK 2,TREATMENT,2024-03-21,16
GB001-ASTHMA-201,VS,GB001-ASTHMA-201-SITE001-0043,19,HEIGHT,Height,171.2,cm,171.2,171.2,cm,,,,3.0,WEEK 2,TREATMENT,2024-03-21,16
GB001-ASTHMA-201,VS,GB001-ASTHMA-201-SITE001-0043,20,PULSE,Pulse Rate,62.4,beats/min,62.4,62.4,beats/min,,,,3.0,WEEK 2,TREATMENT,2024-03-21,16
GB001-ASTHMA-201,VS,GB001-ASTHMA-201-SITE001-0043,21,RESP,Respiratory Rate,16.4,breaths/min,16.4,16.4,breaths/min,,,,3.0,WEEK 2,TREATMENT,2024-03-21,16
GB001-ASTHMA-201,VS,GB001-ASTHMA-201-SITE001-0043,22,SYSBP,Systolic Blood Pressure,124.6,mmHg,124.6,124.6,mmHg,,,,3.0,WEEK 2,TREATMENT,2024-03-21,16
GB001-ASTHMA-201,VS,GB001-ASTHMA-201-SITE001-0043,23,TEMP,Temperature,36.5,C,36.5,36.5,C,,,,3.0,WEEK 2,TREATMENT,2024-03-21,16
GB001-ASTHMA-201,VS,GB001-ASTHMA-201-SITE001-0043,24,WEIGHT,Weight,60.7,kg,60.7,60.7,kg,,,,3.0,WEEK 2,TREATMENT,2024-03-21,16
GB001-ASTHMA-201,VS,GB001-ASTHMA-201-SITE001-0043,25,BMI,BMI,20.5,kg/m2,20.5,20.5,kg/m2,,,,4.0,WEEK 4,TREATMENT,2024-04-05,31
GB001-ASTHMA-201,VS,GB001-ASTHMA-201-SITE001-0043,26,DIABP,Diastolic Blood Pressure,74.1,mmHg,74.1,74.1,mmHg,,,,4.0,WEEK 4,TREATMENT,2024-04-05,31
GB001-ASTHMA-201,VS,GB001-ASTHMA-201-SITE001-0043,27,HEIGHT,Height,171.2,cm,171.2,171.2,cm,,,,4.0,WEEK 4,TREATMENT,2024-04-05,31
GB001-ASTHMA-201,VS,GB001-ASTHMA-201-SITE001-0043,28,PULSE,Pulse Rate,62.2,beats/min,62.2,62.2,beats/min,,,,4.0,WEEK 4,TREATMENT,2024-04-05,31
GB001-ASTHMA-201,VS,GB001-ASTHMA-201-SITE001-0043,29,RESP,Respiratory Rate,16.6,breaths/min,16.6,16.6,breaths/min,,,,4.0,WEEK 4,TREATMENT,2024-04-05,31
GB001-ASTHMA-201,VS,GB001-ASTHMA-201-SITE001-0043,30,SYSBP,Systolic Blood Pressure,122.0,mmHg,122.0,122.0,mmHg,,,,4.0,WEEK 4,TREATMENT,2024-04-05,31
GB001-ASTHMA-201,VS,GB001-ASTHMA-201-SITE001-0043,31,TEMP,Temperature,36.8,C,36.8,36.8,C,,,,4.0,WEEK 4,TREATMENT,2024-04-05,31
GB001-ASTHMA-201,VS,GB001-ASTHMA-201-SITE001-0043,32,WEIGHT,Weight,60.2,kg,60.2,60.2,kg,,,,4.0,WEEK 4,TREATMENT,2024-04-05,31
GB001-ASTHMA-201,VS,GB001-ASTHMA-201-SITE001-0043,33,BMI,BMI,20.3,kg/m2,20.3,20.3,kg/m2,,,,5.0,WEEK 8,TREATMENT,2024-05-03,59
GB001-ASTHMA-201,VS,GB001-ASTHMA-201-SITE001-0043,34,DIABP,Diastolic Blood Pressure,74.5,mmHg,74.5,74.5,mmHg,,,,5.0,WEEK 8,TREATMENT,2024-05-03,59
GB001-ASTHMA-201,VS,GB001-ASTHMA-201-SITE001-0043,35,HEIGHT,Height,170.7,cm,170.7,170.7,cm,,,,5.0,WEEK 8,TREATMENT,2024-05-03,59
GB001-ASTHMA-201,VS,GB001-ASTHMA-201-SITE001-0043,36,PULSE,Pulse Rate,66.5,beats/min,66.5,66.5,beats/min,,,,5.0,WEEK 8,TREATMENT,2024-05-03,59
GB001-ASTHMA-201,VS,GB001-ASTHMA-201-SITE001-0043,37,RESP,Respiratory Rate,18.5,breaths/min,18.5,18.5,breaths/min,,,,5.0,WEEK 8,TREATMENT,2024-05-03,59
GB001-ASTHMA-201,VS,GB001-ASTHMA-201-SITE001-0043,38,SYSBP,Systolic Blood Pressure,122.2,mmHg,122.2,122.2,mmHg,,,,5.0,WEEK 8,TREATMENT,2024-05-03,59
GB001-ASTHMA-201,VS,GB001-ASTHMA-201-SITE001-0043,39,TEMP,Temperature,,,,,,NOT DONE,,,5.0,WEEK 8,TREATMENT,2024-05-03,59
GB001-ASTHMA-201,VS,GB001-ASTHMA-201-SITE001-0043,40,WEIGHT,Weight,59.2,kg,59.2,59.2,kg,,,,5.0,WEEK 8,TREATMENT,2024-05-03,59
GB001-ASTHMA-201,VS,GB001-ASTHMA-201-SITE001-0043,41,BMI,BMI,20.0,kg/m2,20.0,20.0,kg/m2,,,,6.0,WEEK 12,TREATMENT,2024-05-30,86
GB001-ASTHMA-201,VS,GB001-ASTHMA-201-SITE001-0043,42,DIABP,Diastolic Blood Pressure,75.4,mmHg,75.4,75.4,mmHg,,,,6.0,WEEK 12,TREATMENT,2024-05-30,86
GB001-ASTHMA-201,VS,GB001-ASTHMA-201-SITE001-0043,43,HEIGHT,Height,171.0,cm,171.0,171.0,cm,,,,6.0,WEEK 12,TREATMENT,2024-05-30,86
GB001-ASTHMA-201,VS,GB001-ASTHMA-201-SITE001-0043,44,PULSE,Pulse Rate,61.1,beats/min,61.1,61.1,beats/min,,,,6.0,WEEK 12,TREATMENT,2024-05-30,86
GB001-ASTHMA-201,VS,GB001-ASTHMA-201-SITE001-0043,45,RESP,Respiratory Rate,17.2,breaths/min,17.2,17.2,breaths/min,,,,6.0,WEEK 12,TREATMENT,2024-05-30,86
GB001-ASTHMA-201,VS,GB001-ASTHMA-201-SITE001-0043,46,SYSBP,Systolic Blood Pressure,124.2,mmHg,124.2,124.2,mmHg,,,,6.0,WEEK 12,TREATMENT,2024-05-30,86
GB001-ASTHMA-201,VS,GB001-ASTHMA-201-SITE001-0043,47,TEMP,Temperature,36.7,C,36.7,36.7,C,,,,6.0,WEEK 12,TREATMENT,2024-05-30,86
GB001-ASTHMA-201,VS,GB001-ASTHMA-201-SITE001-0043,48,WEIGHT,Weight,58.6,kg,58.6,58.6,kg,,,,6.0,WEEK 12,TREATMENT,2024-05-30,86
GB001-ASTHMA-201,VS,GB001-ASTHMA-201-SITE001-0043,49,BMI,BMI,20.1,kg/m2,20.1,20.1,kg/m2,,,,7.0,FOLLOW-UP,FOLLOW-UP,2024-07-01,118
GB001-ASTHMA-201,VS,GB001-ASTHMA-201-SITE001-0043,50,DIABP,Diastolic Blood Pressure,74.2,mmHg,74.2,74.2,mmHg,,,,7.0,FOLLOW-UP,FOLLOW-UP,2024-07-01,118
GB001-ASTHMA-201,VS,GB001-ASTHMA-201-SITE001-0043,51,HEIGHT,Height,170.7,cm,170.7,170.7,cm,,,,7.0,FOLLOW-UP,FOLLOW-UP,2024-07-01,118
GB001-ASTHMA-201,VS,GB001-ASTHMA-201-SITE001-0043,52,PULSE,Pulse Rate,58.1,beats/min,58.1,58.1,beats/min,,,,7.0,FOLLOW-UP,FOLLOW-UP,2024-07-01,118
GB001-ASTHMA-201,VS,GB001-ASTHMA-201-SITE001-0043,53,RESP,Respiratory Rate,18.1,breaths/min,18.1,18.1,breaths/min,,,,7.0,FOLLOW-UP,FOLLOW-UP,2024-07-01,118
GB001-ASTHMA-201,VS,GB001-ASTHMA-201-SITE001-0043,54,SYSBP,Systolic Blood Pressure,122.0,mmHg,122.0,122.0,mmHg,,,,7.0,FOLLOW-UP,FOLLOW-UP,2024-07-01,118
GB001-ASTHMA-201,VS,GB001-ASTHMA-201-SITE001-0043,55,TEMP,Temperature,36.8,C,36.8,36.8,C,,,,7.0,FOLLOW-UP,FOLLOW-UP,2024-07-01,118
GB001-ASTHMA-201,VS,GB001-ASTHMA-201-SITE001-0043,56,WEIGHT,Weight,58.5,kg,58.5,58.5,kg,,,,7.0,FOLLOW-UP,FOLLOW-UP,2024-07-01,118
GB001-ASTHMA-201,VS,GB001-ASTHMA-201-SITE001-0046,1,BMI,BMI,36.1,kg/m2,36.1,36.1,kg/m2,,,,1.0,SCREENING,SCREENING,2024-01-21,-48
GB001-ASTHMA-201,VS,GB001-ASTHMA-201-SITE001-0046,2,DIABP,Diastolic Blood Pressure,75.7,mmHg,75.7,75.7,mmHg,,,,1.0,SCREENING,SCREENING,2024-01-21,-48
GB001-ASTHMA-201,VS,GB001-ASTHMA-201-SITE001-0046,3,HEIGHT,Height,157.4,cm,157.4,157.4,cm,,,,1.0,SCREENING,SCREENING,2024-01-21,-48
GB001-ASTHMA-201,VS,GB001-ASTHMA-201-SITE001-0046,4,PULSE,Pulse Rate,66.2,beats/min,66.2,66.2,beats/min,,,,1.0,SCREENING,SCREENING,2024-01-21,-48
GB001-ASTHMA-201,VS,GB001-ASTHMA-201-SITE001-0046,5,RESP,Respiratory Rate,16.6,breaths/min,16.6,16.6,breaths/min,,,,1.0,SCREENING,SCREENING,2024-01-21,-48
GB001-ASTHMA-201,VS,GB001-ASTHMA-201-SITE001-0046,6,SYSBP,Systolic Blood Pressure,92.7,mmHg,92.7,92.7,mmHg,,,,1.0,SCREENING,SCREENING,2024-01-21,-48
GB001-ASTHMA-201,VS,GB001-ASTHMA-201-SITE001-0046,7,TEMP,Temperature,37.0,C,37.0,37.0,C,,,,1.0,SCREENING,SCREENING,2024-01-21,-48
GB001-ASTHMA-201,VS,GB001-ASTHMA-201-SITE001-0046,8,WEIGHT,Weight,89.5,kg,89.5,89.5,kg,,,,1.0,SCREENING,SCREENING,2024-01-21,-48
GB001-ASTHMA-201,VS,GB001-ASTHMA-201-SITE001-0046,9,BMI,BMI,35.6,kg/m2,35.6,35.6,kg/m2,,Y,Y,2.0,BASELINE,TREATMENT,2024-03-09,1
GB001-ASTHMA-201,VS,GB001-ASTHMA-201-SITE001-0046,10,DIABP,Diastolic Blood Pressure,76.0,mmHg,76.0,76.0,mmHg,,Y,Y,2.0,BASELINE,TREATMENT,2024-03-09,1
GB001-ASTHMA-201,VS,GB001-ASTHMA-201-SITE001-0046,11,HEIGHT,Height,157.0,cm,157.0,157.0,cm,,Y,Y,2.0,BASELINE,TREATMENT,2024-03-09,1
GB001-ASTHMA-201,VS,GB001-ASTHMA-201-SITE001-0046,12,PULSE,Pulse Rate,66.2,beats/min,66.2,66.2,beats/min,,Y,Y,2.0,BASELINE,TREATMENT,2024-03-09,1
GB001-ASTHMA-201,VS,GB001-ASTHMA-201-SITE001-0046,13,RESP,Respiratory Rate,17.3,breaths/min,17.3,17.3,breaths/min,,Y,Y,2.0,BASELINE,TREATMENT,2024-03-09,1
GB001-ASTHMA-201,VS,GB001-ASTHMA-201-SITE001-0046,14,SYSBP,Systolic Blood Pressure,92.2,mmHg,92.2,92.2,mmHg,,Y,Y,2.0,BASELINE,TREATMENT,2024-03-09,1
GB001-ASTHMA-201,VS,GB001-ASTHMA-201-SITE001-0046,15,TEMP,Temperature,37.1,C,37.1,37.1,C,,Y,Y,2.0,BASELINE,TREATMENT,2024-03-09,1
GB001-ASTHMA-201,VS,GB001-ASTHMA-201-SITE001-0046,16,WEIGHT,Weight,87.8,kg,87.8,87.8,kg,,Y,Y,2.0,BASELINE,TREATMENT,2024-03-09,1
GB001-ASTHMA-201,VS,GB001-ASTHMA-201-SITE001-0046,17,BMI,BMI,35.9,kg/m2,35.9,35.9,kg/m2,,,,3.0,WEEK 2,TREATMENT,2024-03-25,17
GB001-ASTHMA-201,VS,GB001-ASTHMA-201-SITE001-0046,18,DIABP,Diastolic Blood Pressure,75.7,mmHg,75.7,75.7,mmHg,,,,3.0,WEEK 2,TREATMENT,2024-03-25,17
GB001-ASTHMA-201,VS,GB001-ASTHMA-201-SITE001-0046,19,HEIGHT,Height,156.6,cm,156.6,156.6,cm,,,,3.0,WEEK 2,TREATMENT,2024-03-25,17
GB001-ASTHMA-201,VS,GB001-ASTHMA-201-SITE001-0046,20,PULSE,Pulse Rate,67.9,beats/min,67.9,67.9,beats/min,,,,3.0,WEEK 2,TREATMENT,2024-03-25,17
GB001-ASTHMA-201,VS,GB001-ASTHMA-201-SITE001-0046,21,RESP,Respiratory Rate,19.2,breaths/min,19.2,19.2,breaths/min,,,,3.0,WEEK 2,TREATMENT,2024-03-25,17
GB001-ASTHMA-201,VS,GB001-ASTHMA-201-SITE001-0046,22,SYSBP,Systolic Blood Pressure,92.5,mmHg,92.5,92.5,mmHg,,,,3.0,WEEK 2,TREATMENT,2024-03-25,17
GB001-ASTHMA-201,VS,GB001-ASTHMA-201-SITE001-0046,23,TEMP,Temperature,37.1,C,37.1,37.1,C,,,,3.0,WEEK 2,TREATMENT,2024-03-25,17
GB001-ASTHMA-201,VS,GB001-ASTHMA-201-SITE001-0046,24,WEIGHT,Weight,88.0,kg,88.0,88.0,kg,,,,3.0,WEEK 2,TREATMENT,2024-03-25,17
GB001-ASTHMA-201,VS,GB001-ASTHMA-201-SITE001-0046,25,BMI,BMI,34.1,kg/m2,34.1,34.1,kg/m2,,,,4.0,WEEK 4,TREATMENT,2024-04-04,27
GB001-ASTHMA-201,VS,GB001-ASTHMA-201-SITE001-0046,26,DIABP,Diastolic Blood Pressure,75.2,mmHg,75.2,75.2,mmHg,,,,4.0,WEEK 4,TREATMENT,2024-04-04,27
GB001-ASTHMA-201,VS,GB001-ASTHMA-201-SITE001-0046,27,HEIGHT,Height,156.4,cm,156.4,156.4,cm,,,,4.0,WEEK 4,TREATMENT,2024-04-04,27
GB001-ASTHMA-201,VS,GB001-ASTHMA-201-SITE001-0046,28,PULSE,Pulse Rate,71.2,beats/min,71.2,71.2,beats/min,,,,4.0,WEEK 4,TREATMENT,2024-04-04,27
GB001-ASTHMA-201,VS,GB001-ASTHMA-201-SITE001-0046,29,RESP,Respiratory Rate,18.0,breaths/min,18.0,18.0,breaths/min,,,,4.0,WEEK 4,TREATMENT,2024-04-04,27
GB001-ASTHMA-201,VS,GB001-ASTHMA-201-SITE001-0046,30,SYSBP,Systolic Blood Pressure,92.7,mmHg,92.7,92.7,mmHg,,,,4.0,WEEK 4,TREATMENT,2024-04-04,27
GB001-ASTHMA-201,VS,GB001-ASTHMA-201-SITE001-0046,31,TEMP,Temperature,37.0,C,37.0,37.0,C,,,,4.0,WEEK 4,TREATMENT,2024-04-04,27
GB001-ASTHMA-201,VS,GB001-ASTHMA-201-SITE001-0046,32,WEIGHT,Weight,83.3,kg,83.3,83.3,kg,,,,4.0,WEEK 4,TREATMENT,2024-04-04,27
GB001-ASTHMA-201,VS,GB001-ASTHMA-201-SITE001-0046,33,BMI,BMI,33.8,kg/m2,33.8,33.8,kg/m2,,,,6.0,WEEK 12,TREATMENT,2024-06-02,86
GB001-ASTHMA-201,VS,GB001-ASTHMA-201-SITE001-0046,34,DIABP,Diastolic Blood Pressure,76.9,mmHg,76.9,76.9,mmHg,,,,6.0,WEEK 12,TREATMENT,2024-06-02,86
GB001-ASTHMA-201,VS,GB001-ASTHMA-201-SITE001-0046,35,HEIGHT,Height,155.9,cm,155.9,155.9,cm,,,,6.0,WEEK 12,TREATMENT,2024-06-02,86
GB001-ASTHMA-201,VS,GB001-ASTHMA-201-SITE001-0046,36,PULSE,Pulse Rate,64.2,beats/min,64.2,64.2,beats/min,,,,6.0,WEEK 12,TREATMENT,2024-06-02,86
GB001-ASTHMA-201,VS,GB001-ASTHMA-201-SITE001-0046,37,RESP,Respiratory Rate,17.3,breaths/min,17.3,17.3,breaths/min,,,,6.0,WEEK 12,TREATMENT,2024-06-02,86
GB001-ASTHMA-201,VS,GB001-ASTHMA-201-SITE001-0046,38,SYSBP,Systolic Blood Pressure,93.5,mmHg,93.5,93.5,mmHg,,,,6.0,WEEK 12,TREATMENT,2024-06-02,86
GB001-ASTHMA-201,VS,GB001-ASTHMA-201-SITE001-0046,39,TEMP,Temperature,37.0,C,37.0,37.0,C,,,,6.0,WEEK 12,TREATMENT,2024-06-02,86
GB001-ASTHMA-201,VS,GB001-ASTHMA-201-SITE001-0046,40,WEIGHT,Weight,82.1,kg,82.1,82.1,kg,,,,6.0,WEEK 12,TREATMENT,2024-06-02,86
GB001-ASTHMA-201,VS,GB001-ASTHMA-201-SITE001-0049,1,BMI,BMI,29.0,kg/m2,29.0,29.0,kg/m2,,,,1.0,SCREENING,SCREENING,2024-02-12,-22
GB001-ASTHMA-201,VS,GB001-ASTHMA-201-SITE001-0049,2,DIABP,Diastolic Blood Pressure,81.8,mmHg,81.8,81.8,mmHg,,,,1.0,SCREENING,SCREENING,2024-02-12,-22
GB001-ASTHMA-201,VS,GB001-ASTHMA-201-SITE001-0049,3,HEIGHT,Height,169.3,cm,169.3,169.3,cm,,,,1.0,SCREENING,SCREENING,2024-02-12,-22
GB001-ASTHMA-201,VS,GB001-ASTHMA-201-SITE001-0049,4,PULSE,Pulse Rate,81.9,beats/min,81.9,81.9,beats/min,,,,1.0,SCREENING,SCREENING,2024-02-12,-22
GB001-ASTHMA-201,VS,GB001-ASTHMA-201-SITE001-0049,5,RESP,Respiratory Rate,20.0,breaths/min,20.0,20.0,breaths/min,,,,1.0,SCREENING,SCREENING,2024-02-12,-22
GB001-ASTHMA-201,VS,GB001-ASTHMA-201-SITE001-0049,6,SYSBP,Systolic Blood Pressure,152.8,mmHg,152.8,152.8,mmHg,,,,1.0,SCREENING,SCREENING,2024-02-12,-22
GB001-ASTHMA-201,VS,GB001-ASTHMA-201-SITE001-0049,7,TEMP,Temperature,37.2,C,37.2,37.2,C,,,,1.0,SCREENING,SCREENING,2024-02-12,-22
GB001-ASTHMA-201,VS,GB001-ASTHMA-201-SITE001-0049,8,WEIGHT,Weight,83.2,kg,83.2,83.2,kg,,,,1.0,SCREENING,SCREENING,2024-02-12,-22
GB001-ASTHMA-201,VS,GB001-ASTHMA-201-SITE001-0049,9,BMI,BMI,28.4,kg/m2,28.4,28.4,kg/m2,,Y,Y,2.0,BASELINE,TREATMENT,2024-03-05,1
GB001-ASTHMA-201,VS,GB001-ASTHMA-201-SITE001-0049,10,DIABP,Diastolic Blood Pressure,81.7,mmHg,81.7,81.7,mmHg,,Y,Y,2.0,BASELINE,TREATMENT,2024-03-05,1
GB001-ASTHMA-201,VS,GB001-ASTHMA-201-SITE001-0049,11,HEIGHT,Height,169.2,cm,169.2,169.2,cm,,Y,Y,2.0,BASELINE,TREATMENT,2024-03-05,1
GB001-ASTHMA-201,VS,GB001-ASTHMA-201-SITE001-0049,12,PULSE,Pulse Rate,81.3,beats/min,81.3,81.3,beats/min,,Y,Y,2.0,BASELINE,TREATMENT,2024-03-05,1
GB001-ASTHMA-201,VS,GB001-ASTHMA-201-SITE001-0049,13,RESP,Respiratory Rate,19.3,breaths/min,19.3,19.3,breaths/min,,Y,Y,2.0,BASELINE,TREATMENT,2024-03-05,1
GB001-ASTHMA-201,VS,GB001-ASTHMA-201-SITE001-0049,14,SYSBP,Systolic Blood Pressure,152.2,mmHg,152.2,152.2,mmHg,,Y,Y,2.0,BASELINE,TREATMENT,2024-03-05,1
GB001-ASTHMA-201,VS,GB001-ASTHMA-201-SITE001-0049,15,TEMP,Temperature,37.0,C,37.0,37.0,C,,Y,Y,2.0,BASELINE,TREATMENT,2024-03-05,1
GB001-ASTHMA-201,VS,GB001-ASTHMA-201-SITE001-0049,16,WEIGHT,Weight,81.2,kg,81.2,81.2,kg,,Y,Y,2.0,BASELINE,TREATMENT,2024-03-05,1
GB001-ASTHMA-201,VS,GB001-ASTHMA-201-SITE001-0049,17,BMI,BMI,28.9,kg/m2,28.9,28.9,kg/m2,,,,3.0,WEEK 2,TREATMENT,2024-03-18,14
GB001-ASTHMA-201,VS,GB001-ASTHMA-201-SITE001-0049,18,DIABP,Diastolic Blood Pressure,84.1,mmHg,84.1,84.1,mmHg,,,,3.0,WEEK 2,TREATMENT,2024-03-18,14
GB001-ASTHMA-201,VS,GB001-ASTHMA-201-SITE001-0049,19,HEIGHT,Height,169.4,cm,169.4,169.4,cm,,,,3.0,WEEK 2,TREATMENT,2024-03-18,14
GB001-ASTHMA-201,VS,GB001-ASTHMA-201-SITE001-0049,20,PULSE,Pulse Rate,74.4,beats/min,74.4,74.4,beats/min,,,,3.0,WEEK 2,TREATMENT,2024-03-18,14
GB001-ASTHMA-201,VS,GB001-ASTHMA-201-SITE001-0049,21,RESP,Respiratory Rate,19.3,breaths/min,19.3,19.3,breaths/min,,,,3.0,WEEK 2,TREATMENT,2024-03-18,14
GB001-ASTHMA-201,VS,GB001-ASTHMA-201-SITE001-0049,22,SYSBP,Systolic Blood Pressure,153.7,mmHg,153.7,153.7,mmHg,,,,3.0,WEEK 2,TREATMENT,2024-03-18,14
GB001-ASTHMA-201,VS,GB001-ASTHMA-201-SITE001-0049,23,TEMP,Temperature,36.9,C,36.9,36.9,C,,,,3.0,WEEK 2,TREATMENT,2024-03-18,14
GB001-ASTHMA-201,VS,GB001-ASTHMA-201-SITE001-0049,24,WEIGHT,Weight,82.8,kg,82.8,82.8,kg,,,,3.0,WEEK 2,TREATMENT,2024-03-18,14
GB001-ASTHMA-201,VS,GB001-ASTHMA-201-SITE001-0049,25,BMI,BMI,28.7,kg/m2,28.7,28.7,kg/m2,,,,4.0,WEEK 4,TREATMENT,2024-04-05,32
GB001-ASTHMA-201,VS,GB001-ASTHMA-201-SITE001-0049,26,DIABP,Diastolic Blood Pressure,84.2,mmHg,84.2,84.2,mmHg,,,,4.0,WEEK 4,TREATMENT,2024-04-05,32
GB001-ASTHMA-201,VS,GB001-ASTHMA-201-SITE001-0049,27,HEIGHT,Height,168.7,cm,168.7,168.7,cm,,,,4.0,WEEK 4,TREATMENT,2024-04-05,32
GB001-ASTHMA-201,VS,GB001-ASTHMA-201-SITE001-0049,28,PULSE,Pulse Rate,75.7,beats/min,75.7,75.7,beats/min,,,,4.0,WEEK 4,TREATMENT,2024-04-05,32
GB001-ASTHMA-201,VS,GB001-ASTHMA-201-SITE001-0049,29,RESP,Respiratory Rate,18.7,breaths/min,18.7,18.7,breaths/min,,,,4.0,WEEK 4,TREATMENT,2024-04-05,32
GB001-ASTHMA-201,VS,GB001-ASTHMA-201-SITE001-0049,30,SYSBP,Systolic Blood Pressure,153.0,mmHg,153.0,153.0,mmHg,,,,4.0,WEEK 4,TREATMENT,2024-04-05,32
GB001-ASTHMA-201,VS,GB001-ASTHMA-201-SITE001-0049,31,TEMP,Temperature,37.0,C,37.0,37.0,C,,,,4.0,WEEK 4,TREATMENT,2024-04-05,32
GB001-ASTHMA-201,VS,GB001-ASTHMA-201-SITE001-0049,32,WEIGHT,Weight,81.6,kg,81.6,81.6,kg,,,,4.0,WEEK 4,TREATMENT,2024-04-05,32
GB001-ASTHMA-201,VS,GB001-ASTHMA-201-SITE001-0049,33,BMI,BMI,28.5,kg/m2,28.5,28.5,kg/m2,,,,5.0,WEEK 8,TREATMENT,2024-05-02,59
GB001-ASTHMA-201,VS,GB001-ASTHMA-201-SITE001-0049,34,DIABP,Diastolic Blood Pressure,86.4,mmHg,86.4,86.4,mmHg,,,,5.0,WEEK 8,TREATMENT,2024-05-02,59
GB001-ASTHMA-201,VS,GB001-ASTHMA-201-SITE001-0049,35,HEIGHT,Height,168.2,cm,168.2,168.2,cm,,,,5.0,WEEK 8,TREATMENT,2024-05-02,59
GB001-ASTHMA-201,VS,GB001-ASTHMA-201-SITE001-0049,36,PULSE,Pulse Rate,77.7,beats/min,77.7,77.7,beats/min,,,,5.0,WEEK 8,TREATMENT,2024-05-02,59
GB001-ASTHMA-201,VS,GB001-ASTHMA-201-SITE001-0049,37,RESP,Respiratory Rate,19.2,breaths/min,19.2,19.2,breaths/min,,,,5.0,WEEK 8,TREATMENT,2024-05-02,59
GB001-ASTHMA-201,VS,GB001-ASTHMA-201-SITE001-0049,38,SYSBP,Systolic Blood Pressure,153.5,mmHg,153.5,153.5,mmHg,,,,5.0,WEEK 8,TREATMENT,2024-05-02,59
GB001-ASTHMA-201,VS,GB001-ASTHMA-201-SITE001-0049,39,TEMP,Temperature,37.0,C,37.0,37.0,C,,,,5.0,WEEK 8,TREATMENT,2024-05-02,59
GB001-ASTHMA-201,VS,GB001-ASTHMA-201-SITE001-0049,40,WEIGHT,Weight,80.6,kg,80.6,80.6,kg,,,,5.0,WEEK 8,TREATMENT,2024-05-02,59
GB001-ASTHMA-201,VS,GB001-ASTHMA-201-SITE001-0049,41,BMI,BMI,29.4,kg/m2,29.4,29.4,kg/m2,,,,6.0,WEEK 12,TREATMENT,2024-05-29,86
GB001-ASTHMA-201,VS,GB001-ASTHMA-201-SITE001-0049,42,DIABP,Diastolic Blood Pressure,85.3,mmHg,85.3,85.3,mmHg,,,,6.0,WEEK 12,TREATMENT,2024-05-29,86
GB001-ASTHMA-201,VS,GB001-ASTHMA-201-SITE001-0049,43,HEIGHT,Height,167.1,cm,167.1,167.1,cm,,,,6.0,WEEK 12,TREATMENT,2024-05-29,86
GB001-ASTHMA-201,VS,GB001-ASTHMA-201-SITE001-0049,44,PULSE,Pulse Rate,79.8,beats/min,79.8,79.8,beats/min,,,,6.0,WEEK 12,TREATMENT,2024-05-29,86
GB001-ASTHMA-201,VS,GB001-ASTHMA-201-SITE001-0049,45,RESP,Respiratory Rate,18.1,breaths/min,18.1,18.1,breaths/min,,,,6.0,WEEK 12,TREATMENT,2024-05-29,86
GB001-ASTHMA-201,VS,GB001-ASTHMA-201-SITE001-0049,46,SYSBP,Systolic Blood Pressure,150.9,mmHg,150.9,150.9,mmHg,,,,6.0,WEEK 12,TREATMENT,2024-05-29,86
GB001-ASTHMA-201,VS,GB001-ASTHMA-201-SITE001-0049,47,TEMP,Temperature,37.0,C,37.0,37.0,C,,,,6.0,WEEK 12,TREATMENT,2024-05-29,86
GB001-ASTHMA-201,VS,GB001-ASTHMA-201-SITE001-0049,48,WEIGHT,Weight,82.0,kg,82.0,82.0,kg,,,,6.0,WEEK 12,TREATMENT,2024-05-29,86
GB001-ASTHMA-201,VS,GB001-ASTHMA-201-SITE001-0049,49,BMI,BMI,29.3,kg/m2,29.3,29.3,kg/m2,,,,7.0,FOLLOW-UP,FOLLOW-UP,2024-06-24,112
GB001-ASTHMA-201,VS,GB001-ASTHMA-201-SITE001-0049,50,DIABP,Diastolic Blood Pressure,88.5,mmHg,88.5,88.5,mmHg,,,,7.0,FOLLOW-UP,FOLLOW-UP,2024-06-24,112
GB001-ASTHMA-201,VS,GB001-ASTHMA-201-SITE001-0049,51,HEIGHT,Height,167.1,cm,167.1,167.1,cm,,,,7.0,FOLLOW-UP,FOLLOW-UP,2024-06-24,112
GB001-ASTHMA-201,VS,GB001-ASTHMA-201-SITE001-0049,52,PULSE,Pulse Rate,81.9,beats/min,81.9,81.9,beats/min,,,,7.0,FOLLOW-UP,FOLLOW-UP,2024-06-24,112
GB001-ASTHMA-201,VS,GB001-ASTHMA-201-SITE001-0049,53,RESP,Respiratory Rate,19.5,breaths/min,19.5,19.5,breaths/min,,,,7.0,FOLLOW-UP,FOLLOW-UP,2024-06-24,112
GB001-ASTHMA-201,VS,GB001-ASTHMA-201-SITE001-0049,54,SYSBP,Systolic Blood Pressure,155.3,mmHg,155.3,155.3,mmHg,,,,7.0,FOLLOW-UP,FOLLOW-UP,2024-06-24,112
GB001-ASTHMA-201,VS,GB001-ASTHMA-201-SITE001-0049,55,TEMP,Temperature,37.1,C,37.1,37.1,C,,,,7.0,FOLLOW-UP,FOLLOW-UP,2024-06-24,112
GB001-ASTHMA-201,VS,GB001-ASTHMA-201-SITE001-0049,56,WEIGHT,Weight,81.7,kg,81.7,81.7,kg,,,,7.0,FOLLOW-UP,FOLLOW-UP,2024-06-24,112
GB001-ASTHMA-201,VS,GB001-ASTHMA-201-SITE001-0052,1,BMI,BMI,17.5,kg/m2,17.5,17.5,kg/m2,,,,1.0,SCREENING,SCREENING,2024-02-15,-52
GB001-ASTHMA-201,VS,GB001-ASTHMA-201-SITE001-0052,2,DIABP,Diastolic Blood Pressure,95.2,mmHg,95.2,95.2,mmHg,,,,1.0,SCREENING,SCREENING,2024-02-15,-52
GB001-ASTHMA-201,VS,GB001-ASTHMA-201-SITE001-0052,3,HEIGHT,Height,163.7,cm,163.7,163.7,cm,,,,1.0,SCREENING,SCREENING,2024-02-15,-52
GB001-ASTHMA-201,VS,GB001-ASTHMA-201-SITE001-0052,4,PULSE,Pulse Rate,89.7,beats/min,89.7,89.7,beats/min,,,,1.0,SCREENING,SCREENING,2024-02-15,-52
GB001-ASTHMA-201,VS,GB001-ASTHMA-201-SITE001-0052,5,RESP,Respiratory Rate,17.2,breaths/min,17.2,17.2,breaths/min,,,,1.0,SCREENING,SCREENING,2024-02-15,-52
GB001-ASTHMA-201,VS,GB001-ASTHMA-201-SITE001-0052,6,SYSBP,Systolic Blood Pressure,,,,,,NOT DONE,,,1.0,SCREENING,SCREENING,2024-02-15,-52
GB001-ASTHMA-201,VS,GB001-ASTHMA-201-SITE001-0052,7,TEMP,Temperature,36.6,C,36.6,36.6,C,,,,1.0,SCREENING,SCREENING,2024-02-15,-52
GB001-ASTHMA-201,VS,GB001-ASTHMA-201-SITE001-0052,8,WEIGHT,Weight,46.9,kg,46.9,46.9,kg,,,,1.0,SCREENING,SCREENING,2024-02-15,-52
GB001-ASTHMA-201,VS,GB001-ASTHMA-201-SITE001-0052,9,BMI,BMI,17.2,kg/m2,17.2,17.2,kg/m2,,Y,Y,2.0,BASELINE,TREATMENT,2024-04-07,1
GB001-ASTHMA-201,VS,GB001-ASTHMA-201-SITE001-0052,10,DIABP,Diastolic Blood Pressure,93.3,mmHg,93.3,93.3,mmHg,,Y,Y,2.0,BASELINE,TREATMENT,2024-04-07,1
GB001-ASTHMA-201,VS,GB001-ASTHMA-201-SITE001-0052,11,HEIGHT,Height,162.8,cm,162.8,162.8,cm,,Y,Y,2.0,BASELINE,TREATMENT,2024-04-07,1
GB001-ASTHMA-201,VS,GB001-ASTHMA-201-SITE001-0052,12,PULSE,Pulse Rate,86.7,beats/min,86.7,86.7,beats/min,,Y,Y,2.0,BASELINE,TREATMENT,2024-04-07,1
GB001-ASTHMA-201,VS,GB001-ASTHMA-201-SITE001-0052,13,RESP,Respiratory Rate,17.0,breaths/min,17.0,17.0,breaths/min,,Y,Y,2.0,BASELINE,TREATMENT,2024-04-07,1
GB001-ASTHMA-201,VS,GB001-ASTHMA-201-SITE001-0052,14,SYSBP,Systolic Blood Pressure,116.2,mmHg,116.2,116.2,mmHg,,Y,Y,2.0,BASELINE,TREATMENT,2024-04-07,1
GB001-ASTHMA-201,VS,GB001-ASTHMA-201-SITE001-0052,15,TEMP,Temperature,36.7,C,36.7,36.7,C,,Y,Y,2.0,BASELINE,TREATMENT,2024-04-07,1
GB001-ASTHMA-201,VS,GB001-ASTHMA-201-SITE001-0052,16,WEIGHT,Weight,45.7,kg,45.7,45.7,kg,,Y,Y,2.0,BASELINE,TREATMENT,2024-04-07,1
GB001-ASTHMA-201,VS,GB001-ASTHMA-201-SITE001-0052,17,BMI,BMI,17.8,kg/m2,17.8,17.8,kg/m2,,,,3.0,WEEK 2,TREATMENT,2024-04-21,15
GB001-ASTHMA-201,VS,GB001-ASTHMA-201-SITE001-0052,18,DIABP,Diastolic Blood Pressure,92.2,mmHg,92.2,92.2,mmHg,,,,3.0,WEEK 2,TREATMENT,2024-04-21,15
GB001-ASTHMA-201,VS,GB001-ASTHMA-201-SITE001-0052,19,HEIGHT,Height,163.0,cm,163.0,163.0,cm,,,,3.0,WEEK 2,TREATMENT,2024-04-21,15
GB001-ASTHMA-201,VS,GB001-ASTHMA-201-SITE001-0052,20,PULSE,Pulse Rate,,,,,,NOT DONE,,,3.0,WEEK 2,TREATMENT,2024-04-21,15
GB001-ASTHMA-201,VS,GB001-ASTHMA-201-SITE001-0052,21,RESP,Respiratory Rate,17.2,breaths/min,17.2,17.2,breaths/min,,,,3.0,WEEK 2,TREATMENT,2024-04-21,15
GB001-ASTHMA-201,VS,GB001-ASTHMA-201-SITE001-0052,22,SYSBP,Systolic Blood Pressure,112.6,mmHg,112.6,112.6,mmHg,,,,3.0,WEEK 2,TREATMENT,2024-04-21,15
GB001-ASTHMA-201,VS,GB001-ASTHMA-201-SITE001-0052,23,TEMP,Temperature,36.8,C,36.8,36.8,C,,,,3.0,WEEK 2,TREATMENT,2024-04-21,15
GB001-ASTHMA-201,VS,GB001-ASTHMA-201-SITE001-0052,24,WEIGHT,Weight,47.2,kg,47.2,47.2,kg,,,,3.0,WEEK 2,TREATMENT,2024-04-21,15
GB001-ASTHMA-201,VS,GB001-ASTHMA-201-SITE001-0052,25,BMI,BMI,16.8,kg/m2,16.8,16.8,kg/m2,,,,4.0,WEEK 4,TREATMENT,2024-05-02,26
GB001-ASTHMA-201,VS,GB001-ASTHMA-201-SITE001-0052,26,DIABP,Diastolic Blood Pressure,92.8,mmHg,92.8,92.8,mmHg,,,,4.0,WEEK 4,TREATMENT,2024-05-02,26
GB001-ASTHMA-201,VS,GB001-ASTHMA-201-SITE001-0052,27,HEIGHT,Height,162.8,cm,162.8,162.8,cm,,,,4.0,WEEK 4,TREATMENT,2024-05-02,26
GB001-ASTHMA-201,VS,GB001-ASTHMA-201-SITE001-0052,28,PULSE,Pulse Rate,85.5,beats/min,85.5,85.5,beats/min,,,,4.0,WEEK 4,TREATMENT,2024-05-02,26
GB001-ASTHMA-201,VS,GB001-ASTHMA-201-SITE001-0052,29,RESP,Respiratory Rate,16.6,breaths/min,16.6,16.6,breaths/min,,,,4.0,WEEK 4,TREATMENT,2024-05-02,26
GB001-ASTHMA-201,VS,GB001-ASTHMA-201-SITE001-0052,30,SYSBP,Systolic Blood Pressure,113.0,mmHg,113.0,113.0,mmHg,,,,4.0,WEEK 4,TREATMENT,2024-05-02,26
GB001-ASTHMA-201,VS,GB001-ASTHMA-201-SITE001-0052,31,TEMP,Temperature,36.9,C,36.9,36.9,C,,,,4.0,WEEK 4,TREATMENT,2024-05-02,26
GB001-ASTHMA-201,VS,GB001-ASTHMA-201-SITE001-0052,32,WEIGHT,Weight,44.4,kg,44.4,44.4,kg,,,,4.0,WEEK 4,TREATMENT,2024-05-02,26
GB001-ASTHMA-201,VS,GB001-ASTHMA-201-SITE001-0052,33,BMI,BMI,17.0,kg/m2,17.0,17.0,kg/m2,,,,5.0,WEEK 8,TREATMENT,2024-05-31,55
GB001-ASTHMA-201,VS,GB001-ASTHMA-201-SITE001-0052,34,DIABP,Diastolic Blood Pressure,95.3,mmHg,95.3,95.3,mmHg,,,,5.0,WEEK 8,TREATMENT,2024-05-31,55
GB001-ASTHMA-201,VS,GB001-ASTHMA-201-SITE001-0052,35,HEIGHT,Height,163.3,cm,163.3,163.3,cm,,,,5.0,WEEK 8,TREATMENT,2024-05-31,55
GB001-ASTHMA-201,VS,GB001-ASTHMA-201-SITE001-0052,36,PULSE,Pulse Rate,84.8,beats/min,84.8,84.8,beats/min,,,,5.0,WEEK 8,TREATMENT,2024-05-31,55
GB001-ASTHMA-201,VS,GB001-ASTHMA-201-SITE001-0052,37,RESP,Respiratory Rate,16.0,breaths/min,16.0,16.0,breaths/min,,,,5.0,WEEK 8,TREATMENT,2024-05-31,55
GB001-ASTHMA-201,VS,GB001-ASTHMA-201-SITE001-0052,38,SYSBP,Systolic Blood Pressure,114.1,mmHg,114.1,114.1,mmHg,,,,5.0,WEEK 8,TREATMENT,2024-05-31,55
GB001-ASTHMA-201,VS,GB001-ASTHMA-201-SITE001-0052,39,TEMP,Temperature,36.8,C,36.8,36.8,C,,,,5.0,WEEK 8,TREATMENT,2024-05-31,55
GB001-ASTHMA-201,VS,GB001-ASTHMA-201-SITE001-0052,40,WEIGHT,Weight,45.3,kg,45.3,45.3,kg,,,,5.0,WEEK 8,TREATMENT,2024-05-31,55
GB001-ASTHMA-201,VS,GB001-ASTHMA-201-SITE001-0052,41,BMI,BMI,17.1,kg/m2,17.1,17.1,kg/m2,,,,7.0,FOLLOW-UP,FOLLOW-UP,2024-08-04,120
GB001-ASTHMA-201,VS,GB001-ASTHMA-201-SITE001-0052,42,DIABP,Diastolic Blood Pressure,94.4,mmHg,94.4,94.4,mmHg,,,,7.0,FOLLOW-UP,FOLLOW-UP,2024-08-04,120
GB001-ASTHMA-201,VS,GB001-ASTHMA-201-SITE001-0052,43,HEIGHT,Height,162.4,cm,162.4,162.4,cm,,,,7.0,FOLLOW-UP,FOLLOW-UP,2024-08-04,120
GB001-ASTHMA-201,VS,GB001-ASTHMA-201-SITE001-0052,44,PULSE,Pulse Rate,88.2,beats/min,88.2,88.2,beats/min,,,,7.0,FOLLOW-UP,FOLLOW-UP,2024-08-04,120
GB001-ASTHMA-201,VS,GB001-ASTHMA-201-SITE001-0052,45,RESP,Respiratory Rate,16.4,breaths/min,16.4,16.4,breaths/min,,,,7.0,FOLLOW-UP,FOLLOW-UP,2024-08-04,120
GB001-ASTHMA-201,VS,GB001-ASTHMA-201-SITE001-0052,46,SYSBP,Systolic Blood Pressure,115.5,mmHg,115.5,115.5,mmHg,,,,7.0,FOLLOW-UP,FOLLOW-UP,2024-08-04,120
GB001-ASTHMA-201,VS,GB001-ASTHMA-201-SITE001-0052,47,TEMP,Temperature,36.6,C,36.6,36.6,C,,,,7.0,FOLLOW-UP,FOLLOW-UP,2024-08-04,120
GB001-ASTHMA-201,VS,GB001-ASTHMA-201-SITE001-0052,48,WEIGHT,Weight,45.0,kg,45.0,45.0,kg,,,,7.0,FOLLOW-UP,FOLLOW-UP,2024-08-04,120
GB001-ASTHMA-201,VS,GB001-ASTHMA-201-SITE001-0055,1,BMI,BMI,36.7,kg/m2,36.7,36.7,kg/m2,,,,1.0,SCREENING,SCREENING,2024-03-10,-42
GB001-ASTHMA-201,VS,GB001-ASTHMA-201-SITE001-0055,2,DIABP,Diastolic Blood Pressure,73.8,mmHg,73.8,73.8,mmHg,,,,1.0,SCREENING,SCREENING,2024-03-10,-42
GB001-ASTHMA-201,VS,GB001-ASTHMA-201-SITE001-0055,3,HEIGHT,Height,145.9,cm,145.9,145.9,cm,,,,1.0,SCREENING,SCREENING,2024-03-10,-42
GB001-ASTHMA-201,VS,GB001-ASTHMA-201-SITE001-0055,4,PULSE,Pulse Rate,82.8,beats/min,82.8,82.8,beats/min,,,,1.0,SCREENING,SCREENING,2024-03-10,-42
GB001-ASTHMA-201,VS,GB001-ASTHMA-201-SITE001-0055,5,RESP,Respiratory Rate,13.0,breaths/min,13.0,13.0,breaths/min,,,,1.0,SCREENING,SCREENING,2024-03-10,-42
GB001-ASTHMA-201,VS,GB001-ASTHMA-201-SITE001-0055,6,SYSBP,Systolic Blood Pressure,131.2,mmHg,131.2,131.2,mmHg,,,,1.0,SCREENING,SCREENING,2024-03-10,-42
GB001-ASTHMA-201,VS,GB001-ASTHMA-201-SITE001-0055,7,TEMP,Temperature,36.6,C,36.6,36.6,C,,Y,Y,1.0,SCREENING,SCREENING,2024-03-10,-42
GB001-ASTHMA-201,VS,GB001-ASTHMA-201-SITE001-0055,8,WEIGHT,Weight,78.1,kg,78.1,78.1,kg,,,,1.0,SCREENING,SCREENING,2024-03-10,-42
GB001-ASTHMA-201,VS,GB001-ASTHMA-201-SITE001-0055,9,BMI,BMI,38.4,kg/m2,38.4,38.4,kg/m2,,Y,Y,2.0,BASELINE,TREATMENT,2024-04-21,1
GB001-ASTHMA-201,VS,GB001-ASTHMA-201-SITE001-0055,10,DIABP,Diastolic Blood Pressure,76.0,mmHg,76.0,76.0,mmHg,,Y,Y,2.0,BASELINE,TREATMENT,2024-04-21,1
GB001-ASTHMA-201,VS,GB001-ASTHMA-201-SITE001-0055,11,HEIGHT,Height,145.4,cm,145.4,145.4,cm,,Y,Y,2.0,BASELINE,TREATMENT,2024-04-21,1
GB001-ASTHMA-201,VS,GB001-ASTHMA-201-SITE001-0055,12,PULSE,Pulse Rate,82.0,beats/min,82.0,82.0,beats/min,,Y,Y,2.0,BASELINE,TREATMENT,2024-04-21,1
GB001-ASTHMA-201,VS,GB001-ASTHMA-201-SITE001-0055,13,RESP,Respiratory Rate,13.6,breaths/min,13.6,13.6,breaths/min,,Y,Y,2.0,BASELINE,TREATMENT,2024-04-21,1
GB001-ASTHMA-201,VS,GB001-ASTHMA-201-SITE001-0055,14,SYSBP,Systolic Blood Pressure,133.2,mmHg,133.2,133.2,mmHg,,Y,Y,2.0,BASELINE,TREATMENT,2024-04-21,1
GB001-ASTHMA-201,VS,GB001-ASTHMA-201-SITE001-0055,15,TEMP,Temperature,,,,,,NOT DONE,,,2.0,BASELINE,TREATMENT,2024-04-21,1
GB001-ASTHMA-201,VS,GB001-ASTHMA-201-SITE001-0055,16,WEIGHT,Weight,81.2,kg,81.2,81.2,kg,,Y,Y,2.0,BASELINE,TREATMENT,2024-04-21,1
GB001-ASTHMA-201,VS,GB001-ASTHMA-201-SITE001-0055,17,BMI,BMI,38.1,kg/m2,38.1,38.1,kg/m2,,,,3.0,WEEK 2,TREATMENT,2024-05-08,18
GB001-ASTHMA-201,VS,GB001-ASTHMA-201-SITE001-0055,18,DIABP,Diastolic Blood Pressure,75.2,mmHg,75.2,75.2,mmHg,,,,3.0,WEEK 2,TREATMENT,2024-05-08,18
GB001-ASTHMA-201,VS,GB001-ASTHMA-201-SITE001-0055,19,HEIGHT,Height,145.0,cm,145.0,145.0,cm,,,,3.0,WEEK 2,TREATMENT,2024-05-08,18
GB001-ASTHMA-201,VS,GB001-ASTHMA-201-SITE001-0055,20,PULSE,Pulse Rate,76.7,beats/min,76.7,76.7,beats/min,,,,3.0,WEEK 2,TREATMENT,2024-05-08,18
GB001-ASTHMA-201,VS,GB001-ASTHMA-201-SITE001-0055,21,RESP,Respiratory Rate,12.0,breaths/min,12.0,12.0,breaths/min,,,,3.0,WEEK 2,TREATMENT,2024-05-08,18
GB001-ASTHMA-201,VS,GB001-ASTHMA-201-SITE001-0055,22,SYSBP,Systolic Blood Pressure,130.8,mmHg,130.8,130.8,mmHg,,,,3.0,WEEK 2,TREATMENT,2024-05-08,18
GB001-ASTHMA-201,VS,GB001-ASTHMA-201-SITE001-0055,23,TEMP,Temperature,36.3,C,36.3,36.3,C,,,,3.0,WEEK 2,TREATMENT,2024-05-08,18
GB001-ASTHMA-201,VS,GB001-ASTHMA-201-SITE001-0055,24,WEIGHT,Weight,80.1,kg,80.1,80.1,kg,,,,3.0,WEEK 2,TREATMENT,2024-05-08,18
GB001-ASTHMA-201,VS,GB001-ASTHMA-201-SITE001-0055,25,BMI,BMI,37.4,kg/m2,37.4,37.4,kg/m2,,,,4.0,WEEK 4,TREATMENT,2024-05-17,27
GB001-ASTHMA-201,VS,GB001-ASTHMA-201-SITE001-0055,26,DIABP,Diastolic Blood Pressure,73.2,mmHg,73.2,73.2,mmHg,,,,4.0,WEEK 4,TREATMENT,2024-05-17,27
GB001-ASTHMA-201,VS,GB001-ASTHMA-201-SITE001-0055,27,HEIGHT,Height,145.0,cm,145.0,145.0,cm,,,,4.0,WEEK 4,TREATMENT,2024-05-17,27
GB001-ASTHMA-201,VS,GB001-ASTHMA-201-SITE001-0055,28,PULSE,Pulse Rate,81.5,beats/min,81.5,81.5,beats/min,,,,4.0,WEEK 4,TREATMENT,2024-05-17,27
GB001-ASTHMA-201,VS,GB001-ASTHMA-201-SITE001-0055,29,RESP,Respiratory Rate,12.4,breaths/min,12.4,12.4,breaths/min,,,,4.0,WEEK 4,TREATMENT,2024-05-17,27
GB001-ASTHMA-201,VS,GB001-ASTHMA-201-SITE001-0055,30,SYSBP,Systolic Blood Pressure,124.9,mmHg,124.9,124.9,mmHg,,,,4.0,WEEK 4,TREATMENT,2024-05-17,27
GB001-ASTHMA-201,VS,GB001-ASTHMA-201-SITE001-0055,31,TEMP,Temperature,36.5,C,36.5,36.5,C,,,,4.0,WEEK 4,TREATMENT,2024-05-17,27
GB001-ASTHMA-201,VS,GB001-ASTHMA-201-SITE001-0055,32,WEIGHT,Weight,78.6,kg,78.6,78.6,kg,,,,4.0,WEEK 4,TREATMENT,2024-05-17,27
GB001-ASTHMA-201,VS,GB001-ASTHMA-201-SITE001-0055,33,BMI,BMI,37.2,kg/m2,37.2,37.2,kg/m2,,,,5.0,WEEK 8,TREATMENT,2024-06-14,55
GB001-ASTHMA-201,VS,GB001-ASTHMA-201-SITE001-0055,34,DIABP,Diastolic Blood Pressure,73.0,mmHg,73.0,73.0,mmHg,,,,5.0,WEEK 8,TREATMENT,2024-06-14,55
GB001-ASTHMA-201,VS,GB001-ASTHMA-201-SITE001-0055,35,HEIGHT,Height,145.1,cm,145.1,145.1,cm,,,,5.0,WEEK 8,TREATMENT,2024-06-14,55
GB001-ASTHMA-201,VS,GB001-ASTHMA-201-SITE001-0055,36,PULSE,Pulse Rate,82.8,beats/min,82.8,82.8,beats/min,,,,5.0,WEEK 8,TREATMENT,2024-06-14,55
GB001-ASTHMA-201,VS,GB001-ASTHMA-201-SITE001-0055,37,RESP,Respiratory Rate,11.6,breaths/min,11.6,11.6,breaths/min,,,,5.0,WEEK 8,TREATMENT,2024-06-14,55
GB001-ASTHMA-201,VS,GB001-ASTHMA-201-SITE001-0055,38,SYSBP,Systolic Blood Pressure,125.2,mmHg,125.2,125.2,mmHg,,,,5.0,WEEK 8,TREATMENT,2024-06-14,55
GB001-ASTHMA-201,VS,GB001-ASTHMA-201-SITE001-0055,39,TEMP,Temperature,,,,,,NOT DONE,,,5.0,WEEK 8,TREATMENT,2024-06-14,55
GB001-ASTHMA-201,VS,GB001-ASTHMA-201-SITE001-0055,40,WEIGHT,Weight,78.4,kg,78.4,78.4,kg,,,,5.0,WEEK 8,TREATMENT,2024-06-14,55
GB001-ASTHMA-201,VS,GB001-ASTHMA-201-SITE001-0055,41,BMI,BMI,36.4,kg/m2,36.4,36.4,kg/m2,,,,6.0,WEEK 12,TREATMENT,2024-07-16,87
GB001-ASTHMA-201,VS,GB001-ASTHMA-201-SITE001-0055,42,DIABP,Diastolic Blood Pressure,72.4,mmHg,72.4,72.4,mmHg,,,,6.0,WEEK 12,TREATMENT,2024-07-16,87
GB001-ASTHMA-201,VS,GB001-ASTHMA-201-SITE001-0055,43,HEIGHT,Height,144.7,cm,144.7,144.7,cm,,,,6.0,WEEK 12,TREATMENT,2024-07-16,87
GB001-ASTHMA-201,VS,GB001-ASTHMA-201-SITE001-0055,44,PULSE,Pulse Rate,87.1,beats/min,87.1,87.1,beats/min,,,,6.0,WEEK 12,TREATMENT,2024-07-16,87
GB001-ASTHMA-201,VS,GB001-ASTHMA-201-SITE001-0055,45,RESP,Respiratory Rate,12.8,breaths/min,12.8,12.8,breaths/min,,,,6.0,WEEK 12,TREATMENT,2024-07-16,87
GB001-ASTHMA-201,VS,GB001-ASTHMA-201-SITE001-0055,46,SYSBP,Systolic Blood Pressure,124.8,mmHg,124.8,124.8,mmHg,,,,6.0,WEEK 12,TREATMENT,2024-07-16,87
GB001-ASTHMA-201,VS,GB001-ASTHMA-201-SITE001-0055,47,TEMP,Temperature,36.5,C,36.5,36.5,C,,,,6.0,WEEK 12,TREATMENT,2024-07-16,87
GB001-ASTHMA-201,VS,GB001-ASTHMA-201-SITE001-0055,48,WEIGHT,Weight,76.3,kg,76.3,76.3,kg,,,,6.0,WEEK 12,TREATMENT,2024-07-16,87
GB001-ASTHMA-201,VS,GB001-ASTHMA-201-SITE001-0055,49,BMI,BMI,36.4,kg/m2,36.4,36.4,kg/m2,,,,7.0,FOLLOW-UP,FOLLOW-UP,2024-08-05,107
GB001-ASTHMA-201,VS,GB001-ASTHMA-201-SITE001-0055,50,DIABP,Diastolic Blood Pressure,72.8,mmHg,72.8,72.8,mmHg,,,,7.0,FOLLOW-UP,FOLLOW-UP,2024-08-05,107
GB001-ASTHMA-201,VS,GB001-ASTHMA-201-SITE001-0055,51,HEIGHT,Height,144.9,cm,144.9,144.9,cm,,,,7.0,FOLLOW-UP,FOLLOW-UP,2024-08-05,107
GB001-ASTHMA-201,VS,GB001-ASTHMA-201-SITE001-0055,52,PULSE,Pulse Rate,84.9,beats/min,84.9,84.9,beats/min,,,,7.0,FOLLOW-UP,FOLLOW-UP,2024-08-05,107
GB001-ASTHMA-201,VS,GB001-ASTHMA-201-SITE001-0055,53,RESP,Respiratory Rate,13.7,breaths/min,13.7,13.7,breaths/min,,,,7.0,FOLLOW-UP,FOLLOW-UP,2024-08-05,107
GB001-ASTHMA-201,VS,GB001-ASTHMA-201-SITE001-0055,54,SYSBP,Systolic Blood Pressure,125.1,mmHg,125.1,125.1,mmHg,,,,7.0,FOLLOW-UP,FOLLOW-UP,2024-08-05,107
GB001-ASTHMA-201,VS,GB001-ASTHMA-201-SITE001-0055,55,TEMP,Temperature,36.4,C,36.4,36.4,C,,,,7.0,FOLLOW-UP,FOLLOW-UP,2024-08-05,107
GB001-ASTHMA-201,VS,GB001-ASTHMA-201-SITE001-0055,56,WEIGHT,Weight,76.4,kg,76.4,76.4,kg,,,,7.0,FOLLOW-UP,FOLLOW-UP,2024-08-05,107
GB001-ASTHMA-201,VS,GB001-ASTHMA-201-SITE001-0058,1,BMI,BMI,23.7,kg/m2,23.7,23.7,kg/m2,,,,1.0,SCREENING,SCREENING,2024-01-04,-49
GB001-ASTHMA-201,VS,GB001-ASTHMA-201-SITE001-0058,2,DIABP,Diastolic Blood Pressure,75.3,mmHg,75.3,75.3,mmHg,,,,1.0,SCREENING,SCREENING,2024-01-04,-49
GB001-ASTHMA-201,VS,GB001-ASTHMA-201-SITE001-0058,3,HEIGHT,Height,172.9,cm,172.9,172.9,cm,,,,1.0,SCREENING,SCREENING,2024-01-04,-49
GB001-ASTHMA-201,VS,GB001-ASTHMA-201-SITE001-0058,4,PULSE,Pulse Rate,82.1,beats/min,82.1,82.1,beats/min,,,,1.0,SCREENING,SCREENING,2024-01-04,-49
GB001-ASTHMA-201,VS,GB001-ASTHMA-201-SITE001-0058,5,RESP,Respiratory Rate,17.3,breaths/min,17.3,17.3,breaths/min,,,,1.0,SCREENING,SCREENING,2024-01-04,-49
GB001-ASTHMA-201,VS,GB001-ASTHMA-201-SITE001-0058,6,SYSBP,Systolic Blood Pressure,96.9,mmHg,96.9,96.9,mmHg,,,,1.0,SCREENING,SCREENING,2024-01-04,-49
GB001-ASTHMA-201,VS,GB001-ASTHMA-201-SITE001-0058,7,TEMP,Temperature,37.1,C,37.1,37.1,C,,,,1.0,SCREENING,SCREENING,2024-01-04,-49
GB001-ASTHMA-201,VS,GB001-ASTHMA-201-SITE001-0058,8,WEIGHT,Weight,70.9,kg,70.9,70.9,kg,,,,1.0,SCREENING,SCREENING,2024-01-04,-49
GB001-ASTHMA-201,VS,GB001-ASTHMA-201-SITE001-0058,9,BMI,BMI,23.6,kg/m2,23.6,23.6,kg/m2,,Y,Y,2.0,BASELINE,TREATMENT,2024-02-22,1
GB001-ASTHMA-201,VS,GB001-ASTHMA-201-SITE001-0058,10,DIABP,Diastolic Blood Pressure,76.0,mmHg,76.0,76.0,mmHg,,Y,Y,2.0,BASELINE,TREATMENT,2024-02-22,1
GB001-ASTHMA-201,VS,GB001-ASTHMA-201-SITE001-0058,11,HEIGHT,Height,173.0,cm,173.0,173.0,cm,,Y,Y,2.0,BASELINE,TREATMENT,2024-02-22,1
GB001-ASTHMA-201,VS,GB001-ASTHMA-201-SITE001-0058,12,PULSE,Pulse Rate,81.9,beats/min,81.9,81.9,beats/min,,Y,Y,2.0,BASELINE,TREATMENT,2024-02-22,1
GB001-ASTHMA-201,VS,GB001-ASTHMA-201-SITE001-0058,13,RESP,Respiratory Rate,19.2,breaths/min,19.2,19.2,breaths/min,,Y,Y,2.0,BASELINE,TREATMENT,2024-02-22,1
GB001-ASTHMA-201,VS,GB001-ASTHMA-201-SITE001-0058,14,SYSBP,Systolic Blood Pressure,99.9,mmHg,99.9,99.9,mmHg,,Y,Y,2.0,BASELINE,TREATMENT,2024-02-22,1
GB001-ASTHMA-201,VS,GB001-ASTHMA-201-SITE001-0058,15,TEMP,Temperature,37.3,C,37.3,37.3,C,,Y,Y,2.0,BASELINE,TREATMENT,2024-02-22,1
GB001-ASTHMA-201,VS,GB001-ASTHMA-201-SITE001-0058,16,WEIGHT,Weight,70.5,kg,70.5,70.5,kg,,Y,Y,2.0,BASELINE,TREATMENT,2024-02-22,1
GB001-ASTHMA-201,VS,GB001-ASTHMA-201-SITE001-0058,17,BMI,BMI,23.4,kg/m2,23.4,23.4,kg/m2,,,,3.0,WEEK 2,TREATMENT,2024-03-06,14
GB001-ASTHMA-201,VS,GB001-ASTHMA-201-SITE001-0058,18,DIABP,Diastolic Blood Pressure,72.0,mmHg,72.0,72.0,mmHg,,,,3.0,WEEK 2,TREATMENT,2024-03-06,14
GB001-ASTHMA-201,VS,GB001-ASTHMA-201-SITE001-0058,19,HEIGHT,Height,172.5,cm,172.5,172.5,cm,,,,3.0,WEEK 2,TREATMENT,2024-03-06,14
GB001-ASTHMA-201,VS,GB001-ASTHMA-201-SITE001-0058,20,PULSE,Pulse Rate,83.3,beats/min,83.3,83.3,beats/min,,,,3.0,WEEK 2,TREATMENT,2024-03-06,14
GB001-ASTHMA-201,VS,GB001-ASTHMA-201-SITE001-0058,21,RESP,Respiratory Rate,19.3,breaths/min,19.3,19.3,breaths/min,,,,3.0,WEEK 2,TREATMENT,2024-03-06,14
GB001-ASTHMA-201,VS,GB001-ASTHMA-201-SITE001-0058,22,SYSBP,Systolic Blood Pressure,94.7,mmHg,94.7,94.7,mmHg,,,,3.0,WEEK 2,TREATMENT,2024-03-06,14
GB001-ASTHMA-201,VS,GB001-ASTHMA-201-SITE001-0058,23,TEMP,Temperature,37.3,C,37.3,37.3,C,,,,3.0,WEEK 2,TREATMENT,2024-03-06,14
GB001-ASTHMA-201,VS,GB001-ASTHMA-201-SITE001-0058,24,WEIGHT,Weight,69.7,kg,69.7,69.7,kg,,,,3.0,WEEK 2,TREATMENT,2024-03-06,14
GB001-ASTHMA-201,VS,GB001-ASTHMA-201-SITE001-0058,25,BMI,BMI,24.6,kg/m2,24.6,24.6,kg/m2,,,,4.0,WEEK 4,TREATMENT,2024-03-21,29
GB001-ASTHMA-201,VS,GB001-ASTHMA-201-SITE001-0058,26,DIABP,Diastolic Blood Pressure,74.7,mmHg,74.7,74.7,mmHg,,,,4.0,WEEK 4,TREATMENT,2024-03-21,29
GB001-ASTHMA-201,VS,GB001-ASTHMA-201-SITE001-0058,27,HEIGHT,Height,172.4,cm,172.4,172.4,cm,,,,4.0,WEEK 4,TREATMENT,2024-03-21,29
GB001-ASTHMA-201,VS,GB001-ASTHMA-201-SITE001-0058,28,PULSE,Pulse Rate,81.7,beats/min,81.7,81.7,beats/min,,,,4.0,WEEK 4,TREATMENT,2024-03-21,29
GB001-ASTHMA-201,VS,GB001-ASTHMA-201-SITE001-0058,29,RESP,Respiratory Rate,18.4,breaths/min,18.4,18.4,breaths/min,,,,4.0,WEEK 4,TREATMENT,2024-03-21,29
GB001-ASTHMA-201,VS,GB001-ASTHMA-201-SITE001-0058,30,SYSBP,Systolic Blood Pressure,96.8,mmHg,96.8,96.8,mmHg,,,,4.0,WEEK 4,TREATMENT,2024-03-21,29
GB001-ASTHMA-201,VS,GB001-ASTHMA-201-SITE001-0058,31,TEMP,Temperature,37.3,C,37.3,37.3,C,,,,4.0,WEEK 4,TREATMENT,2024-03-21,29
GB001-ASTHMA-201,VS,GB001-ASTHMA-201-SITE001-0058,32,WEIGHT,Weight,73.1,kg,73.1,73.1,kg,,,,4.0,WEEK 4,TREATMENT,2024-03-21,29
GB001-ASTHMA-201,VS,GB001-ASTHMA-201-SITE001-0058,33,BMI,BMI,24.5,kg/m2,24.5,24.5,kg/m2,,,,5.0,WEEK 8,TREATMENT,2024-04-19,58
GB001-ASTHMA-201,VS,GB001-ASTHMA-201-SITE001-0058,34,DIABP,Diastolic Blood Pressure,72.8,mmHg,72.8,72.8,mmHg,,,,5.0,WEEK 8,TREATMENT,2024-04-19,58
GB001-ASTHMA-201,VS,GB001-ASTHMA-201-SITE001-0058,35,HEIGHT,Height,171.7,cm,171.7,171.7,cm,,,,5.0,WEEK 8,TREATMENT,2024-04-19,58
GB001-ASTHMA-201,VS,GB001-ASTHMA-201-SITE001-0058,36,PULSE,Pulse Rate,74.5,beats/min,74.5,74.5,beats/min,,,,5.0,WEEK 8,TREATMENT,2024-04-19,58
GB001-ASTHMA-201,VS,GB001-ASTHMA-201-SITE001-0058,37,RESP,Respiratory Rate,17.6,breaths/min,17.6,17.6,breaths/min,,,,5.0,WEEK 8,TREATMENT,2024-04-19,58
GB001-ASTHMA-201,VS,GB001-ASTHMA-201-SITE001-0058,38,SYSBP,Systolic Blood Pressure,95.9,mmHg,95.9,95.9,mmHg,,,,5.0,WEEK 8,TREATMENT,2024-04-19,58
GB001-ASTHMA-201,VS,GB001-ASTHMA-201-SITE001-0058,39,TEMP,Temperature,37.2,C,37.2,37.2,C,,,,5.0,WEEK 8,TREATMENT,2024-04-19,58
GB001-ASTHMA-201,VS,GB001-ASTHMA-201-SITE001-0058,40,WEIGHT,Weight,72.3,kg,72.3,72.3,kg,,,,5.0,WEEK 8,TREATMENT,2024-04-19,58
GB001-ASTHMA-201,VS,GB001-ASTHMA-201-SITE001-0061,1,BMI,BMI,13.3,kg/m2,13.3,13.3,kg/m2,,,,1.0,SCREENING,SCREENING,2024-03-14,-43
GB001-ASTHMA-201,VS,GB001-ASTHMA-201-SITE001-0061,2,DIABP,Diastolic Blood Pressure,79.4,mmHg,79.4,79.4,mmHg,,,,1.0,SCREENING,SCREENING,2024-03-14,-43
GB001-ASTHMA-201,VS,GB001-ASTHMA-201-SITE001-0061,3,HEIGHT,Height,183.8,cm,183.8,183.8,cm,,,,1.0,SCREENING,SCREENING,2024-03-14,-43
GB001-ASTHMA-201,VS,GB001-ASTHMA-201-SITE001-0061,4,PULSE,Pulse Rate,78.9,beats/min,78.9,78.9,beats/min,,,,1.0,SCREENING,SCREENING,2024-03-14,-43
GB001-ASTHMA-201,VS,GB001-ASTHMA-201-SITE001-0061,5,RESP,Respiratory Rate,15.3,breaths/min,15.3,15.3,breaths/min,,Y,Y,1.0,SCREENING,SCREENING,2024-03-14,-43
GB001-ASTHMA-201,VS,GB001-ASTHMA-201-SITE001-0061,6,SYSBP,Systolic Blood Pressure,132.4,mmHg,132.4,132.4,mmHg,,,,1.0,SCREENING,SCREENING,2024-03-14,-43
GB001-ASTHMA-201,VS,GB001-ASTHMA-201-SITE001-0061,7,TEMP,Temperature,36.9,C,36.9,36.9,C,,,,1.0,SCREENING,SCREENING,2024-03-14,-43
GB001-ASTHMA-201,VS,GB001-ASTHMA-201-SITE001-0061,8,WEIGHT,Weight,44.8,kg,44.8,44.8,kg,,,,1.0,SCREENING,SCREENING,2024-03-14,-43
GB001-ASTHMA-201,VS,GB001-ASTHMA-201-SITE001-0061,9,BMI,BMI,12.8,kg/m2,12.8,12.8,kg/m2,,Y,Y,2.0,BASELINE,TREATMENT,2024-04-26,1
GB001-ASTHMA-201,VS,GB001-ASTHMA-201-SITE001-0061,10,DIABP,Diastolic Blood Pressure,80.4,mmHg,80.4,80.4,mmHg,,Y,Y,2.0,BASELINE,TREATMENT,2024-04-26,1
GB001-ASTHMA-201,VS,GB001-ASTHMA-201-SITE001-0061,11,HEIGHT,Height,183.9,cm,183.9,183.9,cm,,Y,Y,2.0,BASELINE,TREATMENT,2024-04-26,1
GB001-ASTHMA-201,VS,GB001-ASTHMA-201-SITE001-0061,12,PULSE,Pulse Rate,76.8,beats/min,76.8,76.8,beats/min,,Y,Y,2.0,BASELINE,TREATMENT,2024-04-26,1
GB001-ASTHMA-201,VS,GB001-ASTHMA-201-SITE001-0061,13,RESP,Respiratory Rate,,,,,,NOT DONE,,,2.0,BASELINE,TREATMENT,2024-04-26,1
GB001-ASTHMA-201,VS,GB001-ASTHMA-201-SITE001-0061,14,SYSBP,Systolic Blood Pressure,133.9,mmHg,133.9,133.9,mmHg,,Y,Y,2.0,BASELINE,TREATMENT,2024-04-26,1
GB001-ASTHMA-201,VS,GB001-ASTHMA-201-SITE001-0061,15,TEMP,Temperature,37.0,C,37.0,37.0,C,,Y,Y,2.0,BASELINE,TREATMENT,2024-04-26,1
GB001-ASTHMA-201,VS,GB001-ASTHMA-201-SITE001-0061,16,WEIGHT,Weight,43.3,kg,43.3,43.3,kg,,Y,Y,2.0,BASELINE,TREATMENT,2024-04-26,1
GB001-ASTHMA-201,VS,GB001-ASTHMA-201-SITE001-0061,17,BMI,BMI,13.2,kg/m2,13.2,13.2,kg/m2,,,,3.0,WEEK 2,TREATMENT,2024-05-13,18
GB001-ASTHMA-201,VS,GB001-ASTHMA-201-SITE001-0061,18,DIABP,Diastolic Blood Pressure,81.7,mmHg,81.7,81.7,mmHg,,,,3.0,WEEK 2,TREATMENT,2024-05-13,18
GB001-ASTHMA-201,VS,GB001-ASTHMA-201-SITE001-0061,19,HEIGHT,Height,183.0,cm,183.0,183.0,cm,,,,3.0,WEEK 2,TREATMENT,2024-05-13,18
GB001-ASTHMA-201,VS,GB001-ASTHMA-201-SITE001-0061,20,PULSE,Pulse Rate,71.8,beats/min,71.8,71.8,beats/min,,,,3.0,WEEK 2,TREATMENT,2024-05-13,18
GB001-ASTHMA-201,VS,GB001-ASTHMA-201-SITE001-0061,21,RESP,Respiratory Rate,14.1,breaths/min,14.1,14.1,breaths/min,,,,3.0,WEEK 2,TREATMENT,2024-05-13,18
GB001-ASTHMA-201,VS,GB001-ASTHMA-201-SITE001-0061,22,SYSBP,Systolic Blood Pressure,136.6,mmHg,136.6,136.6,mmHg,,,,3.0,WEEK 2,TREATMENT,2024-05-13,18
GB001-ASTHMA-201,VS,GB001-ASTHMA-201-SITE001-0061,23,TEMP,Temperature,36.9,C,36.9,36.9,C,,,,3.0,WEEK 2,TREATMENT,2024-05-13,18
GB001-ASTHMA-201,VS,GB001-ASTHMA-201-SITE001-0061,24,WEIGHT,Weight,44.3,kg,44.3,44.3,kg,,,,3.0,WEEK 2,TREATMENT,2024-05-13,18
GB001-ASTHMA-201,VS,GB001-ASTHMA-201-SITE001-0061,25,BMI,BMI,12.8,kg/m2,12.8,12.8,kg/m2,,,,4.0,WEEK 4,TREATMENT,2024-05-21,26
GB001-ASTHMA-201,VS,GB001-ASTHMA-201-SITE001-0061,26,DIABP,Diastolic Blood Pressure,79.2,mmHg,79.2,79.2,mmHg,,,,4.0,WEEK 4,TREATMENT,2024-05-21,26
GB001-ASTHMA-201,VS,GB001-ASTHMA-201-SITE001-0061,27,HEIGHT,Height,183.4,cm,183.4,183.4,cm,,,,4.0,WEEK 4,TREATMENT,2024-05-21,26
GB001-ASTHMA-201,VS,GB001-ASTHMA-201-SITE001-0061,28,PULSE,Pulse Rate,69.4,beats/min,69.4,69.4,beats/min,,,,4.0,WEEK 4,TREATMENT,2024-05-21,26
GB001-ASTHMA-201,VS,GB001-ASTHMA-201-SITE001-0061,29,RESP,Respiratory Rate,16.0,breaths/min,16.0,16.0,breaths/min,,,,4.0,WEEK 4,TREATMENT,2024-05-21,26
GB001-ASTHMA-201,VS,GB001-ASTHMA-201-SITE001-0061,30,SYSBP,Systolic Blood Pressure,135.4,mmHg,135.4,135.4,mmHg,,,,4.0,WEEK 4,TREATMENT,2024-05-21,26
GB001-ASTHMA-201,VS,GB001-ASTHMA-201-SITE001-0061,31,TEMP,Temperature,37.1,C,37.1,37.1,C,,,,4.0,WEEK 4,TREATMENT,2024-05-21,26
GB001-ASTHMA-201,VS,GB001-ASTHMA-201-SITE001-0061,32,WEIGHT,Weight,42.9,kg,42.9,42.9,kg,,,,4.0,WEEK 4,TREATMENT,2024-05-21,26
GB001-ASTHMA-201,VS,GB001-ASTHMA-201-SITE001-0061,33,BMI,BMI,13.7,kg/m2,13.7,13.7,kg/m2,,,,5.0,WEEK 8,TREATMENT,2024-06-21,57
GB001-ASTHMA-201,VS,GB001-ASTHMA-201-SITE001-0061,34,DIABP,Diastolic Blood Pressure,77.0,mmHg,77.0,77.0,mmHg,,,,5.0,WEEK 8,TREATMENT,2024-06-21,57
GB001-ASTHMA-201,VS,GB001-ASTHMA-201-SITE001-0061,35,HEIGHT,Height,183.5,cm,183.5,183.5,cm,,,,5.0,WEEK 8,TREATMENT,2024-06-21,57
GB001-ASTHMA-201,VS,GB001-ASTHMA-201-SITE001-0061,36,PULSE,Pulse Rate,70.9,beats/min,70.9,70.9,beats/min,,,,5.0,WEEK 8,TREATMENT,2024-06-21,57
GB001-ASTHMA-201,VS,GB001-ASTHMA-201-SITE001-0061,37,RESP,Respiratory Rate,15.5,breaths/min,15.5,15.5,breaths/min,,,,5.0,WEEK 8,TREATMENT,2024-06-21,57
GB001-ASTHMA-201,VS,GB001-ASTHMA-201-SITE001-0061,38,SYSBP,Systolic Blood Pressure,132.6,mmHg,132.6,132.6,mmHg,,,,5.0,WEEK 8,TREATMENT,2024-06-21,57
GB001-ASTHMA-201,VS,GB001-ASTHMA-201-SITE001-0061,39,TEMP,Temperature,37.1,C,37.1,37.1,C,,,,5.0,WEEK 8,TREATMENT,2024-06-21,57
GB001-ASTHMA-201,VS,GB001-ASTHMA-201-SITE001-0061,40,WEIGHT,Weight,46.1,kg,46.1,46.1,kg,,,,5.0,WEEK 8,TREATMENT,2024-06-21,57
GB001-ASTHMA-201,VS,GB001-ASTHMA-201-SITE001-0061,41,BMI,BMI,13.5,kg/m2,13.5,13.5,kg/m2,,,,6.0,WEEK 12,TREATMENT,2024-07-19,85
GB001-ASTHMA-201,VS,GB001-ASTHMA-201-SITE001-0061,42,DIABP,Diastolic Blood Pressure,77.7,mmHg,77.7,77.7,mmHg,,,,6.0,WEEK 12,TREATMENT,2024-07-19,85
GB001-ASTHMA-201,VS,GB001-ASTHMA-201-SITE001-0061,43,HEIGHT,Height,183.6,cm,183.6,183.6,cm,,,,6.0,WEEK 12,TREATMENT,2024-07-19,85
GB001-ASTHMA-201,VS,GB001-ASTHMA-201-SITE001-0061,44,PULSE,Pulse Rate,69.9,beats/min,69.9,69.9,beats/min,,,,6.0,WEEK 12,TREATMENT,2024-07-19,85
GB001-ASTHMA-201,VS,GB001-ASTHMA-201-SITE001-0061,45,RESP,Respiratory Rate,14.9,breaths/min,14.9,14.9,breaths/min,,,,6.0,WEEK 12,TREATMENT,2024-07-19,85
GB001-ASTHMA-201,VS,GB001-ASTHMA-201-SITE001-0061,46,SYSBP,Systolic Blood Pressure,134.2,mmHg,134.2,134.2,mmHg,,,,6.0,WEEK 12,TREATMENT,2024-07-19,85
GB001-ASTHMA-201,VS,GB001-ASTHMA-201-SITE001-0061,47,TEMP,Temperature,36.7,C,36.7,36.7,C,,,,6.0,WEEK 12,TREATMENT,2024-07-19,85
GB001-ASTHMA-201,VS,GB001-ASTHMA-201-SITE001-0061,48,WEIGHT,Weight,45.4,kg,45.4,45.4,kg,,,,6.0,WEEK 12,TREATMENT,2024-07-19,85
GB001-ASTHMA-201,VS,GB001-ASTHMA-201-SITE001-0061,49,BMI,BMI,13.5,kg/m2,13.5,13.5,kg/m2,,,,7.0,FOLLOW-UP,FOLLOW-UP,2024-08-20,117
GB001-ASTHMA-201,VS,GB001-ASTHMA-201-SITE001-0061,50,DIABP,Diastolic Blood Pressure,78.8,mmHg,78.8,78.8,mmHg,,,,7.0,FOLLOW-UP,FOLLOW-UP,2024-08-20,117
GB001-ASTHMA-201,VS,GB001-ASTHMA-201-SITE001-0061,51,HEIGHT,Height,183.6,cm,183.6,183.6,cm,,,,7.0,FOLLOW-UP,FOLLOW-UP,2024-08-20,117
GB001-ASTHMA-201,VS,GB001-ASTHMA-201-SITE001-0061,52,PULSE,Pulse Rate,74.2,beats/min,74.2,74.2,beats/min,,,,7.0,FOLLOW-UP,FOLLOW-UP,2024-08-20,117
GB001-ASTHMA-201,VS,GB001-ASTHMA-201-SITE001-0061,53,RESP,Respiratory Rate,14.7,breaths/min,14.7,14.7,breaths/min,,,,7.0,FOLLOW-UP,FOLLOW-UP,2024-08-20,117
GB001-ASTHMA-201,VS,GB001-ASTHMA-201-SITE001-0061,54,SYSBP,Systolic Blood Pressure,133.7,mmHg,133.7,133.7,mmHg,,,,7.0,FOLLOW-UP,FOLLOW-UP,2024-08-20,117
GB001-ASTHMA-201,VS,GB001-ASTHMA-201-SITE001-0061,55,TEMP,Temperature,37.1,C,37.1,37.1,C,,,,7.0,FOLLOW-UP,FOLLOW-UP,2024-08-20,117
GB001-ASTHMA-201,VS,GB001-ASTHMA-201-SITE001-0061,56,WEIGHT,Weight,45.5,kg,45.5,45.5,kg,,,,7.0,FOLLOW-UP,FOLLOW-UP,2024-08-20,117
GB001-ASTHMA-201,VS,GB001-ASTHMA-201-SITE001-0064,1,BMI,BMI,17.0,kg/m2,17.0,17.0,kg/m2,,,,1.0,SCREENING,SCREENING,2024-03-20,-10
GB001-ASTHMA-201,VS,GB001-ASTHMA-201-SITE001-0064,2,DIABP,Diastolic Blood Pressure,73.3,mmHg,73.3,73.3,mmHg,,,,1.0,SCREENING,SCREENING,2024-03-20,-10
GB001-ASTHMA-201,VS,GB001-ASTHMA-201-SITE001-0064,3,HEIGHT,Height,153.5,cm,153.5,153.5,cm,,,,1.0,SCREENING,SCREENING,2024-03-20,-10
GB001-ASTHMA-201,VS,GB001-ASTHMA-201-SITE001-0064,4,PULSE,Pulse Rate,82.6,beats/min,82.6,82.6,beats/min,,,,1.0,SCREENING,SCREENING,2024-03-20,-10
GB001-ASTHMA-201,VS,GB001-ASTHMA-201-SITE001-0064,5,RESP,Respiratory Rate,10.7,breaths/min,10.7,10.7,breaths/min,,,,1.0,SCREENING,SCREENING,2024-03-20,-10
GB001-ASTHMA-201,VS,GB001-ASTHMA-201-SITE001-0064,6,SYSBP,Systolic Blood Pressure,117.3,mmHg,117.3,117.3,mmHg,,,,1.0,SCREENING,SCREENING,2024-03-20,-10
GB001-ASTHMA-201,VS,GB001-ASTHMA-201-SITE001-0064,7,TEMP,Temperature,35.9,C,35.9,35.9,C,,,,1.0,SCREENING,SCREENING,2024-03-20,-10
GB001-ASTHMA-201,VS,GB001-ASTHMA-201-SITE001-0064,8,WEIGHT,Weight,40.0,kg,40.0,40.0,kg,,,,1.0,SCREENING,SCREENING,2024-03-20,-10
GB001-ASTHMA-201,VS,GB001-ASTHMA-201-SITE001-0064,9,BMI,BMI,17.0,kg/m2,17.0,17.0,kg/m2,,Y,Y,2.0,BASELINE,TREATMENT,2024-03-30,1
GB001-ASTHMA-201,VS,GB001-ASTHMA-201-SITE001-0064,10,DIABP,Diastolic Blood Pressure,73.5,mmHg,73.5,73.5,mmHg,,Y,Y,2.0,BASELINE,TREATMENT,2024-03-30,1
GB001-ASTHMA-201,VS,GB001-ASTHMA-201-SITE001-0064,11,HEIGHT,Height,153.2,cm,153.2,153.2,cm,,Y,Y,2.0,BASELINE,TREATMENT,2024-03-30,1
GB001-ASTHMA-201,VS,GB001-ASTHMA-201-SITE001-0064,12,PULSE,Pulse Rate,80.4,beats/min,80.4,80.4,beats/min,,Y,Y,2.0,BASELINE,TREATMENT,2024-03-30,1
GB001-ASTHMA-201,VS,GB001-ASTHMA-201-SITE001-0064,13,RESP,Respiratory Rate,10.7,breaths/min,10.7,10.7,breaths/min,,Y,Y,2.0,BASELINE,TREATMENT,2024-03-30,1
GB001-ASTHMA-201,VS,GB001-ASTHMA-201-SITE001-0064,14,SYSBP,Systolic Blood Pressure,117.7,mmHg,117.7,117.7,mmHg,,Y,Y,2.0,BASELINE,TREATMENT,2024-03-30,1
GB001-ASTHMA-201,VS,GB001-ASTHMA-201-SITE001-0064,15,TEMP,Temperature,35.8,C,35.8,35.8,C,,Y,Y,2.0,BASELINE,TREATMENT,2024-03-30,1
GB001-ASTHMA-201,VS,GB001-ASTHMA-201-SITE001-0064,16,WEIGHT,Weight,40.0,kg,40.0,40.0,kg,,Y,Y,2.0,BASELINE,TREATMENT,2024-03-30,1
GB001-ASTHMA-201,VS,GB001-ASTHMA-201-SITE001-0064,17,BMI,BMI,17.3,kg/m2,17.3,17.3,kg/m2,,,,3.0,WEEK 2,TREATMENT,2024-04-16,18
GB001-ASTHMA-201,VS,GB001-ASTHMA-201-SITE001-0064,18,DIABP,Diastolic Blood Pressure,71.8,mmHg,71.8,71.8,mmHg,,,,3.0,WEEK 2,TREATMENT,2024-04-16,18
GB001-ASTHMA-201,VS,GB001-ASTHMA-201-SITE001-0064,19,HEIGHT,Height,152.1,cm,152.1,152.1,cm,,,,3.0,WEEK 2,TREATMENT,2024-04-16,18
GB001-ASTHMA-201,VS,GB001-ASTHMA-201-SITE001-0064,20,PULSE,Pulse Rate,83.4,beats/min,83.4,83.4,beats/min,,,,3.0,WEEK 2,TREATMENT,2024-04-16,18
GB001-ASTHMA-201,VS,GB001-ASTHMA-201-SITE001-0064,21,RESP,Respiratory Rate,11.6,breaths/min,11.6,11.6,breaths/min,,,,3.0,WEEK 2,TREATMENT,2024-04-16,18
GB001-ASTHMA-201,VS,GB001-ASTHMA-201-SITE001-0064,22,SYSBP,Systolic Blood Pressure,116.5,mmHg,116.5,116.5,mmHg,,,,3.0,WEEK 2,TREATMENT,2024-04-16,18
GB001-ASTHMA-201,VS,GB001-ASTHMA-201-SITE001-0064,23,TEMP,Temperature,35.8,C,35.8,35.8,C,,,,3.0,WEEK 2,TREATMENT,2024-04-16,18
GB001-ASTHMA-201,VS,GB001-ASTHMA-201-SITE001-0064,24,WEIGHT,Weight,40.0,kg,40.0,40.0,kg,,,,3.0,WEEK 2,TREATMENT,2024-04-16,18
GB001-ASTHMA-201,VS,GB001-ASTHMA-201-SITE001-0064,25,BMI,BMI,17.3,kg/m2,17.3,17.3,kg/m2,,,,4.0,WEEK 4,TREATMENT,2024-04-25,27
GB001-ASTHMA-201,VS,GB001-ASTHMA-201-SITE001-0064,26,DIABP,Diastolic Blood Pressure,69.9,mmHg,69.9,69.9,mmHg,,,,4.0,WEEK 4,TREATMENT,2024-04-25,27
GB001-ASTHMA-201,VS,GB001-ASTHMA-201-SITE001-0064,27,HEIGHT,Height,152.2,cm,152.2,152.2,cm,,,,4.0,WEEK 4,TREATMENT,2024-04-25,27
GB001-ASTHMA-201,VS,GB001-ASTHMA-201-SITE001-0064,28,PULSE,Pulse Rate,79.3,beats/min,79.3,79.3,beats/min,,,,4.0,WEEK 4,TREATMENT,2024-04-25,27
GB001-ASTHMA-201,VS,GB001-ASTHMA-201-SITE001-0064,29,RESP,Respiratory Rate,11.0,breaths/min,11.0,11.0,breaths/min,,,,4.0,WEEK 4,TREATMENT,2024-04-25,27
GB001-ASTHMA-201,VS,GB001-ASTHMA-201-SITE001-0064,30,SYSBP,Systolic Blood Pressure,113.0,mmHg,113.0,113.0,mmHg,,,,4.0,WEEK 4,TREATMENT,2024-04-25,27
GB001-ASTHMA-201,VS,GB001-ASTHMA-201-SITE001-0064,31,TEMP,Temperature,35.9,C,35.9,35.9,C,,,,4.0,WEEK 4,TREATMENT,2024-04-25,27
GB001-ASTHMA-201,VS,GB001-ASTHMA-201-SITE001-0064,32,WEIGHT,Weight,40.0,kg,40.0,40.0,kg,,,,4.0,WEEK 4,TREATMENT,2024-04-25,27
GB001-ASTHMA-201,VS,GB001-ASTHMA-201-SITE001-0064,33,BMI,BMI,17.2,kg/m2,17.2,17.2,kg/m2,,,,5.0,WEEK 8,TREATMENT,2024-05-28,60
GB001-ASTHMA-201,VS,GB001-ASTHMA-201-SITE001-0064,34,DIABP,Diastolic Blood Pressure,68.6,mmHg,68.6,68.6,mmHg,,,,5.0,WEEK 8,TREATMENT,2024-05-28,60
GB001-ASTHMA-201,VS,GB001-ASTHMA-201-SITE001-0064,35,HEIGHT,Height,152.6,cm,152.6,152.6,cm,,,,5.0,WEEK 8,TREATMENT,2024-05-28,60
GB001-ASTHMA-201,VS,GB001-ASTHMA-201-SITE001-0064,36,PULSE,Pulse Rate,74.1,beats/min,74.1,74.1,beats/min,,,,5.0,WEEK 8,TREATMENT,2024-05-28,60
GB001-ASTHMA-201,VS,GB001-ASTHMA-201-SITE001-0064,37,RESP,Respiratory Rate,,,,,,NOT DONE,,,5.0,WEEK 8,TREATMENT,2024-05-28,60
GB001-ASTHMA-201,VS,GB001-ASTHMA-201-SITE001-0064,38,SYSBP,Systolic Blood Pressure,111.2,mmHg,111.2,111.2,mmHg,,,,5.0,WEEK 8,TREATMENT,2024-05-28,60
GB001-ASTHMA-201,VS,GB001-ASTHMA-201-SITE001-0064,39,TEMP,Temperature,35.6,C,35.6,35.6,C,,,,5.0,WEEK 8,TREATMENT,2024-05-28,60
GB001-ASTHMA-201,VS,GB001-ASTHMA-201-SITE001-0064,40,WEIGHT,Weight,40.0,kg,40.0,40.0,kg,,,,5.0,WEEK 8,TREATMENT,2024-05-28,60
GB001-ASTHMA-201,VS,GB001-ASTHMA-201-SITE001-0064,41,BMI,BMI,17.0,kg/m2,17.0,17.0,kg/m2,,,,6.0,WEEK 12,TREATMENT,2024-06-21,84
GB001-ASTHMA-201,VS,GB001-ASTHMA-201-SITE001-0064,42,DIABP,Diastolic Blood Pressure,71.9,mmHg,71.9,71.9,mmHg,,,,6.0,WEEK 12,TREATMENT,2024-06-21,84
GB001-ASTHMA-201,VS,GB001-ASTHMA-201-SITE001-0064,43,HEIGHT,Height,153.2,cm,153.2,153.2,cm,,,,6.0,WEEK 12,TREATMENT,2024-06-21,84
GB001-ASTHMA-201,VS,GB001-ASTHMA-201-SITE001-0064,44,PULSE,Pulse Rate,75.8,beats/min,75.8,75.8,beats/min,,,,6.0,WEEK 12,TREATMENT,2024-06-21,84
GB001-ASTHMA-201,VS,GB001-ASTHMA-201-SITE001-0064,45,RESP,Respiratory Rate,12.5,breaths/min,12.5,12.5,breaths/min,,,,6.0,WEEK 12,TREATMENT,2024-06-21,84
GB001-ASTHMA-201,VS,GB001-ASTHMA-201-SITE001-0064,46,SYSBP,Systolic Blood Pressure,114.9,mmHg,114.9,114.9,mmHg,,,,6.0,WEEK 12,TREATMENT,2024-06-21,84
GB001-ASTHMA-201,VS,GB001-ASTHMA-201-SITE001-0064,47,TEMP,Temperature,35.9,C,35.9,35.9,C,,,,6.0,WEEK 12,TREATMENT,2024-06-21,84
GB001-ASTHMA-201,VS,GB001-ASTHMA-201-SITE001-0064,48,WEIGHT,Weight,40.0,kg,40.0,40.0,kg,,,,6.0,WEEK 12,TREATMENT,2024-06-21,84
GB001-ASTHMA-201,VS,GB001-ASTHMA-201-SITE001-0067,1,BMI,BMI,32.9,kg/m2,32.9,32.9,kg/m2,,,,1.0,SCREENING,SCREENING,2024-04-14,-20
GB001-ASTHMA-201,VS,GB001-ASTHMA-201-SITE001-0067,2,DIABP,Diastolic Blood Pressure,76.0,mmHg,76.0,76.0,mmHg,,,,1.0,SCREENING,SCREENING,2024-04-14,-20
GB001-ASTHMA-201,VS,GB001-ASTHMA-201-SITE001-0067,3,HEIGHT,Height,142.1,cm,142.1,142.1,cm,,,,1.0,SCREENING,SCREENING,2024-04-14,-20
GB001-ASTHMA-201,VS,GB001-ASTHMA-201-SITE001-0067,4,PULSE,Pulse Rate,66.5,beats/min,66.5,66.5,beats/min,,,,1.0,SCREENING,SCREENING,2024-04-14,-20
GB001-ASTHMA-201,VS,GB001-ASTHMA-201-SITE001-0067,5,RESP,Respiratory Rate,14.6,breaths/min,14.6,14.6,breaths/min,,,,1.0,SCREENING,SCREENING,2024-04-14,-20
GB001-ASTHMA-201,VS,GB001-ASTHMA-201-SITE001-0067,6,SYSBP,Systolic Blood Pressure,99.4,mmHg,99.4,99.4,mmHg,,,,1.0,SCREENING,SCREENING,2024-04-14,-20
GB001-ASTHMA-201,VS,GB001-ASTHMA-201-SITE001-0067,7,TEMP,Temperature,37.2,C,37.2,37.2,C,,,,1.0,SCREENING,SCREENING,2024-04-14,-20
GB001-ASTHMA-201,VS,GB001-ASTHMA-201-SITE001-0067,8,WEIGHT,Weight,66.4,kg,66.4,66.4,kg,,,,1.0,SCREENING,SCREENING,2024-04-14,-20
GB001-ASTHMA-201,VS,GB001-ASTHMA-201-SITE001-0067,9,BMI,BMI,31.9,kg/m2,31.9,31.9,kg/m2,,Y,Y,2.0,BASELINE,TREATMENT,2024-05-04,1
GB001-ASTHMA-201,VS,GB001-ASTHMA-201-SITE001-0067,10,DIABP,Diastolic Blood Pressure,74.6,mmHg,74.6,74.6,mmHg,,Y,Y,2.0,BASELINE,TREATMENT,2024-05-04,1
GB001-ASTHMA-201,VS,GB001-ASTHMA-201-SITE001-0067,11,HEIGHT,Height,142.7,cm,142.7,142.7,cm,,Y,Y,2.0,BASELINE,TREATMENT,2024-05-04,1
GB001-ASTHMA-201,VS,GB001-ASTHMA-201-SITE001-0067,12,PULSE,Pulse Rate,60.0,beats/min,60.0,60.0,beats/min,,Y,Y,2.0,BASELINE,TREATMENT,2024-05-04,1
GB001-ASTHMA-201,VS,GB001-ASTHMA-201-SITE001-0067,13,RESP,Respiratory Rate,14.3,breaths/min,14.3,14.3,breaths/min,,Y,Y,2.0,BASELINE,TREATMENT,2024-05-04,1
GB001-ASTHMA-201,VS,GB001-ASTHMA-201-SITE001-0067,14,SYSBP,Systolic Blood Pressure,98.8,mmHg,98.8,98.8,mmHg,,Y,Y,2.0,BASELINE,TREATMENT,2024-05-04,1
GB001-ASTHMA-201,VS,GB001-ASTHMA-201-SITE001-0067,15,TEMP,Temperature,37.4,C,37.4,37.4,C,,Y,Y,2.0,BASELINE,TREATMENT,2024-05-04,1
GB001-ASTHMA-201,VS,GB001-ASTHMA-201-SITE001-0067,16,WEIGHT,Weight,65.0,kg,65.0,65.0,kg,,Y,Y,2.0,BASELINE,TREATMENT,2024-05-04,1
GB001-ASTHMA-201,VS,GB001-ASTHMA-201-SITE001-0067,17,BMI,BMI,32.6,kg/m2,32.6,32.6,kg/m2,,,,3.0,WEEK 2,TREATMENT,2024-05-15,12
GB001-ASTHMA-201,VS,GB001-ASTHMA-201-SITE001-0067,18,DIABP,Diastolic Blood Pressure,76.7,mmHg,76.7,76.7,mmHg,,,,3.0,WEEK 2,TREATMENT,2024-05-15,12
GB001-ASTHMA-201,VS,GB001-ASTHMA-201-SITE001-0067,19,HEIGHT,Height,142.4,cm,142.4,142.4,cm,,,,3.0,WEEK 2,TREATMENT,2024-05-15,12
GB001-ASTHMA-201,VS,GB001-ASTHMA-201-SITE001-0067,20,PULSE,Pulse Rate,61.0,beats/min,61.0,61.0,beats/min,,,,3.0,WEEK 2,TREATMENT,2024-05-15,12
GB001-ASTHMA-201,VS,GB001-ASTHMA-201-SITE001-0067,21,RESP,Respiratory Rate,13.8,breaths/min,13.8,13.8,breaths/min,,,,3.0,WEEK 2,TREATMENT,2024-05-15,12
GB001-ASTHMA-201,VS,GB001-ASTHMA-201-SITE001-0067,22,SYSBP,Systolic Blood Pressure,100.8,mmHg,100.8,100.8,mmHg,,,,3.0,WEEK 2,TREATMENT,2024-05-15,12
GB001-ASTHMA-201,VS,GB001-ASTHMA-201-SITE001-0067,23,TEMP,Temperature,37.1,C,37.1,37.1,C,,,,3.0,WEEK 2,TREATMENT,2024-05-15,12
GB001-ASTHMA-201,VS,GB001-ASTHMA-201-SITE001-0067,24,WEIGHT,Weight,66.1,kg,66.1,66.1,kg,,,,3.0,WEEK 2,TREATMENT,2024-05-15,12
GB001-ASTHMA-201,VS,GB001-ASTHMA-201-SITE001-0067,25,BMI,BMI,32.7,kg/m2,32.7,32.7,kg/m2,,,,4.0,WEEK 4,TREATMENT,2024-05-30,27
GB001-ASTHMA-201,VS,GB001-ASTHMA-201-SITE001-0067,26,DIABP,Diastolic Blood Pressure,76.3,mmHg,76.3,76.3,mmHg,,,,4.0,WEEK 4,TREATMENT,2024-05-30,27
GB001-ASTHMA-201,VS,GB001-ASTHMA-201-SITE001-0067,27,HEIGHT,Height,142.1,cm,142.1,142.1,cm,,,,4.0,WEEK 4,TREATMENT,2024-05-30,27
GB001-ASTHMA-201,VS,GB001-ASTHMA-201-SITE001-0067,28,PULSE,Pulse Rate,59.4,beats/min,59.4,59.4,beats/min,,,,4.0,WEEK 4,TREATMENT,2024-05-30,27
GB001-ASTHMA-201,VS,GB001-ASTHMA-201-SITE001-0067,29,RESP,Respiratory Rate,14.5,breaths/min,14.5,14.5,breaths/min,,,,4.0,WEEK 4,TREATMENT,2024-05-30,27
GB001-ASTHMA-201,VS,GB001-ASTHMA-201-SITE001-0067,30,SYSBP,Systolic Blood Pressure,98.9,mmHg,98.9,98.9,mmHg,,,,4.0,WEEK 4,TREATMENT,2024-05-30,27
GB001-ASTHMA-201,VS,GB001-ASTHMA-201-SITE001-0067,31,TEMP,Temperature,37.1,C,37.1,37.1,C,,,,4.0,WEEK 4,TREATMENT,2024-05-30,27
GB001-ASTHMA-201,VS,GB001-ASTHMA-201-SITE001-0067,32,WEIGHT,Weight,66.1,kg,66.1,66.1,kg,,,,4.0,WEEK 4,TREATMENT,2024-05-30,27
GB001-ASTHMA-201,VS,GB001-ASTHMA-201-SITE001-0067,33,BMI,BMI,32.4,kg/m2,32.4,32.4,kg/m2,,,,5.0,WEEK 8,TREATMENT,2024-06-26,54
GB001-ASTHMA-201,VS,GB001-ASTHMA-201-SITE001-0067,34,DIABP,Diastolic Blood Pressure,75.9,mmHg,75.9,75.9,mmHg,,,,5.0,WEEK 8,TREATMENT,2024-06-26,54
GB001-ASTHMA-201,VS,GB001-ASTHMA-201-SITE001-0067,35,HEIGHT,Height,142.3,cm,142.3,142.3,cm,,,,5.0,WEEK 8,TREATMENT,2024-06-26,54
GB001-ASTHMA-201,VS,GB001-ASTHMA-201-SITE001-0067,36,PULSE,Pulse Rate,63.6,beats/min,63.6,63.6,beats/min,,,,5.0,WEEK 8,TREATMENT,2024-06-26,54
GB001-ASTHMA-201,VS,GB001-ASTHMA-201-SITE001-0067,37,RESP,Respiratory Rate,15.0,breaths/min,15.0,15.0,breaths/min,,,,5.0,WEEK 8,TREATMENT,2024-06-26,54
GB001-ASTHMA-201,VS,GB001-ASTHMA-201-SITE001-0067,38,SYSBP,Systolic Blood Pressure,101.4,mmHg,101.4,101.4,mmHg,,,,5.0,WEEK 8,TREATMENT,2024-06-26,54
GB001-ASTHMA-201,VS,GB001-ASTHMA-201-SITE001-0067,39,TEMP,Temperature,36.9,C,36.9,36.9,C,,,,5.0,WEEK 8,TREATMENT,2024-06-26,54
GB001-ASTHMA-201,VS,GB001-ASTHMA-201-SITE001-0067,40,WEIGHT,Weight,65.6,kg,65.6,65.6,kg,,,,5.0,WEEK 8,TREATMENT,2024-06-26,54
GB001-ASTHMA-201,VS,GB001-ASTHMA-201-SITE001-0067,41,BMI,BMI,33.1,kg/m2,33.1,33.1,kg/m2,,,,6.0,WEEK 12,TREATMENT,2024-07-24,82
GB001-ASTHMA-201,VS,GB001-ASTHMA-201-SITE001-0067,42,DIABP,Diastolic Blood Pressure,78.1,mmHg,78.1,78.1,mmHg,,,,6.0,WEEK 12,TREATMENT,2024-07-24,82
GB001-ASTHMA-201,VS,GB001-ASTHMA-201-SITE001-0067,43,HEIGHT,Height,142.1,cm,142.1,142.1,cm,,,,6.0,WEEK 12,TREATMENT,2024-07-24,82
GB001-ASTHMA-201,VS,GB001-ASTHMA-201-SITE001-0067,44,PULSE,Pulse Rate,65.3,beats/min,65.3,65.3,beats/min,,,,6.0,WEEK 12,TREATMENT,2024-07-24,82
GB001-ASTHMA-201,VS,GB001-ASTHMA-201-SITE001-0067,45,RESP,Respiratory Rate,15.0,breaths/min,15.0,15.0,breaths/min,,,,6.0,WEEK 12,TREATMENT,2024-07-24,82
GB001-ASTHMA-201,VS,GB001-ASTHMA-201-SITE001-0067,46,SYSBP,Systolic Blood Pressure,101.8,mmHg,101.8,101.8,mmHg,,,,6.0,WEEK 12,TREATMENT,2024-07-24,82
GB001-ASTHMA-201,VS,GB001-ASTHMA-201-SITE001-0067,47,TEMP,Temperature,37.0,C,37.0,37.0,C,,,,6.0,WEEK 12,TREATMENT,2024-07-24,82
GB001-ASTHMA-201,VS,GB001-ASTHMA-201-SITE001-0067,48,WEIGHT,Weight,66.9,kg,66.9,66.9,kg,,,,6.0,WEEK 12,TREATMENT,2024-07-24,82
GB001-ASTHMA-201,VS,GB001-ASTHMA-201-SITE001-0067,49,BMI,BMI,32.8,kg/m2,32.8,32.8,kg/m2,,,,7.0,FOLLOW-UP,FOLLOW-UP,2024-08-23,112
GB001-ASTHMA-201,VS,GB001-ASTHMA-201-SITE001-0067,50,DIABP,Diastolic Blood Pressure,76.4,mmHg,76.4,76.4,mmHg,,,,7.0,FOLLOW-UP,FOLLOW-UP,2024-08-23,112
GB001-ASTHMA-201,VS,GB001-ASTHMA-201-SITE001-0067,51,HEIGHT,Height,142.9,cm,142.9,142.9,cm,,,,7.0,FOLLOW-UP,FOLLOW-UP,2024-08-23,112
GB001-ASTHMA-201,VS,GB001-ASTHMA-201-SITE001-0067,52,PULSE,Pulse Rate,64.4,beats/min,64.4,64.4,beats/min,,,,7.0,FOLLOW-UP,FOLLOW-UP,2024-08-23,112
GB001-ASTHMA-201,VS,GB001-ASTHMA-201-SITE001-0067,53,RESP,Respiratory Rate,15.4,breaths/min,15.4,15.4,breaths/min,,,,7.0,FOLLOW-UP,FOLLOW-UP,2024-08-23,112
GB001-ASTHMA-201,VS,GB001-ASTHMA-201-SITE001-0067,54,SYSBP,Systolic Blood Pressure,99.8,mmHg,99.8,99.8,mmHg,,,,7.0,FOLLOW-UP,FOLLOW-UP,2024-08-23,112
GB001-ASTHMA-201,VS,GB001-ASTHMA-201-SITE001-0067,55,TEMP,Temperature,37.0,C,37.0,37.0,C,,,,7.0,FOLLOW-UP,FOLLOW-UP,2024-08-23,112
GB001-ASTHMA-201,VS,GB001-ASTHMA-201-SITE001-0067,56,WEIGHT,Weight,67.0,kg,67.0,67.0,kg,,,,7.0,FOLLOW-UP,FOLLOW-UP,2024-08-23,112
GB001-ASTHMA-201,VS,GB001-ASTHMA-201-SITE001-0070,1,BMI,BMI,18.4,kg/m2,18.4,18.4,kg/m2,,,,1.0,SCREENING,SCREENING,2024-02-19,-35
GB001-ASTHMA-201,VS,GB001-ASTHMA-201-SITE001-0070,2,DIABP,Diastolic Blood Pressure,71.0,mmHg,71.0,71.0,mmHg,,,,1.0,SCREENING,SCREENING,2024-02-19,-35
GB001-ASTHMA-201,VS,GB001-ASTHMA-201-SITE001-0070,3,HEIGHT,Height,164.4,cm,164.4,164.4,cm,,,,1.0,SCREENING,SCREENING,2024-02-19,-35
GB001-ASTHMA-201,VS,GB001-ASTHMA-201-SITE001-0070,4,PULSE,Pulse Rate,79.1,beats/min,79.1,79.1,beats/min,,,,1.0,SCREENING,SCREENING,2024-02-19,-35
GB001-ASTHMA-201,VS,GB001-ASTHMA-201-SITE001-0070,5,RESP,Respiratory Rate,23.3,breaths/min,23.3,23.3,breaths/min,,,,1.0,SCREENING,SCREENING,2024-02-19,-35
GB001-ASTHMA-201,VS,GB001-ASTHMA-201-SITE001-0070,6,SYSBP,Systolic Blood Pressure,127.8,mmHg,127.8,127.8,mmHg,,,,1.0,SCREENING,SCREENING,2024-02-19,-35
GB001-ASTHMA-201,VS,GB001-ASTHMA-201-SITE001-0070,7,TEMP,Temperature,36.8,C,36.8,36.8,C,,,,1.0,SCREENING,SCREENING,2024-02-19,-35
GB001-ASTHMA-201,VS,GB001-ASTHMA-201-SITE001-0070,8,WEIGHT,Weight,49.6,kg,49.6,49.6,kg,,,,1.0,SCREENING,SCREENING,2024-02-19,-35
GB001-ASTHMA-201,VS,GB001-ASTHMA-201-SITE001-0070,9,BMI,BMI,18.4,kg/m2,18.4,18.4,kg/m2,,Y,Y,2.0,BASELINE,TREATMENT,2024-03-25,1
GB001-ASTHMA-201,VS,GB001-ASTHMA-201-SITE001-0070,10,DIABP,Diastolic Blood Pressure,72.9,mmHg,72.9,72.9,mmHg,,Y,Y,2.0,BASELINE,TREATMENT,2024-03-25,1
GB001-ASTHMA-201,VS,GB001-ASTHMA-201-SITE001-0070,11,HEIGHT,Height,164.4,cm,164.4,164.4,cm,,Y,Y,2.0,BASELINE,TREATMENT,2024-03-25,1
GB001-ASTHMA-201,VS,GB001-ASTHMA-201-SITE001-0070,12,PULSE,Pulse Rate,80.0,beats/min,80.0,80.0,beats/min,,Y,Y,2.0,BASELINE,TREATMENT,2024-03-25,1
GB001-ASTHMA-201,VS,GB001-ASTHMA-201-SITE001-0070,13,RESP,Respiratory Rate,22.9,breaths/min,22.9,22.9,breaths/min,,Y,Y,2.0,BASELINE,TREATMENT,2024-03-25,1
GB001-ASTHMA-201,VS,GB001-ASTHMA-201-SITE001-0070,14,SYSBP,Systolic Blood Pressure,130.5,mmHg,130.5,130.5,mmHg,,Y,Y,2.0,BASELINE,TREATMENT,2024-03-25,1
GB001-ASTHMA-201,VS,GB001-ASTHMA-201-SITE001-0070,15,TEMP,Temperature,36.4,C,36.4,36.4,C,,Y,Y,2.0,BASELINE,TREATMENT,2024-03-25,1
GB001-ASTHMA-201,VS,GB001-ASTHMA-201-SITE001-0070,16,WEIGHT,Weight,49.6,kg,49.6,49.6,kg,,Y,Y,2.0,BASELINE,TREATMENT,2024-03-25,1
GB001-ASTHMA-201,VS,GB001-ASTHMA-201-SITE001-0070,17,BMI,BMI,17.9,kg/m2,17.9,17.9,kg/m2,,,,3.0,WEEK 2,TREATMENT,2024-04-10,17
GB001-ASTHMA-201,VS,GB001-ASTHMA-201-SITE001-0070,18,DIABP,Diastolic Blood Pressure,73.3,mmHg,73.3,73.3,mmHg,,,,3.0,WEEK 2,TREATMENT,2024-04-10,17
GB001-ASTHMA-201,VS,GB001-ASTHMA-201-SITE001-0070,19,HEIGHT,Height,165.1,cm,165.1,165.1,cm,,,,3.0,WEEK 2,TREATMENT,2024-04-10,17
GB001-ASTHMA-201,VS,GB001-ASTHMA-201-SITE001-0070,20,PULSE,Pulse Rate,85.4,beats/min,85.4,85.4,beats/min,,,,3.0,WEEK 2,TREATMENT,2024-04-10,17
GB001-ASTHMA-201,VS,GB001-ASTHMA-201-SITE001-0070,21,RESP,Respiratory Rate,24.3,breaths/min,24.3,24.3,breaths/min,,,,3.0,WEEK 2,TREATMENT,2024-04-10,17
GB001-ASTHMA-201,VS,GB001-ASTHMA-201-SITE001-0070,22,SYSBP,Systolic Blood Pressure,129.6,mmHg,129.6,129.6,mmHg,,,,3.0,WEEK 2,TREATMENT,2024-04-10,17
GB001-ASTHMA-201,VS,GB001-ASTHMA-201-SITE001-0070,23,TEMP,Temperature,36.4,C,36.4,36.4,C,,,,3.0,WEEK 2,TREATMENT,2024-04-10,17
GB001-ASTHMA-201,VS,GB001-ASTHMA-201-SITE001-0070,24,WEIGHT,Weight,48.9,kg,48.9,48.9,kg,,,,3.0,WEEK 2,TREATMENT,2024-04-10,17
GB001-ASTHMA-201,VS,GB001-ASTHMA-201-SITE001-0070,25,BMI,BMI,18.2,kg/m2,18.2,18.2,kg/m2,,,,5.0,WEEK 8,TREATMENT,2024-05-23,60
GB001-ASTHMA-201,VS,GB001-ASTHMA-201-SITE001-0070,26,DIABP,Diastolic Blood Pressure,74.3,mmHg,74.3,74.3,mmHg,,,,5.0,WEEK 8,TREATMENT,2024-05-23,60
GB001-ASTHMA-201,VS,GB001-ASTHMA-201-SITE001-0070,27,HEIGHT,Height,165.6,cm,165.6,165.6,cm,,,,5.0,WEEK 8,TREATMENT,2024-05-23,60
GB001-ASTHMA-201,VS,GB001-ASTHMA-201-SITE001-0070,28,PULSE,Pulse Rate,88.8,beats/min,88.8,88.8,beats/min,,,,5.0,WEEK 8,TREATMENT,2024-05-23,60
GB001-ASTHMA-201,VS,GB001-ASTHMA-201-SITE001-0070,29,RESP,Respiratory Rate,23.9,breaths/min,23.9,23.9,breaths/min,,,,5.0,WEEK 8,TREATMENT,2024-05-23,60
GB001-ASTHMA-201,VS,GB001-ASTHMA-201-SITE001-0070,30,SYSBP,Systolic Blood Pressure,130.4,mmHg,130.4,130.4,mmHg,,,,5.0,WEEK 8,TREATMENT,2024-05-23,60
GB001-ASTHMA-201,VS,GB001-ASTHMA-201-SITE001-0070,31,TEMP,Temperature,36.4,C,36.4,36.4,C,,,,5.0,WEEK 8,TREATMENT,2024-05-23,60
GB001-ASTHMA-201,VS,GB001-ASTHMA-201-SITE001-0070,32,WEIGHT,Weight,49.9,kg,49.9,49.9,kg,,,,5.0,WEEK 8,TREATMENT,2024-05-23,60
GB001-ASTHMA-201,VS,GB001-ASTHMA-201-SITE001-0070,33,BMI,BMI,17.6,kg/m2,17.6,17.6,kg/m2,,,,6.0,WEEK 12,TREATMENT,2024-06-20,88
GB001-ASTHMA-201,VS,GB001-ASTHMA-201-SITE001-0070,34,DIABP,Diastolic Blood Pressure,75.0,mmHg,75.0,75.0,mmHg,,,,6.0,WEEK 12,TREATMENT,2024-06-20,88
GB001-ASTHMA-201,VS,GB001-ASTHMA-201-SITE001-0070,35,HEIGHT,Height,165.4,cm,165.4,165.4,cm,,,,6.0,WEEK 12,TREATMENT,2024-06-20,88
GB001-ASTHMA-201,VS,GB001-ASTHMA-201-SITE001-0070,36,PULSE,Pulse Rate,85.4,beats/min,85.4,85.4,beats/min,,,,6.0,WEEK 12,TREATMENT,2024-06-20,88
GB001-ASTHMA-201,VS,GB001-ASTHMA-201-SITE001-0070,37,RESP,Respiratory Rate,23.3,breaths/min,23.3,23.3,breaths/min,,,,6.0,WEEK 12,TREATMENT,2024-06-20,88
GB001-ASTHMA-201,VS,GB001-ASTHMA-201-SITE001-0070,38,SYSBP,Systolic Blood Pressure,130.8,mmHg,130.8,130.8,mmHg,,,,6.0,WEEK 12,TREATMENT,2024-06-20,88
GB001-ASTHMA-201,VS,GB001-ASTHMA-201-SITE001-0070,39,TEMP,Temperature,36.5,C,36.5,36.5,C,,,,6.0,WEEK 12,TREATMENT,2024-06-20,88
GB001-ASTHMA-201,VS,GB001-ASTHMA-201-SITE001-0070,40,WEIGHT,Weight,48.1,kg,48.1,48.1,kg,,,,6.0,WEEK 12,TREATMENT,2024-06-20,88
GB001-ASTHMA-201,VS,GB001-ASTHMA-201-SITE001-0070,41,BMI,BMI,18.0,kg/m2,18.0,18.0,kg/m2,,,,7.0,FOLLOW-UP,FOLLOW-UP,2024-07-21,119
GB001-ASTHMA-201,VS,GB001-ASTHMA-201-SITE001-0070,42,DIABP,Diastolic Blood Pressure,72.8,mmHg,72.8,72.8,mmHg,,,,7.0,FOLLOW-UP,FOLLOW-UP,2024-07-21,119
GB001-ASTHMA-201,VS,GB001-ASTHMA-201-SITE001-0070,43,HEIGHT,Height,165.3,cm,165.3,165.3,cm,,,,7.0,FOLLOW-UP,FOLLOW-UP,2024-07-21,119
GB001-ASTHMA-201,VS,GB001-ASTHMA-201-SITE001-0070,44,PULSE,Pulse Rate,81.0,beats/min,81.0,81.0,beats/min,,,,7.0,FOLLOW-UP,FOLLOW-UP,2024-07-21,119
GB001-ASTHMA-201,VS,GB001-ASTHMA-201-SITE001-0070,45,RESP,Respiratory Rate,22.6,breaths/min,22.6,22.6,breaths/min,,,,7.0,FOLLOW-UP,FOLLOW-UP,2024-07-21,119
GB001-ASTHMA-201,VS,GB001-ASTHMA-201-SITE001-0070,46,SYSBP,Systolic Blood Pressure,127.1,mmHg,127.1,127.1,mmHg,,,,7.0,FOLLOW-UP,FOLLOW-UP,2024-07-21,119
GB001-ASTHMA-201,VS,GB001-ASTHMA-201-SITE001-0070,47,TEMP,Temperature,36.3,C,36.3,36.3,C,,,,7.0,FOLLOW-UP,FOLLOW-UP,2024-07-21,119
GB001-ASTHMA-201,VS,GB001-ASTHMA-201-SITE001-0070,48,WEIGHT,Weight,49.2,kg,49.2,49.2,kg,,,,7.0,FOLLOW-UP,FOLLOW-UP,2024-07-21,119
GB001-ASTHMA-201,VS,GB001-ASTHMA-201-SITE001-0073,1,BMI,BMI,17.9,kg/m2,17.9,17.9,kg/m2,,,,1.0,SCREENING,SCREENING,2024-03-25,-22
GB001-ASTHMA-201,VS,GB001-ASTHMA-201-SITE001-0073,2,DIABP,Diastolic Blood Pressure,64.8,mmHg,64.8,64.8,mmHg,,,,1.0,SCREENING,SCREENING,2024-03-25,-22
GB001-ASTHMA-201,VS,GB001-ASTHMA-201-SITE001-0073,3,HEIGHT,Height,172.1,cm,172.1,172.1,cm,,,,1.0,SCREENING,SCREENING,2024-03-25,-22
GB001-ASTHMA-201,VS,GB001-ASTHMA-201-SITE001-0073,4,PULSE,Pulse Rate,67.0,beats/min,67.0,67.0,beats/min,,,,1.0,SCREENING,SCREENING,2024-03-25,-22
GB001-ASTHMA-201,VS,GB001-ASTHMA-201-SITE001-0073,5,RESP,Respiratory Rate,19.4,breaths/min,19.4,19.4,breaths/min,,,,1.0,SCREENING,SCREENING,2024-03-25,-22
GB001-ASTHMA-201,VS,GB001-ASTHMA-201-SITE001-0073,6,SYSBP,Systolic Blood Pressure,119.0,mmHg,119.0,119.0,mmHg,,,,1.0,SCREENING,SCREENING,2024-03-25,-22
GB001-ASTHMA-201,VS,GB001-ASTHMA-201-SITE001-0073,7,TEMP,Temperature,37.5,C,37.5,37.5,C,,,,1.0,SCREENING,SCREENING,2024-03-25,-22
GB001-ASTHMA-201,VS,GB001-ASTHMA-201-SITE001-0073,8,WEIGHT,Weight,53.0,kg,53.0,53.0,kg,,,,1.0,SCREENING,SCREENING,2024-03-25,-22
GB001-ASTHMA-201,VS,GB001-ASTHMA-201-SITE001-0073,9,BMI,BMI,17.4,kg/m2,17.4,17.4,kg/m2,,Y,Y,2.0,BASELINE,TREATMENT,2024-04-16,1
GB001-ASTHMA-201,VS,GB001-ASTHMA-201-SITE001-0073,10,DIABP,Diastolic Blood Pressure,65.2,mmHg,65.2,65.2,mmHg,,Y,Y,2.0,BASELINE,TREATMENT,2024-04-16,1
GB001-ASTHMA-201,VS,GB001-ASTHMA-201-SITE001-0073,11,HEIGHT,Height,172.1,cm,172.1,172.1,cm,,Y,Y,2.0,BASELINE,TREATMENT,2024-04-16,1
GB001-ASTHMA-201,VS,GB001-ASTHMA-201-SITE001-0073,12,PULSE,Pulse Rate,64.7,beats/min,64.7,64.7,beats/min,,Y,Y,2.0,BASELINE,TREATMENT,2024-04-16,1
GB001-ASTHMA-201,VS,GB001-ASTHMA-201-SITE001-0073,13,RESP,Respiratory Rate,19.5,breaths/min,19.5,19.5,breaths/min,,Y,Y,2.0,BASELINE,TREATMENT,2024-04-16,1
GB001-ASTHMA-201,VS,GB001-ASTHMA-201-SITE001-0073,14,SYSBP,Systolic Blood Pressure,119.2,mmHg,119.2,119.2,mmHg,,Y,Y,2.0,BASELINE,TREATMENT,2024-04-16,1
GB001-ASTHMA-201,VS,GB001-ASTHMA-201-SITE001-0073,15,TEMP,Temperature,37.4,C,37.4,37.4,C,,Y,Y,2.0,BASELINE,TREATMENT,2024-04-16,1
GB001-ASTHMA-201,VS,GB001-ASTHMA-201-SITE001-0073,16,WEIGHT,Weight,51.6,kg,51.6,51.6,kg,,Y,Y,2.0,BASELINE,TREATMENT,2024-04-16,1
GB001-ASTHMA-201,VS,GB001-ASTHMA-201-SITE001-0076,1,BMI,BMI,13.0,kg/m2,13.0,13.0,kg/m2,,,,1.0,SCREENING,SCREENING,2024-03-19,-33
GB001-ASTHMA-201,VS,GB001-ASTHMA-201-SITE001-0076,2,DIABP,Diastolic Blood Pressure,80.9,mmHg,80.9,80.9,mmHg,,,,1.0,SCREENING,SCREENING,2024-03-19,-33
GB001-ASTHMA-201,VS,GB001-ASTHMA-201-SITE001-0076,3,HEIGHT,Height,175.2,cm,175.2,175.2,cm,,,,1.0,SCREENING,SCREENING,2024-03-19,-33
GB001-ASTHMA-201,VS,GB001-ASTHMA-201-SITE001-0076,4,PULSE,Pulse Rate,90.5,beats/min,90.5,90.5,beats/min,,,,1.0,SCREENING,SCREENING,2024-03-19,-33
GB001-ASTHMA-201,VS,GB001-ASTHMA-201-SITE001-0076,5,RESP,Respiratory Rate,20.2,breaths/min,20.2,20.2,breaths/min,,,,1.0,SCREENING,SCREENING,2024-03-19,-33
GB001-ASTHMA-201,VS,GB001-ASTHMA-201-SITE001-0076,6,SYSBP,Systolic Blood Pressure,126.1,mmHg,126.1,126.1,mmHg,,,,1.0,SCREENING,SCREENING,2024-03-19,-33
GB001-ASTHMA-201,VS,GB001-ASTHMA-201-SITE001-0076,7,TEMP,Temperature,37.1,C,37.1,37.1,C,,,,1.0,SCREENING,SCREENING,2024-03-19,-33
GB001-ASTHMA-201,VS,GB001-ASTHMA-201-SITE001-0076,8,WEIGHT,Weight,40.0,kg,40.0,40.0,kg,,,,1.0,SCREENING,SCREENING,2024-03-19,-33
GB001-ASTHMA-201,VS,GB001-ASTHMA-201-SITE001-0076,9,BMI,BMI,12.9,kg/m2,12.9,12.9,kg/m2,,Y,Y,2.0,BASELINE,TREATMENT,2024-04-21,1
GB001-ASTHMA-201,VS,GB001-ASTHMA-201-SITE001-0076,10,DIABP,Diastolic Blood Pressure,82.9,mmHg,82.9,82.9,mmHg,,Y,Y,2.0,BASELINE,TREATMENT,2024-04-21,1
GB001-ASTHMA-201,VS,GB001-ASTHMA-201-SITE001-0076,11,HEIGHT,Height,176.0,cm,176.0,176.0,cm,,Y,Y,2.0,BASELINE,TREATMENT,2024-04-21,1
GB001-ASTHMA-201,VS,GB001-ASTHMA-201-SITE001-0076,12,PULSE,Pulse Rate,90.0,beats/min,90.0,90.0,beats/min,,Y,Y,2.0,BASELINE,TREATMENT,2024-04-21,1
GB001-ASTHMA-201,VS,GB001-ASTHMA-201-SITE001-0076,13,RESP,Respiratory Rate,18.9,breaths/min,18.9,18.9,breaths/min,,Y,Y,2.0,BASELINE,TREATMENT,2024-04-21,1
GB001-ASTHMA-201,VS,GB001-ASTHMA-201-SITE001-0076,14,SYSBP,Systolic Blood Pressure,129.2,mmHg,129.2,129.2,mmHg,,Y,Y,2.0,BASELINE,TREATMENT,2024-04-21,1
GB001-ASTHMA-201,VS,GB001-ASTHMA-201-SITE001-0076,15,TEMP,Temperature,37.0,C,37.0,37.0,C,,Y,Y,2.0,BASELINE,TREATMENT,2024-04-21,1
GB001-ASTHMA-201,VS,GB001-ASTHMA-201-SITE001-0076,16,WEIGHT,Weight,40.0,kg,40.0,40.0,kg,,Y,Y,2.0,BASELINE,TREATMENT,2024-04-21,1
GB001-ASTHMA-201,VS,GB001-ASTHMA-201-SITE001-0076,17,BMI,BMI,12.8,kg/m2,12.8,12.8,kg/m2,,,,3.0,WEEK 2,TREATMENT,2024-05-02,12
GB001-ASTHMA-201,VS,GB001-ASTHMA-201-SITE001-0076,18,DIABP,Diastolic Blood Pressure,81.4,mmHg,81.4,81.4,mmHg,,,,3.0,WEEK 2,TREATMENT,2024-05-02,12
GB001-ASTHMA-201,VS,GB001-ASTHMA-201-SITE001-0076,19,HEIGHT,Height,176.7,cm,176.7,176.7,cm,,,,3.0,WEEK 2,TREATMENT,2024-05-02,12
GB001-ASTHMA-201,VS,GB001-ASTHMA-201-SITE001-0076,20,PULSE,Pulse Rate,84.2,beats/min,84.2,84.2,beats/min,,,,3.0,WEEK 2,TREATMENT,2024-05-02,12
GB001-ASTHMA-201,VS,GB001-ASTHMA-201-SITE001-0076,21,RESP,Respiratory Rate,21.1,breaths/min,21.1,21.1,breaths/min,,,,3.0,WEEK 2,TREATMENT,2024-05-02,12
GB001-ASTHMA-201,VS,GB001-ASTHMA-201-SITE001-0076,22,SYSBP,Systolic Blood Pressure,125.5,mmHg,125.5,125.5,mmHg,,,,3.0,WEEK 2,TREATMENT,2024-05-02,12
GB001-ASTHMA-201,VS,GB001-ASTHMA-201-SITE001-0076,23,TEMP,Temperature,36.9,C,36.9,36.9,C,,,,3.0,WEEK 2,TREATMENT,2024-05-02,12
GB001-ASTHMA-201,VS,GB001-ASTHMA-201-SITE001-0076,24,WEIGHT,Weight,40.0,kg,40.0,40.0,kg,,,,3.0,WEEK 2,TREATMENT,2024-05-02,12
GB001-ASTHMA-201,VS,GB001-ASTHMA-201-SITE001-0076,25,BMI,BMI,12.8,kg/m2,12.8,12.8,kg/m2,,,,4.0,WEEK 4,TREATMENT,2024-05-17,27
GB001-ASTHMA-201,VS,GB001-ASTHMA-201-SITE001-0076,26,DIABP,Diastolic Blood Pressure,83.0,mmHg,83.0,83.0,mmHg,,,,4.0,WEEK 4,TREATMENT,2024-05-17,27
GB001-ASTHMA-201,VS,GB001-ASTHMA-201-SITE001-0076,27,HEIGHT,Height,176.8,cm,176.8,176.8,cm,,,,4.0,WEEK 4,TREATMENT,2024-05-17,27
GB001-ASTHMA-201,VS,GB001-ASTHMA-201-SITE001-0076,28,PULSE,Pulse Rate,89.7,beats/min,89.7,89.7,beats/min,,,,4.0,WEEK 4,TREATMENT,2024-05-17,27
GB001-ASTHMA-201,VS,GB001-ASTHMA-201-SITE001-0076,29,RESP,Respiratory Rate,18.0,breaths/min,18.0,18.0,breaths/min,,,,4.0,WEEK 4,TREATMENT,2024-05-17,27
GB001-ASTHMA-201,VS,GB001-ASTHMA-201-SITE001-0076,30,SYSBP,Systolic Blood Pressure,,,,,,NOT DONE,,,4.0,WEEK 4,TREATMENT,2024-05-17,27
GB001-ASTHMA-201,VS,GB001-ASTHMA-201-SITE001-0076,31,TEMP,Temperature,37.2,C,37.2,37.2,C,,,,4.0,WEEK 4,TREATMENT,2024-05-17,27
GB001-ASTHMA-201,VS,GB001-ASTHMA-201-SITE001-0076,32,WEIGHT,Weight,40.0,kg,40.0,40.0,kg,,,,4.0,WEEK 4,TREATMENT,2024-05-17,27
GB001-ASTHMA-201,VS,GB001-ASTHMA-201-SITE001-0076,33,DIABP,Diastolic Blood Pressure,86.3,mmHg,86.3,86.3,mmHg,,,,7.0,FOLLOW-UP,FOLLOW-UP,2024-08-15,117
GB001-ASTHMA-201,VS,GB001-ASTHMA-201-SITE001-0076,34,HEIGHT,Height,176.0,cm,176.0,176.0,cm,,,,7.0,FOLLOW-UP,FOLLOW-UP,2024-08-15,117
GB001-ASTHMA-201,VS,GB001-ASTHMA-201-SITE001-0076,35,PULSE,Pulse Rate,91.0,beats/min,91.0,91.0,beats/min,,,,7.0,FOLLOW-UP,FOLLOW-UP,2024-08-15,117
GB001-ASTHMA-201,VS,GB001-ASTHMA-201-SITE001-0076,36,RESP,Respiratory Rate,19.8,breaths/min,19.8,19.8,breaths/min,,,,7.0,FOLLOW-UP,FOLLOW-UP,2024-08-15,117
GB001-ASTHMA-201,VS,GB001-ASTHMA-201-SITE001-0076,37,SYSBP,Systolic Blood Pressure,132.2,mmHg,132.2,132.2,mmHg,,,,7.0,FOLLOW-UP,FOLLOW-UP,2024-08-15,117
GB001-ASTHMA-201,VS,GB001-ASTHMA-201-SITE001-0076,38,TEMP,Temperature,37.1,C,37.1,37.1,C,,,,7.0,FOLLOW-UP,FOLLOW-UP,2024-08-15,117
GB001-ASTHMA-201,VS,GB001-ASTHMA-201-SITE001-0076,39,WEIGHT,Weight,,,,,,NOT DONE,,,7.0,FOLLOW-UP,FOLLOW-UP,2024-08-15,117
GB001-ASTHMA-201,VS,GB001-ASTHMA-201-SITE001-0079,1,BMI,BMI,19.4,kg/m2,19.4,19.4,kg/m2,,,,1.0,SCREENING,SCREENING,2024-04-14,-15
GB001-ASTHMA-201,VS,GB001-ASTHMA-201-SITE001-0079,2,DIABP,Diastolic Blood Pressure,84.7,mmHg,84.7,84.7,mmHg,,,,1.0,SCREENING,SCREENING,2024-04-14,-15
GB001-ASTHMA-201,VS,GB001-ASTHMA-201-SITE001-0079,3,HEIGHT,Height,154.7,cm,154.7,154.7,cm,,,,1.0,SCREENING,SCREENING,2024-04-14,-15
GB001-ASTHMA-201,VS,GB001-ASTHMA-201-SITE001-0079,4,PULSE,Pulse Rate,80.4,beats/min,80.4,80.4,beats/min,,,,1.0,SCREENING,SCREENING,2024-04-14,-15
GB001-ASTHMA-201,VS,GB001-ASTHMA-201-SITE001-0079,5,RESP,Respiratory Rate,22.4,breaths/min,22.4,22.4,breaths/min,,,,1.0,SCREENING,SCREENING,2024-04-14,-15
GB001-ASTHMA-201,VS,GB001-ASTHMA-201-SITE001-0079,6,SYSBP,Systolic Blood Pressure,112.5,mmHg,112.5,112.5,mmHg,,,,1.0,SCREENING,SCREENING,2024-04-14,-15
GB001-ASTHMA-201,VS,GB001-ASTHMA-201-SITE001-0079,7,TEMP,Temperature,37.2,C,37.2,37.2,C,,,,1.0,SCREENING,SCREENING,2024-04-14,-15
GB001-ASTHMA-201,VS,GB001-ASTHMA-201-SITE001-0079,8,WEIGHT,Weight,46.4,kg,46.4,46.4,kg,,,,1.0,SCREENING,SCREENING,2024-04-14,-15
GB001-ASTHMA-201,VS,GB001-ASTHMA-201-SITE001-0079,9,BMI,BMI,19.5,kg/m2,19.5,19.5,kg/m2,,Y,Y,2.0,BASELINE,TREATMENT,2024-04-29,1
GB001-ASTHMA-201,VS,GB001-ASTHMA-201-SITE001-0079,10,DIABP,Diastolic Blood Pressure,83.8,mmHg,83.8,83.8,mmHg,,Y,Y,2.0,BASELINE,TREATMENT,2024-04-29,1
GB001-ASTHMA-201,VS,GB001-ASTHMA-201-SITE001-0079,11,HEIGHT,Height,154.3,cm,154.3,154.3,cm,,Y,Y,2.0,BASELINE,TREATMENT,2024-04-29,1
GB001-ASTHMA-201,VS,GB001-ASTHMA-201-SITE001-0079,12,PULSE,Pulse Rate,87.1,beats/min,87.1,87.1,beats/min,,Y,Y,2.0,BASELINE,TREATMENT,2024-04-29,1
GB001-ASTHMA-201,VS,GB001-ASTHMA-201-SITE001-0079,13,RESP,Respiratory Rate,22.7,breaths/min,22.7,22.7,breaths/min,,Y,Y,2.0,BASELINE,TREATMENT,2024-04-29,1
GB001-ASTHMA-201,VS,GB001-ASTHMA-201-SITE001-0079,14,SYSBP,Systolic Blood Pressure,112.2,mmHg,112.2,112.2,mmHg,,Y,Y,2.0,BASELINE,TREATMENT,2024-04-29,1
GB001-ASTHMA-201,VS,GB001-ASTHMA-201-SITE001-0079,15,TEMP,Temperature,37.0,C,37.0,37.0,C,,Y,Y,2.0,BASELINE,TREATMENT,2024-04-29,1
GB001-ASTHMA-201,VS,GB001-ASTHMA-201-SITE001-0079,16,WEIGHT,Weight,46.5,kg,46.5,46.5,kg,,Y,Y,2.0,BASELINE,TREATMENT,2024-04-29,1
GB001-ASTHMA-201,VS,GB001-ASTHMA-201-SITE001-0079,17,BMI,BMI,19.3,kg/m2,19.3,19.3,kg/m2,,,,3.0,WEEK 2,TREATMENT,2024-05-11,13
GB001-ASTHMA-201,VS,GB001-ASTHMA-201-SITE001-0079,18,DIABP,Diastolic Blood Pressure,83.0,mmHg,83.0,83.0,mmHg,,,,3.0,WEEK 2,TREATMENT,2024-05-11,13
GB001-ASTHMA-201,VS,GB001-ASTHMA-201-SITE001-0079,19,HEIGHT,Height,153.8,cm,153.8,153.8,cm,,,,3.0,WEEK 2,TREATMENT,2024-05-11,13
GB001-ASTHMA-201,VS,GB001-ASTHMA-201-SITE001-0079,20,PULSE,Pulse Rate,91.0,beats/min,91.0,91.0,beats/min,,,,3.0,WEEK 2,TREATMENT,2024-05-11,13
GB001-ASTHMA-201,VS,GB001-ASTHMA-201-SITE001-0079,21,RESP,Respiratory Rate,20.0,breaths/min,20.0,20.0,breaths/min,,,,3.0,WEEK 2,TREATMENT,2024-05-11,13
GB001-ASTHMA-201,VS,GB001-ASTHMA-201-SITE001-0079,22,SYSBP,Systolic Blood Pressure,108.6,mmHg,108.6,108.6,mmHg,,,,3.0,WEEK 2,TREATMENT,2024-05-11,13
GB001-ASTHMA-201,VS,GB001-ASTHMA-201-SITE001-0079,23,TEMP,Temperature,37.2,C,37.2,37.2,C,,,,3.0,WEEK 2,TREATMENT,2024-05-11,13
GB001-ASTHMA-201,VS,GB001-ASTHMA-201-SITE001-0079,24,WEIGHT,Weight,45.6,kg,45.6,45.6,kg,,,,3.0,WEEK 2,TREATMENT,2024-05-11,13
GB001-ASTHMA-201,VS,GB001-ASTHMA-201-SITE001-0079,25,BMI,BMI,20.0,kg/m2,20.0,20.0,kg/m2,,,,4.0,WEEK 4,TREATMENT,2024-05-27,29
GB001-ASTHMA-201,VS,GB001-ASTHMA-201-SITE001-0079,26,DIABP,Diastolic Blood Pressure,84.1,mmHg,84.1,84.1,mmHg,,,,4.0,WEEK 4,TREATMENT,2024-05-27,29
GB001-ASTHMA-201,VS,GB001-ASTHMA-201-SITE001-0079,27,HEIGHT,Height,153.3,cm,153.3,153.3,cm,,,,4.0,WEEK 4,TREATMENT,2024-05-27,29
GB001-ASTHMA-201,VS,GB001-ASTHMA-201-SITE001-0079,28,PULSE,Pulse Rate,89.2,beats/min,89.2,89.2,beats/min,,,,4.0,WEEK 4,TREATMENT,2024-05-27,29
GB001-ASTHMA-201,VS,GB001-ASTHMA-201-SITE001-0079,29,RESP,Respiratory Rate,20.7,breaths/min,20.7,20.7,breaths/min,,,,4.0,WEEK 4,TREATMENT,2024-05-27,29
GB001-ASTHMA-201,VS,GB001-ASTHMA-201-SITE001-0079,30,SYSBP,Systolic Blood Pressure,110.6,mmHg,110.6,110.6,mmHg,,,,4.0,WEEK 4,TREATMENT,2024-05-27,29
GB001-ASTHMA-201,VS,GB001-ASTHMA-201-SITE001-0079,31,TEMP,Temperature,37.3,C,37.3,37.3,C,,,,4.0,WEEK 4,TREATMENT,2024-05-27,29
GB001-ASTHMA-201,VS,GB001-ASTHMA-201-SITE001-0079,32,WEIGHT,Weight,47.0,kg,47.0,47.0,kg,,,,4.0,WEEK 4,TREATMENT,2024-05-27,29
GB001-ASTHMA-201,VS,GB001-ASTHMA-201-SITE001-0079,33,BMI,BMI,19.5,kg/m2,19.5,19.5,kg/m2,,,,5.0,WEEK 8,TREATMENT,2024-06-24,57
GB001-ASTHMA-201,VS,GB001-ASTHMA-201-SITE001-0079,34,DIABP,Diastolic Blood Pressure,83.1,mmHg,83.1,83.1,mmHg,,,,5.0,WEEK 8,TREATMENT,2024-06-24,57
GB001-ASTHMA-201,VS,GB001-ASTHMA-201-SITE001-0079,35,HEIGHT,Height,152.9,cm,152.9,152.9,cm,,,,5.0,WEEK 8,TREATMENT,2024-06-24,57
GB001-ASTHMA-201,VS,GB001-ASTHMA-201-SITE001-0079,36,PULSE,Pulse Rate,88.0,beats/min,88.0,88.0,beats/min,,,,5.0,WEEK 8,TREATMENT,2024-06-24,57
GB001-ASTHMA-201,VS,GB001-ASTHMA-201-SITE001-0079,37,RESP,Respiratory Rate,21.8,breaths/min,21.8,21.8,breaths/min,,,,5.0,WEEK 8,TREATMENT,2024-06-24,57
GB001-ASTHMA-201,VS,GB001-ASTHMA-201-SITE001-0079,38,SYSBP,Systolic Blood Pressure,109.7,mmHg,109.7,109.7,mmHg,,,,5.0,WEEK 8,TREATMENT,2024-06-24,57
GB001-ASTHMA-201,VS,GB001-ASTHMA-201-SITE001-0079,39,TEMP,Temperature,37.2,C,37.2,37.2,C,,,,5.0,WEEK 8,TREATMENT,2024-06-24,57
GB001-ASTHMA-201,VS,GB001-ASTHMA-201-SITE001-0079,40,WEIGHT,Weight,45.7,kg,45.7,45.7,kg,,,,5.0,WEEK 8,TREATMENT,2024-06-24,57
GB001-ASTHMA-201,VS,GB001-ASTHMA-201-SITE001-0079,41,BMI,BMI,18.5,kg/m2,18.5,18.5,kg/m2,,,,6.0,WEEK 12,TREATMENT,2024-07-24,87
GB001-ASTHMA-201,VS,GB001-ASTHMA-201-SITE001-0079,42,DIABP,Diastolic Blood Pressure,83.4,mmHg,83.4,83.4,mmHg,,,,6.0,WEEK 12,TREATMENT,2024-07-24,87
GB001-ASTHMA-201,VS,GB001-ASTHMA-201-SITE001-0079,43,HEIGHT,Height,152.8,cm,152.8,152.8,cm,,,,6.0,WEEK 12,TREATMENT,2024-07-24,87
GB001-ASTHMA-201,VS,GB001-ASTHMA-201-SITE001-0079,44,PULSE,Pulse Rate,84.5,beats/min,84.5,84.5,beats/min,,,,6.0,WEEK 12,TREATMENT,2024-07-24,87
GB001-ASTHMA-201,VS,GB001-ASTHMA-201-SITE001-0079,45,RESP,Respiratory Rate,21.2,breaths/min,21.2,21.2,breaths/min,,,,6.0,WEEK 12,TREATMENT,2024-07-24,87
GB001-ASTHMA-201,VS,GB001-ASTHMA-201-SITE001-0079,46,SYSBP,Systolic Blood Pressure,111.8,mmHg,111.8,111.8,mmHg,,,,6.0,WEEK 12,TREATMENT,2024-07-24,87
GB001-ASTHMA-201,VS,GB001-ASTHMA-201-SITE001-0079,47,TEMP,Temperature,37.0,C,37.0,37.0,C,,,,6.0,WEEK 12,TREATMENT,2024-07-24,87
GB001-ASTHMA-201,VS,GB001-ASTHMA-201-SITE001-0079,48,WEIGHT,Weight,43.3,kg,43.3,43.3,kg,,,,6.0,WEEK 12,TREATMENT,2024-07-24,87
GB001-ASTHMA-201,VS,GB001-ASTHMA-201-SITE001-0079,49,BMI,BMI,18.3,kg/m2,18.3,18.3,kg/m2,,,,7.0,FOLLOW-UP,FOLLOW-UP,2024-08-19,113
GB001-ASTHMA-201,VS,GB001-ASTHMA-201-SITE001-0079,50,DIABP,Diastolic Blood Pressure,84.2,mmHg,84.2,84.2,mmHg,,,,7.0,FOLLOW-UP,FOLLOW-UP,2024-08-19,113
GB001-ASTHMA-201,VS,GB001-ASTHMA-201-SITE001-0079,51,HEIGHT,Height,152.2,cm,152.2,152.2,cm,,,,7.0,FOLLOW-UP,FOLLOW-UP,2024-08-19,113
GB001-ASTHMA-201,VS,GB001-ASTHMA-201-SITE001-0079,52,PULSE,Pulse Rate,83.3,beats/min,83.3,83.3,beats/min,,,,7.0,FOLLOW-UP,FOLLOW-UP,2024-08-19,113
GB001-ASTHMA-201,VS,GB001-ASTHMA-201-SITE001-0079,53,RESP,Respiratory Rate,21.8,breaths/min,21.8,21.8,breaths/min,,,,7.0,FOLLOW-UP,FOLLOW-UP,2024-08-19,113
GB001-ASTHMA-201,VS,GB001-ASTHMA-201-SITE001-0079,54,SYSBP,Systolic Blood Pressure,113.3,mmHg,113.3,113.3,mmHg,,,,7.0,FOLLOW-UP,FOLLOW-UP,2024-08-19,113
GB001-ASTHMA-201,VS,GB001-ASTHMA-201-SITE001-0079,55,TEMP,Temperature,37.1,C,37.1,37.1,C,,,,7.0,FOLLOW-UP,FOLLOW-UP,2024-08-19,113
GB001-ASTHMA-201,VS,GB001-ASTHMA-201-SITE001-0079,56,WEIGHT,Weight,42.5,kg,42.5,42.5,kg,,,,7.0,FOLLOW-UP,FOLLOW-UP,2024-08-19,113
GB001-ASTHMA-201,VS,GB001-ASTHMA-201-SITE001-0082,1,BMI,BMI,21.5,kg/m2,21.5,21.5,kg/m2,,Y,Y,1.0,SCREENING,SCREENING,2024-02-04,-14
GB001-ASTHMA-201,VS,GB001-ASTHMA-201-SITE001-0082,2,DIABP,Diastolic Blood Pressure,57.8,mmHg,57.8,57.8,mmHg,,,,1.0,SCREENING,SCREENING,2024-02-04,-14
GB001-ASTHMA-201,VS,GB001-ASTHMA-201-SITE001-0082,3,HEIGHT,Height,163.2,cm,163.2,163.2,cm,,Y,Y,1.0,SCREENING,SCREENING,2024-02-04,-14
GB001-ASTHMA-201,VS,GB001-ASTHMA-201-SITE001-0082,4,PULSE,Pulse Rate,61.0,beats/min,61.0,61.0,beats/min,,,,1.0,SCREENING,SCREENING,2024-02-04,-14
GB001-ASTHMA-201,VS,GB001-ASTHMA-201-SITE001-0082,5,RESP,Respiratory Rate,19.0,breaths/min,19.0,19.0,breaths/min,,,,1.0,SCREENING,SCREENING,2024-02-04,-14
GB001-ASTHMA-201,VS,GB001-ASTHMA-201-SITE001-0082,6,SYSBP,Systolic Blood Pressure,133.0,mmHg,133.0,133.0,mmHg,,,,1.0,SCREENING,SCREENING,2024-02-04,-14
GB001-ASTHMA-201,VS,GB001-ASTHMA-201-SITE001-0082,7,TEMP,Temperature,36.9,C,36.9,36.9,C,,,,1.0,SCREENING,SCREENING,2024-02-04,-14
GB001-ASTHMA-201,VS,GB001-ASTHMA-201-SITE001-0082,8,WEIGHT,Weight,57.3,kg,57.3,57.3,kg,,,,1.0,SCREENING,SCREENING,2024-02-04,-14
GB001-ASTHMA-201,VS,GB001-ASTHMA-201-SITE001-0082,9,DIABP,Diastolic Blood Pressure,56.5,mmHg,56.5,56.5,mmHg,,Y,Y,2.0,BASELINE,TREATMENT,2024-02-18,1
GB001-ASTHMA-201,VS,GB001-ASTHMA-201-SITE001-0082,10,HEIGHT,Height,,,,,,NOT DONE,,,2.0,BASELINE,TREATMENT,2024-02-18,1
GB001-ASTHMA-201,VS,GB001-ASTHMA-201-SITE001-0082,11,PULSE,Pulse Rate,59.0,beats/min,59.0,59.0,beats/min,,Y,Y,2.0,BASELINE,TREATMENT,2024-02-18,1
GB001-ASTHMA-201,VS,GB001-ASTHMA-201-SITE001-0082,12,RESP,Respiratory Rate,17.5,breaths/min,17.5,17.5,breaths/min,,Y,Y,2.0,BASELINE,TREATMENT,2024-02-18,1
GB001-ASTHMA-201,VS,GB001-ASTHMA-201-SITE001-0082,13,SYSBP,Systolic Blood Pressure,132.1,mmHg,132.1,132.1,mmHg,,Y,Y,2.0,BASELINE,TREATMENT,2024-02-18,1
GB001-ASTHMA-201,VS,GB001-ASTHMA-201-SITE001-0082,14,TEMP,Temperature,37.1,C,37.1,37.1,C,,Y,Y,2.0,BASELINE,TREATMENT,2024-02-18,1
GB001-ASTHMA-201,VS,GB001-ASTHMA-201-SITE001-0082,15,WEIGHT,Weight,57.4,kg,57.4,57.4,kg,,Y,Y,2.0,BASELINE,TREATMENT,2024-02-18,1
GB001-ASTHMA-201,VS,GB001-ASTHMA-201-SITE001-0082,16,BMI,BMI,21.6,kg/m2,21.6,21.6,kg/m2,,,,3.0,WEEK 2,TREATMENT,2024-03-03,15
GB001-ASTHMA-201,VS,GB001-ASTHMA-201-SITE001-0082,17,DIABP,Diastolic Blood Pressure,54.8,mmHg,54.8,54.8,mmHg,,,,3.0,WEEK 2,TREATMENT,2024-03-03,15
GB001-ASTHMA-201,VS,GB001-ASTHMA-201-SITE001-0082,18,HEIGHT,Height,163.7,cm,163.7,163.7,cm,,,,3.0,WEEK 2,TREATMENT,2024-03-03,15
GB001-ASTHMA-201,VS,GB001-ASTHMA-201-SITE001-0082,19,PULSE,Pulse Rate,61.2,beats/min,61.2,61.2,beats/min,,,,3.0,WEEK 2,TREATMENT,2024-03-03,15
GB001-ASTHMA-201,VS,GB001-ASTHMA-201-SITE001-0082,20,RESP,Respiratory Rate,19.0,breaths/min,19.0,19.0,breaths/min,,,,3.0,WEEK 2,TREATMENT,2024-03-03,15
GB001-ASTHMA-201,VS,GB001-ASTHMA-201-SITE001-0082,21,SYSBP,Systolic Blood Pressure,127.0,mmHg,127.0,127.0,mmHg,,,,3.0,WEEK 2,TREATMENT,2024-03-03,15
GB001-ASTHMA-201,VS,GB001-ASTHMA-201-SITE001-0082,22,TEMP,Temperature,37.1,C,37.1,37.1,C,,,,3.0,WEEK 2,TREATMENT,2024-03-03,15
GB001-ASTHMA-201,VS,GB001-ASTHMA-201-SITE001-0082,23,WEIGHT,Weight,57.8,kg,57.8,57.8,kg,,,,3.0,WEEK 2,TREATMENT,2024-03-03,15
GB001-ASTHMA-201,VS,GB001-ASTHMA-201-SITE001-0082,24,BMI,BMI,22.5,kg/m2,22.5,22.5,kg/m2,,,,5.0,WEEK 8,TREATMENT,2024-04-14,57
GB001-ASTHMA-201,VS,GB001-ASTHMA-201-SITE001-0082,25,DIABP,Diastolic Blood Pressure,55.8,mmHg,55.8,55.8,mmHg,,,,5.0,WEEK 8,TREATMENT,2024-04-14,57
GB001-ASTHMA-201,VS,GB001-ASTHMA-201-SITE001-0082,26,HEIGHT,Height,162.9,cm,162.9,162.9,cm,,,,5.0,WEEK 8,TREATMENT,2024-04-14,57
GB001-ASTHMA-201,VS,GB001-ASTHMA-201-SITE001-0082,27,PULSE,Pulse Rate,67.3,beats/min,67.3,67.3,beats/min,,,,5.0,WEEK 8,TREATMENT,2024-04-14,57
GB001-ASTHMA-201,VS,GB001-ASTHMA-201-SITE001-0082,28,RESP,Respiratory Rate,18.3,breaths/min,18.3,18.3,breaths/min,,,,5.0,WEEK 8,TREATMENT,2024-04-14,57
GB001-ASTHMA-201,VS,GB001-ASTHMA-201-SITE001-0082,29,SYSBP,Systolic Blood Pressure,127.2,mmHg,127.2,127.2,mmHg,,,,5.0,WEEK 8,TREATMENT,2024-04-14,57
GB001-ASTHMA-201,VS,GB001-ASTHMA-201-SITE001-0082,30,TEMP,Temperature,36.9,C,36.9,36.9,C,,,,5.0,WEEK 8,TREATMENT,2024-04-14,57
GB001-ASTHMA-201,VS,GB001-ASTHMA-201-SITE001-0082,31,WEIGHT,Weight,59.6,kg,59.6,59.6,kg,,,,5.0,WEEK 8,TREATMENT,2024-04-14,57
GB001-ASTHMA-201,VS,GB001-ASTHMA-201-SITE001-0082,32,BMI,BMI,21.6,kg/m2,21.6,21.6,kg/m2,,,,6.0,WEEK 12,TREATMENT,2024-05-14,87
GB001-ASTHMA-201,VS,GB001-ASTHMA-201-SITE001-0082,33,DIABP,Diastolic Blood Pressure,55.2,mmHg,55.2,55.2,mmHg,,,,6.0,WEEK 12,TREATMENT,2024-05-14,87
GB001-ASTHMA-201,VS,GB001-ASTHMA-201-SITE001-0082,34,HEIGHT,Height,163.0,cm,163.0,163.0,cm,,,,6.0,WEEK 12,TREATMENT,2024-05-14,87
GB001-ASTHMA-201,VS,GB001-ASTHMA-201-SITE001-0082,35,PULSE,Pulse Rate,64.5,beats/min,64.5,64.5,beats/min,,,,6.0,WEEK 12,TREATMENT,2024-05-14,87
GB001-ASTHMA-201,VS,GB001-ASTHMA-201-SITE001-0082,36,RESP,Respiratory Rate,17.0,breaths/min,17.0,17.0,breaths/min,,,,6.0,WEEK 12,TREATMENT,2024-05-14,87
GB001-ASTHMA-201,VS,GB001-ASTHMA-201-SITE001-0082,37,SYSBP,Systolic Blood Pressure,127.5,mmHg,127.5,127.5,mmHg,,,,6.0,WEEK 12,TREATMENT,2024-05-14,87
GB001-ASTHMA-201,VS,GB001-ASTHMA-201-SITE001-0082,38,TEMP,Temperature,37.0,C,37.0,37.0,C,,,,6.0,WEEK 12,TREATMENT,2024-05-14,87
GB001-ASTHMA-201,VS,GB001-ASTHMA-201-SITE001-0082,39,WEIGHT,Weight,57.4,kg,57.4,57.4,kg,,,,6.0,WEEK 12,TREATMENT,2024-05-14,87
GB001-ASTHMA-201,VS,GB001-ASTHMA-201-SITE001-0082,40,BMI,BMI,21.9,kg/m2,21.9,21.9,kg/m2,,,,7.0,FOLLOW-UP,FOLLOW-UP,2024-06-07,111
GB001-ASTHMA-201,VS,GB001-ASTHMA-201-SITE001-0082,41,DIABP,Diastolic Blood Pressure,57.1,mmHg,57.1,57.1,mmHg,,,,7.0,FOLLOW-UP,FOLLOW-UP,2024-06-07,111
GB001-ASTHMA-201,VS,GB001-ASTHMA-201-SITE001-0082,42,HEIGHT,Height,163.5,cm,163.5,163.5,cm,,,,7.0,FOLLOW-UP,FOLLOW-UP,2024-06-07,111
GB001-ASTHMA-201,VS,GB001-ASTHMA-201-SITE001-0082,43,PULSE,Pulse Rate,66.9,beats/min,66.9,66.9,beats/min,,,,7.0,FOLLOW-UP,FOLLOW-UP,2024-06-07,111
GB001-ASTHMA-201,VS,GB001-ASTHMA-201-SITE001-0082,44,RESP,Respiratory Rate,19.3,breaths/min,19.3,19.3,breaths/min,,,,7.0,FOLLOW-UP,FOLLOW-UP,2024-06-07,111
GB001-ASTHMA-201,VS,GB001-ASTHMA-201-SITE001-0082,45,SYSBP,Systolic Blood Pressure,134.4,mmHg,134.4,134.4,mmHg,,,,7.0,FOLLOW-UP,FOLLOW-UP,2024-06-07,111
GB001-ASTHMA-201,VS,GB001-ASTHMA-201-SITE001-0082,46,TEMP,Temperature,37.0,C,37.0,37.0,C,,,,7.0,FOLLOW-UP,FOLLOW-UP,2024-06-07,111
GB001-ASTHMA-201,VS,GB001-ASTHMA-201-SITE001-0082,47,WEIGHT,Weight,58.6,kg,58.6,58.6,kg,,,,7.0,FOLLOW-UP,FOLLOW-UP,2024-06-07,111
GB001-ASTHMA-201,VS,GB001-ASTHMA-201-SITE001-0085,1,BMI,BMI,32.1,kg/m2,32.1,32.1,kg/m2,,,,1.0,SCREENING,SCREENING,2024-03-12,-26
GB001-ASTHMA-201,VS,GB001-ASTHMA-201-SITE001-0085,2,DIABP,Diastolic Blood Pressure,69.5,mmHg,69.5,69.5,mmHg,,,,1.0,SCREENING,SCREENING,2024-03-12,-26
GB001-ASTHMA-201,VS,GB001-ASTHMA-201-SITE001-0085,3,HEIGHT,Height,166.7,cm,166.7,166.7,cm,,,,1.0,SCREENING,SCREENING,2024-03-12,-26
GB001-ASTHMA-201,VS,GB001-ASTHMA-201-SITE001-0085,4,PULSE,Pulse Rate,70.4,beats/min,70.4,70.4,beats/min,,,,1.0,SCREENING,SCREENING,2024-03-12,-26
GB001-ASTHMA-201,VS,GB001-ASTHMA-201-SITE001-0085,5,RESP,Respiratory Rate,10.9,breaths/min,10.9,10.9,breaths/min,,,,1.0,SCREENING,SCREENING,2024-03-12,-26
GB001-ASTHMA-201,VS,GB001-ASTHMA-201-SITE001-0085,6,SYSBP,Systolic Blood Pressure,118.4,mmHg,118.4,118.4,mmHg,,,,1.0,SCREENING,SCREENING,2024-03-12,-26
GB001-ASTHMA-201,VS,GB001-ASTHMA-201-SITE001-0085,7,TEMP,Temperature,36.4,C,36.4,36.4,C,,,,1.0,SCREENING,SCREENING,2024-03-12,-26
GB001-ASTHMA-201,VS,GB001-ASTHMA-201-SITE001-0085,8,WEIGHT,Weight,89.1,kg,89.1,89.1,kg,,,,1.0,SCREENING,SCREENING,2024-03-12,-26
GB001-ASTHMA-201,VS,GB001-ASTHMA-201-SITE001-0085,9,BMI,BMI,31.7,kg/m2,31.7,31.7,kg/m2,,Y,Y,2.0,BASELINE,TREATMENT,2024-04-07,1
GB001-ASTHMA-201,VS,GB001-ASTHMA-201-SITE001-0085,10,DIABP,Diastolic Blood Pressure,68.8,mmHg,68.8,68.8,mmHg,,Y,Y,2.0,BASELINE,TREATMENT,2024-04-07,1
GB001-ASTHMA-201,VS,GB001-ASTHMA-201-SITE001-0085,11,HEIGHT,Height,166.4,cm,166.4,166.4,cm,,Y,Y,2.0,BASELINE,TREATMENT,2024-04-07,1
GB001-ASTHMA-201,VS,GB001-ASTHMA-201-SITE001-0085,12,PULSE,Pulse Rate,64.9,beats/min,64.9,64.9,beats/min,,Y,Y,2.0,BASELINE,TREATMENT,2024-04-07,1
GB001-ASTHMA-201,VS,GB001-ASTHMA-201-SITE001-0085,13,RESP,Respiratory Rate,11.5,breaths/min,11.5,11.5,breaths/min,,Y,Y,2.0,BASELINE,TREATMENT,2024-04-07,1
GB001-ASTHMA-201,VS,GB001-ASTHMA-201-SITE001-0085,14,SYSBP,Systolic Blood Pressure,115.8,mmHg,115.8,115.8,mmHg,,Y,Y,2.0,BASELINE,TREATMENT,2024-04-07,1
GB001-ASTHMA-201,VS,GB001-ASTHMA-201-SITE001-0085,15,TEMP,Temperature,36.6,C,36.6,36.6,C,,Y,Y,2.0,BASELINE,TREATMENT,2024-04-07,1
GB001-ASTHMA-201,VS,GB001-ASTHMA-201-SITE001-0085,16,WEIGHT,Weight,87.8,kg,87.8,87.8,kg,,Y,Y,2.0,BASELINE,TREATMENT,2024-04-07,1
GB001-ASTHMA-201,VS,GB001-ASTHMA-201-SITE001-0085,17,BMI,BMI,32.7,kg/m2,32.7,32.7,kg/m2,,,,4.0,WEEK 4,TREATMENT,2024-05-06,30
GB001-ASTHMA-201,VS,GB001-ASTHMA-201-SITE001-0085,18,DIABP,Diastolic Blood Pressure,69.4,mmHg,69.4,69.4,mmHg,,,,4.0,WEEK 4,TREATMENT,2024-05-06,30
GB001-ASTHMA-201,VS,GB001-ASTHMA-201-SITE001-0085,19,HEIGHT,Height,166.6,cm,166.6,166.6,cm,,,,4.0,WEEK 4,TREATMENT,2024-05-06,30
GB001-ASTHMA-201,VS,GB001-ASTHMA-201-SITE001-0085,20,PULSE,Pulse Rate,63.7,beats/min,63.7,63.7,beats/min,,,,4.0,WEEK 4,TREATMENT,2024-05-06,30
GB001-ASTHMA-201,VS,GB001-ASTHMA-201-SITE001-0085,21,RESP,Respiratory Rate,12.2,breaths/min,12.2,12.2,breaths/min,,,,4.0,WEEK 4,TREATMENT,2024-05-06,30
GB001-ASTHMA-201,VS,GB001-ASTHMA-201-SITE001-0085,22,SYSBP,Systolic Blood Pressure,116.6,mmHg,116.6,116.6,mmHg,,,,4.0,WEEK 4,TREATMENT,2024-05-06,30
GB001-ASTHMA-201,VS,GB001-ASTHMA-201-SITE001-0085,23,TEMP,Temperature,36.4,C,36.4,36.4,C,,,,4.0,WEEK 4,TREATMENT,2024-05-06,30
GB001-ASTHMA-201,VS,GB001-ASTHMA-201-SITE001-0085,24,WEIGHT,Weight,90.8,kg,90.8,90.8,kg,,,,4.0,WEEK 4,TREATMENT,2024-05-06,30
GB001-ASTHMA-201,VS,GB001-ASTHMA-201-SITE001-0085,25,BMI,BMI,33.8,kg/m2,33.8,33.8,kg/m2,,,,5.0,WEEK 8,TREATMENT,2024-06-04,59
GB001-ASTHMA-201,VS,GB001-ASTHMA-201-SITE001-0085,26,DIABP,Diastolic Blood Pressure,66.7,mmHg,66.7,66.7,mmHg,,,,5.0,WEEK 8,TREATMENT,2024-06-04,59
GB001-ASTHMA-201,VS,GB001-ASTHMA-201-SITE001-0085,27,HEIGHT,Height,167.6,cm,167.6,167.6,cm,,,,5.0,WEEK 8,TREATMENT,2024-06-04,59
GB001-ASTHMA-201,VS,GB001-ASTHMA-201-SITE001-0085,28,PULSE,Pulse Rate,66.3,beats/min,66.3,66.3,beats/min,,,,5.0,WEEK 8,TREATMENT,2024-06-04,59
GB001-ASTHMA-201,VS,GB001-ASTHMA-201-SITE001-0085,29,RESP,Respiratory Rate,10.4,breaths/min,10.4,10.4,breaths/min,,,,5.0,WEEK 8,TREATMENT,2024-06-04,59
GB001-ASTHMA-201,VS,GB001-ASTHMA-201-SITE001-0085,30,SYSBP,Systolic Blood Pressure,112.5,mmHg,112.5,112.5,mmHg,,,,5.0,WEEK 8,TREATMENT,2024-06-04,59
GB001-ASTHMA-201,VS,GB001-ASTHMA-201-SITE001-0085,31,TEMP,Temperature,36.3,C,36.3,36.3,C,,,,5.0,WEEK 8,TREATMENT,2024-06-04,59
GB001-ASTHMA-201,VS,GB001-ASTHMA-201-SITE001-0085,32,WEIGHT,Weight,95.0,kg,95.0,95.0,kg,,,,5.0,WEEK 8,TREATMENT,2024-06-04,59
GB001-ASTHMA-201,VS,GB001-ASTHMA-201-SITE001-0085,33,BMI,BMI,33.3,kg/m2,33.3,33.3,kg/m2,,,,6.0,WEEK 12,TREATMENT,2024-07-02,87
GB001-ASTHMA-201,VS,GB001-ASTHMA-201-SITE001-0085,34,DIABP,Diastolic Blood Pressure,66.4,mmHg,66.4,66.4,mmHg,,,,6.0,WEEK 12,TREATMENT,2024-07-02,87
GB001-ASTHMA-201,VS,GB001-ASTHMA-201-SITE001-0085,35,HEIGHT,Height,168.1,cm,168.1,168.1,cm,,,,6.0,WEEK 12,TREATMENT,2024-07-02,87
GB001-ASTHMA-201,VS,GB001-ASTHMA-201-SITE001-0085,36,PULSE,Pulse Rate,67.3,beats/min,67.3,67.3,beats/min,,,,6.0,WEEK 12,TREATMENT,2024-07-02,87
GB001-ASTHMA-201,VS,GB001-ASTHMA-201-SITE001-0085,37,RESP,Respiratory Rate,12.8,breaths/min,12.8,12.8,breaths/min,,,,6.0,WEEK 12,TREATMENT,2024-07-02,87
GB001-ASTHMA-201,VS,GB001-ASTHMA-201-SITE001-0085,38,SYSBP,Systolic Blood Pressure,113.7,mmHg,113.7,113.7,mmHg,,,,6.0,WEEK 12,TREATMENT,2024-07-02,87
GB001-ASTHMA-201,VS,GB001-ASTHMA-201-SITE001-0085,39,TEMP,Temperature,36.4,C,36.4,36.4,C,,,,6.0,WEEK 12,TREATMENT,2024-07-02,87
GB001-ASTHMA-201,VS,GB001-ASTHMA-201-SITE001-0085,40,WEIGHT,Weight,94.2,kg,94.2,94.2,kg,,,,6.0,WEEK 12,TREATMENT,2024-07-02,87
GB001-ASTHMA-201,VS,GB001-ASTHMA-201-SITE001-0085,41,BMI,BMI,33.1,kg/m2,33.1,33.1,kg/m2,,,,7.0,FOLLOW-UP,FOLLOW-UP,2024-08-02,118
GB001-ASTHMA-201,VS,GB001-ASTHMA-201-SITE001-0085,42,DIABP,Diastolic Blood Pressure,65.4,mmHg,65.4,65.4,mmHg,,,,7.0,FOLLOW-UP,FOLLOW-UP,2024-08-02,118
GB001-ASTHMA-201,VS,GB001-ASTHMA-201-SITE001-0085,43,HEIGHT,Height,168.4,cm,168.4,168.4,cm,,,,7.0,FOLLOW-UP,FOLLOW-UP,2024-08-02,118
GB001-ASTHMA-201,VS,GB001-ASTHMA-201-SITE001-0085,44,PULSE,Pulse Rate,70.7,beats/min,70.7,70.7,beats/min,,,,7.0,FOLLOW-UP,FOLLOW-UP,2024-08-02,118
GB001-ASTHMA-201,VS,GB001-ASTHMA-201-SITE001-0085,45,RESP,Respiratory Rate,14.5,breaths/min,14.5,14.5,breaths/min,,,,7.0,FOLLOW-UP,FOLLOW-UP,2024-08-02,118
GB001-ASTHMA-201,VS,GB001-ASTHMA-201-SITE001-0085,46,SYSBP,Systolic Blood Pressure,110.5,mmHg,110.5,110.5,mmHg,,,,7.0,FOLLOW-UP,FOLLOW-UP,2024-08-02,118
GB001-ASTHMA-201,VS,GB001-ASTHMA-201-SITE001-0085,47,TEMP,Temperature,36.4,C,36.4,36.4,C,,,,7.0,FOLLOW-UP,FOLLOW-UP,2024-08-02,118
GB001-ASTHMA-201,VS,GB001-ASTHMA-201-SITE001-0085,48,WEIGHT,Weight,93.9,kg,93.9,93.9,kg,,,,7.0,FOLLOW-UP,FOLLOW-UP,2024-08-02,118
GB001-ASTHMA-201,VS,GB001-ASTHMA-201-SITE001-0088,1,BMI,BMI,25.1,kg/m2,25.1,25.1,kg/m2,,,,1.0,SCREENING,SCREENING,2024-02-22,-14
GB001-ASTHMA-201,VS,GB001-ASTHMA-201-SITE001-0088,2,DIABP,Diastolic Blood Pressure,90.3,mmHg,90.3,90.3,mmHg,,,,1.0,SCREENING,SCREENING,2024-02-22,-14
GB001-ASTHMA-201,VS,GB001-ASTHMA-201-SITE001-0088,3,HEIGHT,Height,158.6,cm,158.6,158.6,cm,,,,1.0,SCREENING,SCREENING,2024-02-22,-14
GB001-ASTHMA-201,VS,GB001-ASTHMA-201-SITE001-0088,4,PULSE,Pulse Rate,80.1,beats/min,80.1,80.1,beats/min,,,,1.0,SCREENING,SCREENING,2024-02-22,-14
GB001-ASTHMA-201,VS,GB001-ASTHMA-201-SITE001-0088,5,RESP,Respiratory Rate,14.2,breaths/min,14.2,14.2,breaths/min,,,,1.0,SCREENING,SCREENING,2024-02-22,-14
GB001-ASTHMA-201,VS,GB001-ASTHMA-201-SITE001-0088,6,SYSBP,Systolic Blood Pressure,97.0,mmHg,97.0,97.0,mmHg,,,,1.0,SCREENING,SCREENING,2024-02-22,-14
GB001-ASTHMA-201,VS,GB001-ASTHMA-201-SITE001-0088,7,TEMP,Temperature,36.8,C,36.8,36.8,C,,,,1.0,SCREENING,SCREENING,2024-02-22,-14
GB001-ASTHMA-201,VS,GB001-ASTHMA-201-SITE001-0088,8,WEIGHT,Weight,63.1,kg,63.1,63.1,kg,,,,1.0,SCREENING,SCREENING,2024-02-22,-14
GB001-ASTHMA-201,VS,GB001-ASTHMA-201-SITE001-0088,9,BMI,BMI,25.4,kg/m2,25.4,25.4,kg/m2,,Y,Y,2.0,BASELINE,TREATMENT,2024-03-07,1
GB001-ASTHMA-201,VS,GB001-ASTHMA-201-SITE001-0088,10,DIABP,Diastolic Blood Pressure,93.3,mmHg,93.3,93.3,mmHg,,Y,Y,2.0,BASELINE,TREATMENT,2024-03-07,1
GB001-ASTHMA-201,VS,GB001-ASTHMA-201-SITE001-0088,11,HEIGHT,Height,158.2,cm,158.2,158.2,cm,,Y,Y,2.0,BASELINE,TREATMENT,2024-03-07,1
GB001-ASTHMA-201,VS,GB001-ASTHMA-201-SITE001-0088,12,PULSE,Pulse Rate,80.1,beats/min,80.1,80.1,beats/min,,Y,Y,2.0,BASELINE,TREATMENT,2024-03-07,1
GB001-ASTHMA-201,VS,GB001-ASTHMA-201-SITE001-0088,13,RESP,Respiratory Rate,14.2,breaths/min,14.2,14.2,breaths/min,,Y,Y,2.0,BASELINE,TREATMENT,2024-03-07,1
GB001-ASTHMA-201,VS,GB001-ASTHMA-201-SITE001-0088,14,SYSBP,Systolic Blood Pressure,99.0,mmHg,99.0,99.0,mmHg,,Y,Y,2.0,BASELINE,TREATMENT,2024-03-07,1
GB001-ASTHMA-201,VS,GB001-ASTHMA-201-SITE001-0088,15,TEMP,Temperature,36.9,C,36.9,36.9,C,,Y,Y,2.0,BASELINE,TREATMENT,2024-03-07,1
GB001-ASTHMA-201,VS,GB001-ASTHMA-201-SITE001-0088,16,WEIGHT,Weight,63.5,kg,63.5,63.5,kg,,Y,Y,2.0,BASELINE,TREATMENT,2024-03-07,1
GB001-ASTHMA-201,VS,GB001-ASTHMA-201-SITE001-0088,17,BMI,BMI,24.9,kg/m2,24.9,24.9,kg/m2,,,,3.0,WEEK 2,TREATMENT,2024-03-22,16
GB001-ASTHMA-201,VS,GB001-ASTHMA-201-SITE001-0088,18,DIABP,Diastolic Blood Pressure,89.5,mmHg,89.5,89.5,mmHg,,,,3.0,WEEK 2,TREATMENT,2024-03-22,16
GB001-ASTHMA-201,VS,GB001-ASTHMA-201-SITE001-0088,19,HEIGHT,Height,157.2,cm,157.2,157.2,cm,,,,3.0,WEEK 2,TREATMENT,2024-03-22,16
GB001-ASTHMA-201,VS,GB001-ASTHMA-201-SITE001-0088,20,PULSE,Pulse Rate,82.5,beats/min,82.5,82.5,beats/min,,,,3.0,WEEK 2,TREATMENT,2024-03-22,16
GB001-ASTHMA-201,VS,GB001-ASTHMA-201-SITE001-0088,21,RESP,Respiratory Rate,14.1,breaths/min,14.1,14.1,breaths/min,,,,3.0,WEEK 2,TREATMENT,2024-03-22,16
GB001-ASTHMA-201,VS,GB001-ASTHMA-201-SITE001-0088,22,SYSBP,Systolic Blood Pressure,97.8,mmHg,97.8,97.8,mmHg,,,,3.0,WEEK 2,TREATMENT,2024-03-22,16
GB001-ASTHMA-201,VS,GB001-ASTHMA-201-SITE001-0088,23,TEMP,Temperature,36.9,C,36.9,36.9,C,,,,3.0,WEEK 2,TREATMENT,2024-03-22,16
GB001-ASTHMA-201,VS,GB001-ASTHMA-201-SITE001-0088,24,WEIGHT,Weight,61.5,kg,61.5,61.5,kg,,,,3.0,WEEK 2,TREATMENT,2024-03-22,16
GB001-ASTHMA-201,VS,GB001-ASTHMA-201-SITE001-0088,25,BMI,BMI,24.6,kg/m2,24.6,24.6,kg/m2,,,,4.0,WEEK 4,TREATMENT,2024-04-04,29
GB001-ASTHMA-201,VS,GB001-ASTHMA-201-SITE001-0088,26,DIABP,Diastolic Blood Pressure,90.9,mmHg,90.9,90.9,mmHg,,,,4.0,WEEK 4,TREATMENT,2024-04-04,29
GB001-ASTHMA-201,VS,GB001-ASTHMA-201-SITE001-0088,27,HEIGHT,Height,157.6,cm,157.6,157.6,cm,,,,4.0,WEEK 4,TREATMENT,2024-04-04,29
GB001-ASTHMA-201,VS,GB001-ASTHMA-201-SITE001-0088,28,PULSE,Pulse Rate,84.9,beats/min,84.9,84.9,beats/min,,,,4.0,WEEK 4,TREATMENT,2024-04-04,29
GB001-ASTHMA-201,VS,GB001-ASTHMA-201-SITE001-0088,29,RESP,Respiratory Rate,12.8,breaths/min,12.8,12.8,breaths/min,,,,4.0,WEEK 4,TREATMENT,2024-04-04,29
GB001-ASTHMA-201,VS,GB001-ASTHMA-201-SITE001-0088,30,SYSBP,Systolic Blood Pressure,98.5,mmHg,98.5,98.5,mmHg,,,,4.0,WEEK 4,TREATMENT,2024-04-04,29
GB001-ASTHMA-201,VS,GB001-ASTHMA-201-SITE001-0088,31,TEMP,Temperature,37.0,C,37.0,37.0,C,,,,4.0,WEEK 4,TREATMENT,2024-04-04,29
GB001-ASTHMA-201,VS,GB001-ASTHMA-201-SITE001-0088,32,WEIGHT,Weight,61.2,kg,61.2,61.2,kg,,,,4.0,WEEK 4,TREATMENT,2024-04-04,29
GB001-ASTHMA-201,VS,GB001-ASTHMA-201-SITE001-0088,33,BMI,BMI,24.9,kg/m2,24.9,24.9,kg/m2,,,,5.0,WEEK 8,TREATMENT,2024-05-01,56
GB001-ASTHMA-201,VS,GB001-ASTHMA-201-SITE001-0088,34,DIABP,Diastolic Blood Pressure,92.4,mmHg,92.4,92.4,mmHg,,,,5.0,WEEK 8,TREATMENT,2024-05-01,56
GB001-ASTHMA-201,VS,GB001-ASTHMA-201-SITE001-0088,35,HEIGHT,Height,157.6,cm,157.6,157.6,cm,,,,5.0,WEEK 8,TREATMENT,2024-05-01,56
GB001-ASTHMA-201,VS,GB001-ASTHMA-201-SITE001-0088,36,PULSE,Pulse Rate,80.1,beats/min,80.1,80.1,beats/min,,,,5.0,WEEK 8,TREATMENT,2024-05-01,56
GB001-ASTHMA-201,VS,GB001-ASTHMA-201-SITE001-0088,37,RESP,Respiratory Rate,13.6,breaths/min,13.6,13.6,breaths/min,,,,5.0,WEEK 8,TREATMENT,2024-05-01,56
GB001-ASTHMA-201,VS,GB001-ASTHMA-201-SITE001-0088,38,SYSBP,Systolic Blood Pressure,100.1,mmHg,100.1,100.1,mmHg,,,,5.0,WEEK 8,TREATMENT,2024-05-01,56
GB001-ASTHMA-201,VS,GB001-ASTHMA-201-SITE001-0088,39,TEMP,Temperature,37.1,C,37.1,37.1,C,,,,5.0,WEEK 8,TREATMENT,2024-05-01,56
GB001-ASTHMA-201,VS,GB001-ASTHMA-201-SITE001-0088,40,WEIGHT,Weight,61.8,kg,61.8,61.8,kg,,,,5.0,WEEK 8,TREATMENT,2024-05-01,56
GB001-ASTHMA-201,VS,GB001-ASTHMA-201-SITE001-0088,41,BMI,BMI,26.2,kg/m2,26.2,26.2,kg/m2,,,,7.0,FOLLOW-UP,FOLLOW-UP,2024-06-30,116
GB001-ASTHMA-201,VS,GB001-ASTHMA-201-SITE001-0088,42,DIABP,Diastolic Blood Pressure,91.8,mmHg,91.8,91.8,mmHg,,,,7.0,FOLLOW-UP,FOLLOW-UP,2024-06-30,116
GB001-ASTHMA-201,VS,GB001-ASTHMA-201-SITE001-0088,43,HEIGHT,Height,156.9,cm,156.9,156.9,cm,,,,7.0,FOLLOW-UP,FOLLOW-UP,2024-06-30,116
GB001-ASTHMA-201,VS,GB001-ASTHMA-201-SITE001-0088,44,PULSE,Pulse Rate,81.9,beats/min,81.9,81.9,beats/min,,,,7.0,FOLLOW-UP,FOLLOW-UP,2024-06-30,116
GB001-ASTHMA-201,VS,GB001-ASTHMA-201-SITE001-0088,45,RESP,Respiratory Rate,13.3,breaths/min,13.3,13.3,breaths/min,,,,7.0,FOLLOW-UP,FOLLOW-UP,2024-06-30,116
GB001-ASTHMA-201,VS,GB001-ASTHMA-201-SITE001-0088,46,SYSBP,Systolic Blood Pressure,99.7,mmHg,99.7,99.7,mmHg,,,,7.0,FOLLOW-UP,FOLLOW-UP,2024-06-30,116
GB001-ASTHMA-201,VS,GB001-ASTHMA-201-SITE001-0088,47,TEMP,Temperature,37.4,C,37.4,37.4,C,,,,7.0,FOLLOW-UP,FOLLOW-UP,2024-06-30,116
GB001-ASTHMA-201,VS,GB001-ASTHMA-201-SITE001-0088,48,WEIGHT,Weight,64.5,kg,64.5,64.5,kg,,,,7.0,FOLLOW-UP,FOLLOW-UP,2024-06-30,116
GB001-ASTHMA-201,VS,GB001-ASTHMA-201-SITE001-0091,1,BMI,BMI,19.4,kg/m2,19.4,19.4,kg/m2,,,,1.0,SCREENING,SCREENING,2024-04-04,-4
GB001-ASTHMA-201,VS,GB001-ASTHMA-201-SITE001-0091,2,DIABP,Diastolic Blood Pressure,73.1,mmHg,73.1,73.1,mmHg,,,,1.0,SCREENING,SCREENING,2024-04-04,-4
GB001-ASTHMA-201,VS,GB001-ASTHMA-201-SITE001-0091,3,HEIGHT,Height,170.3,cm,170.3,170.3,cm,,,,1.0,SCREENING,SCREENING,2024-04-04,-4
GB001-ASTHMA-201,VS,GB001-ASTHMA-201-SITE001-0091,4,PULSE,Pulse Rate,78.6,beats/min,78.6,78.6,beats/min,,,,1.0,SCREENING,SCREENING,2024-04-04,-4
GB001-ASTHMA-201,VS,GB001-ASTHMA-201-SITE001-0091,5,RESP,Respiratory Rate,12.4,breaths/min,12.4,12.4,breaths/min,,,,1.0,SCREENING,SCREENING,2024-04-04,-4
GB001-ASTHMA-201,VS,GB001-ASTHMA-201-SITE001-0091,6,SYSBP,Systolic Blood Pressure,119.8,mmHg,119.8,119.8,mmHg,,,,1.0,SCREENING,SCREENING,2024-04-04,-4
GB001-ASTHMA-201,VS,GB001-ASTHMA-201-SITE001-0091,7,TEMP,Temperature,36.3,C,36.3,36.3,C,,,,1.0,SCREENING,SCREENING,2024-04-04,-4
GB001-ASTHMA-201,VS,GB001-ASTHMA-201-SITE001-0091,8,WEIGHT,Weight,56.3,kg,56.3,56.3,kg,,,,1.0,SCREENING,SCREENING,2024-04-04,-4
GB001-ASTHMA-201,VS,GB001-ASTHMA-201-SITE001-0091,9,BMI,BMI,18.5,kg/m2,18.5,18.5,kg/m2,,Y,Y,2.0,BASELINE,TREATMENT,2024-04-08,1
GB001-ASTHMA-201,VS,GB001-ASTHMA-201-SITE001-0091,10,DIABP,Diastolic Blood Pressure,72.6,mmHg,72.6,72.6,mmHg,,Y,Y,2.0,BASELINE,TREATMENT,2024-04-08,1
GB001-ASTHMA-201,VS,GB001-ASTHMA-201-SITE001-0091,11,HEIGHT,Height,170.7,cm,170.7,170.7,cm,,Y,Y,2.0,BASELINE,TREATMENT,2024-04-08,1
GB001-ASTHMA-201,VS,GB001-ASTHMA-201-SITE001-0091,12,PULSE,Pulse Rate,81.3,beats/min,81.3,81.3,beats/min,,Y,Y,2.0,BASELINE,TREATMENT,2024-04-08,1
GB001-ASTHMA-201,VS,GB001-ASTHMA-201-SITE001-0091,13,RESP,Respiratory Rate,15.3,breaths/min,15.3,15.3,breaths/min,,Y,Y,2.0,BASELINE,TREATMENT,2024-04-08,1
GB001-ASTHMA-201,VS,GB001-ASTHMA-201-SITE001-0091,14,SYSBP,Systolic Blood Pressure,119.3,mmHg,119.3,119.3,mmHg,,Y,Y,2.0,BASELINE,TREATMENT,2024-04-08,1
GB001-ASTHMA-201,VS,GB001-ASTHMA-201-SITE001-0091,15,TEMP,Temperature,36.4,C,36.4,36.4,C,,Y,Y,2.0,BASELINE,TREATMENT,2024-04-08,1
GB001-ASTHMA-201,VS,GB001-ASTHMA-201-SITE001-0091,16,WEIGHT,Weight,53.9,kg,53.9,53.9,kg,,Y,Y,2.0,BASELINE,TREATMENT,2024-04-08,1
GB001-ASTHMA-201,VS,GB001-ASTHMA-201-SITE001-0091,17,BMI,BMI,18.5,kg/m2,18.5,18.5,kg/m2,,,,3.0,WEEK 2,TREATMENT,2024-04-19,12
GB001-ASTHMA-201,VS,GB001-ASTHMA-201-SITE001-0091,18,DIABP,Diastolic Blood Pressure,74.0,mmHg,74.0,74.0,mmHg,,,,3.0,WEEK 2,TREATMENT,2024-04-19,12
GB001-ASTHMA-201,VS,GB001-ASTHMA-201-SITE001-0091,19,HEIGHT,Height,170.0,cm,170.0,170.0,cm,,,,3.0,WEEK 2,TREATMENT,2024-04-19,12
GB001-ASTHMA-201,VS,GB001-ASTHMA-201-SITE001-0091,20,PULSE,Pulse Rate,80.7,beats/min,80.7,80.7,beats/min,,,,3.0,WEEK 2,TREATMENT,2024-04-19,12
GB001-ASTHMA-201,VS,GB001-ASTHMA-201-SITE001-0091,21,RESP,Respiratory Rate,14.8,breaths/min,14.8,14.8,breaths/min,,,,3.0,WEEK 2,TREATMENT,2024-04-19,12
GB001-ASTHMA-201,VS,GB001-ASTHMA-201-SITE001-0091,22,SYSBP,Systolic Blood Pressure,121.7,mmHg,121.7,121.7,mmHg,,,,3.0,WEEK 2,TREATMENT,2024-04-19,12
GB001-ASTHMA-201,VS,GB001-ASTHMA-201-SITE001-0091,23,TEMP,Temperature,36.6,C,36.6,36.6,C,,,,3.0,WEEK 2,TREATMENT,2024-04-19,12
GB001-ASTHMA-201,VS,GB001-ASTHMA-201-SITE001-0091,24,WEIGHT,Weight,53.5,kg,53.5,53.5,kg,,,,3.0,WEEK 2,TREATMENT,2024-04-19,12
GB001-ASTHMA-201,VS,GB001-ASTHMA-201-SITE001-0091,25,BMI,BMI,18.1,kg/m2,18.1,18.1,kg/m2,,,,4.0,WEEK 4,TREATMENT,2024-05-05,28
GB001-ASTHMA-201,VS,GB001-ASTHMA-201-SITE001-0091,26,DIABP,Diastolic Blood Pressure,73.8,mmHg,73.8,73.8,mmHg,,,,4.0,WEEK 4,TREATMENT,2024-05-05,28
GB001-ASTHMA-201,VS,GB001-ASTHMA-201-SITE001-0091,27,HEIGHT,Height,170.1,cm,170.1,170.1,cm,,,,4.0,WEEK 4,TREATMENT,2024-05-05,28
GB001-ASTHMA-201,VS,GB001-ASTHMA-201-SITE001-0091,28,PULSE,Pulse Rate,80.6,beats/min,80.6,80.6,beats/min,,,,4.0,WEEK 4,TREATMENT,2024-05-05,28
GB001-ASTHMA-201,VS,GB001-ASTHMA-201-SITE001-0091,29,RESP,Respiratory Rate,14.8,breaths/min,14.8,14.8,breaths/min,,,,4.0,WEEK 4,TREATMENT,2024-05-05,28
GB001-ASTHMA-201,VS,GB001-ASTHMA-201-SITE001-0091,30,SYSBP,Systolic Blood Pressure,121.4,mmHg,121.4,121.4,mmHg,,,,4.0,WEEK 4,TREATMENT,2024-05-05,28
GB001-ASTHMA-201,VS,GB001-ASTHMA-201-SITE001-0091,31,TEMP,Temperature,36.7,C,36.7,36.7,C,,,,4.0,WEEK 4,TREATMENT,2024-05-05,28
GB001-ASTHMA-201,VS,GB001-ASTHMA-201-SITE001-0091,32,WEIGHT,Weight,52.5,kg,52.5,52.5,kg,,,,4.0,WEEK 4,TREATMENT,2024-05-05,28
GB001-ASTHMA-201,VS,GB001-ASTHMA-201-SITE001-0091,33,BMI,BMI,17.4,kg/m2,17.4,17.4,kg/m2,,,,5.0,WEEK 8,TREATMENT,2024-06-06,60
GB001-ASTHMA-201,VS,GB001-ASTHMA-201-SITE001-0091,34,DIABP,Diastolic Blood Pressure,71.9,mmHg,71.9,71.9,mmHg,,,,5.0,WEEK 8,TREATMENT,2024-06-06,60
GB001-ASTHMA-201,VS,GB001-ASTHMA-201-SITE001-0091,35,HEIGHT,Height,170.3,cm,170.3,170.3,cm,,,,5.0,WEEK 8,TREATMENT,2024-06-06,60
GB001-ASTHMA-201,VS,GB001-ASTHMA-201-SITE001-0091,36,PULSE,Pulse Rate,77.4,beats/min,77.4,77.4,beats/min,,,,5.0,WEEK 8,TREATMENT,2024-06-06,60
GB001-ASTHMA-201,VS,GB001-ASTHMA-201-SITE001-0091,37,RESP,Respiratory Rate,15.9,breaths/min,15.9,15.9,breaths/min,,,,5.0,WEEK 8,TREATMENT,2024-06-06,60
GB001-ASTHMA-201,VS,GB001-ASTHMA-201-SITE001-0091,38,SYSBP,Systolic Blood Pressure,119.2,mmHg,119.2,119.2,mmHg,,,,5.0,WEEK 8,TREATMENT,2024-06-06,60
GB001-ASTHMA-201,VS,GB001-ASTHMA-201-SITE001-0091,39,TEMP,Temperature,36.8,C,36.8,36.8,C,,,,5.0,WEEK 8,TREATMENT,2024-06-06,60
GB001-ASTHMA-201,VS,GB001-ASTHMA-201-SITE001-0091,40,WEIGHT,Weight,50.4,kg,50.4,50.4,kg,,,,5.0,WEEK 8,TREATMENT,2024-06-06,60
GB001-ASTHMA-201,VS,GB001-ASTHMA-201-SITE001-0091,41,BMI,BMI,18.7,kg/m2,18.7,18.7,kg/m2,,,,6.0,WEEK 12,TREATMENT,2024-07-04,88
GB001-ASTHMA-201,VS,GB001-ASTHMA-201-SITE001-0091,42,DIABP,Diastolic Blood Pressure,69.2,mmHg,69.2,69.2,mmHg,,,,6.0,WEEK 12,TREATMENT,2024-07-04,88
GB001-ASTHMA-201,VS,GB001-ASTHMA-201-SITE001-0091,43,HEIGHT,Height,170.2,cm,170.2,170.2,cm,,,,6.0,WEEK 12,TREATMENT,2024-07-04,88
GB001-ASTHMA-201,VS,GB001-ASTHMA-201-SITE001-0091,44,PULSE,Pulse Rate,84.0,beats/min,84.0,84.0,beats/min,,,,6.0,WEEK 12,TREATMENT,2024-07-04,88
GB001-ASTHMA-201,VS,GB001-ASTHMA-201-SITE001-0091,45,RESP,Respiratory Rate,14.5,breaths/min,14.5,14.5,breaths/min,,,,6.0,WEEK 12,TREATMENT,2024-07-04,88
GB001-ASTHMA-201,VS,GB001-ASTHMA-201-SITE001-0091,46,SYSBP,Systolic Blood Pressure,117.5,mmHg,117.5,117.5,mmHg,,,,6.0,WEEK 12,TREATMENT,2024-07-04,88
GB001-ASTHMA-201,VS,GB001-ASTHMA-201-SITE001-0091,47,TEMP,Temperature,36.6,C,36.6,36.6,C,,,,6.0,WEEK 12,TREATMENT,2024-07-04,88
GB001-ASTHMA-201,VS,GB001-ASTHMA-201-SITE001-0091,48,WEIGHT,Weight,54.3,kg,54.3,54.3,kg,,,,6.0,WEEK 12,TREATMENT,2024-07-04,88
GB001-ASTHMA-201,VS,GB001-ASTHMA-201-SITE001-0091,49,BMI,BMI,19.1,kg/m2,19.1,19.1,kg/m2,,,,7.0,FOLLOW-UP,FOLLOW-UP,2024-07-30,114
GB001-ASTHMA-201,VS,GB001-ASTHMA-201-SITE001-0091,50,DIABP,Diastolic Blood Pressure,69.8,mmHg,69.8,69.8,mmHg,,,,7.0,FOLLOW-UP,FOLLOW-UP,2024-07-30,114
GB001-ASTHMA-201,VS,GB001-ASTHMA-201-SITE001-0091,51,HEIGHT,Height,170.0,cm,170.0,170.0,cm,,,,7.0,FOLLOW-UP,FOLLOW-UP,2024-07-30,114
GB001-ASTHMA-201,VS,GB001-ASTHMA-201-SITE001-0091,52,PULSE,Pulse Rate,82.6,beats/min,82.6,82.6,beats/min,,,,7.0,FOLLOW-UP,FOLLOW-UP,2024-07-30,114
GB001-ASTHMA-201,VS,GB001-ASTHMA-201-SITE001-0091,53,RESP,Respiratory Rate,15.1,breaths/min,15.1,15.1,breaths/min,,,,7.0,FOLLOW-UP,FOLLOW-UP,2024-07-30,114
GB001-ASTHMA-201,VS,GB001-ASTHMA-201-SITE001-0091,54,SYSBP,Systolic Blood Pressure,116.7,mmHg,116.7,116.7,mmHg,,,,7.0,FOLLOW-UP,FOLLOW-UP,2024-07-30,114
GB001-ASTHMA-201,VS,GB001-ASTHMA-201-SITE001-0091,55,TEMP,Temperature,36.5,C,36.5,36.5,C,,,,7.0,FOLLOW-UP,FOLLOW-UP,2024-07-30,114
GB001-ASTHMA-201,VS,GB001-ASTHMA-201-SITE001-0091,56,WEIGHT,Weight,55.3,kg,55.3,55.3,kg,,,,7.0,FOLLOW-UP,FOLLOW-UP,2024-07-30,114
GB001-ASTHMA-201,VS,GB001-ASTHMA-201-SITE001-0094,1,BMI,BMI,18.4,kg/m2,18.4,18.4,kg/m2,,,,1.0,SCREENING,SCREENING,2024-01-14,-52
GB001-ASTHMA-201,VS,GB001-ASTHMA-201-SITE001-0094,2,DIABP,Diastolic Blood Pressure,67.6,mmHg,67.6,67.6,mmHg,,,,1.0,SCREENING,SCREENING,2024-01-14,-52
GB001-ASTHMA-201,VS,GB001-ASTHMA-201-SITE001-0094,3,HEIGHT,Height,188.9,cm,188.9,188.9,cm,,,,1.0,SCREENING,SCREENING,2024-01-14,-52
GB001-ASTHMA-201,VS,GB001-ASTHMA-201-SITE001-0094,4,PULSE,Pulse Rate,98.6,beats/min,98.6,98.6,beats/min,,,,1.0,SCREENING,SCREENING,2024-01-14,-52
GB001-ASTHMA-201,VS,GB001-ASTHMA-201-SITE001-0094,5,RESP,Respiratory Rate,18.0,breaths/min,18.0,18.0,breaths/min,,,,1.0,SCREENING,SCREENING,2024-01-14,-52
GB001-ASTHMA-201,VS,GB001-ASTHMA-201-SITE001-0094,6,SYSBP,Systolic Blood Pressure,87.7,mmHg,87.7,87.7,mmHg,,,,1.0,SCREENING,SCREENING,2024-01-14,-52
GB001-ASTHMA-201,VS,GB001-ASTHMA-201-SITE001-0094,7,TEMP,Temperature,37.3,C,37.3,37.3,C,,,,1.0,SCREENING,SCREENING,2024-01-14,-52
GB001-ASTHMA-201,VS,GB001-ASTHMA-201-SITE001-0094,8,WEIGHT,Weight,65.5,kg,65.5,65.5,kg,,,,1.0,SCREENING,SCREENING,2024-01-14,-52
GB001-ASTHMA-201,VS,GB001-ASTHMA-201-SITE001-0094,9,BMI,BMI,18.8,kg/m2,18.8,18.8,kg/m2,,Y,Y,2.0,BASELINE,TREATMENT,2024-03-06,1
GB001-ASTHMA-201,VS,GB001-ASTHMA-201-SITE001-0094,10,DIABP,Diastolic Blood Pressure,68.6,mmHg,68.6,68.6,mmHg,,Y,Y,2.0,BASELINE,TREATMENT,2024-03-06,1
GB001-ASTHMA-201,VS,GB001-ASTHMA-201-SITE001-0094,11,HEIGHT,Height,189.3,cm,189.3,189.3,cm,,Y,Y,2.0,BASELINE,TREATMENT,2024-03-06,1
GB001-ASTHMA-201,VS,GB001-ASTHMA-201-SITE001-0094,12,PULSE,Pulse Rate,100.0,beats/min,100.0,100.0,beats/min,,Y,Y,2.0,BASELINE,TREATMENT,2024-03-06,1
GB001-ASTHMA-201,VS,GB001-ASTHMA-201-SITE001-0094,13,RESP,Respiratory Rate,17.0,breaths/min,17.0,17.0,breaths/min,,Y,Y,2.0,BASELINE,TREATMENT,2024-03-06,1
GB001-ASTHMA-201,VS,GB001-ASTHMA-201-SITE001-0094,14,SYSBP,Systolic Blood Pressure,87.9,mmHg,87.9,87.9,mmHg,,Y,Y,2.0,BASELINE,TREATMENT,2024-03-06,1
GB001-ASTHMA-201,VS,GB001-ASTHMA-201-SITE001-0094,15,TEMP,Temperature,37.5,C,37.5,37.5,C,,Y,Y,2.0,BASELINE,TREATMENT,2024-03-06,1
GB001-ASTHMA-201,VS,GB001-ASTHMA-201-SITE001-0094,16,WEIGHT,Weight,67.2,kg,67.2,67.2,kg,,Y,Y,2.0,BASELINE,TREATMENT,2024-03-06,1
GB001-ASTHMA-201,VS,GB001-ASTHMA-201-SITE001-0103,1,BMI,BMI,20.1,kg/m2,20.1,20.1,kg/m2,,,,1.0,SCREENING,SCREENING,2024-01-09,-38
GB001-ASTHMA-201,VS,GB001-ASTHMA-201-SITE001-0103,2,DIABP,Diastolic Blood Pressure,69.6,mmHg,69.6,69.6,mmHg,,,,1.0,SCREENING,SCREENING,2024-01-09,-38
GB001-ASTHMA-201,VS,GB001-ASTHMA-201-SITE001-0103,3,HEIGHT,Height,181.4,cm,181.4,181.4,cm,,,,1.0,SCREENING,SCREENING,2024-01-09,-38
GB001-ASTHMA-201,VS,GB001-ASTHMA-201-SITE001-0103,4,PULSE,Pulse Rate,63.7,beats/min,63.7,63.7,beats/min,,,,1.0,SCREENING,SCREENING,2024-01-09,-38
GB001-ASTHMA-201,VS,GB001-ASTHMA-201-SITE001-0103,5,RESP,Respiratory Rate,15.0,breaths/min,15.0,15.0,breaths/min,,,,1.0,SCREENING,SCREENING,2024-01-09,-38
GB001-ASTHMA-201,VS,GB001-ASTHMA-201-SITE001-0103,6,SYSBP,Systolic Blood Pressure,131.0,mmHg,131.0,131.0,mmHg,,,,1.0,SCREENING,SCREENING,2024-01-09,-38
GB001-ASTHMA-201,VS,GB001-ASTHMA-201-SITE001-0103,7,TEMP,Temperature,36.7,C,36.7,36.7,C,,,,1.0,SCREENING,SCREENING,2024-01-09,-38
GB001-ASTHMA-201,VS,GB001-ASTHMA-201-SITE001-0103,8,WEIGHT,Weight,66.2,kg,66.2,66.2,kg,,,,1.0,SCREENING,SCREENING,2024-01-09,-38
GB001-ASTHMA-201,VS,GB001-ASTHMA-201-SITE001-0103,9,BMI,BMI,21.4,kg/m2,21.4,21.4,kg/m2,,Y,Y,2.0,BASELINE,TREATMENT,2024-02-16,1
GB001-ASTHMA-201,VS,GB001-ASTHMA-201-SITE001-0103,10,DIABP,Diastolic Blood Pressure,70.5,mmHg,70.5,70.5,mmHg,,Y,Y,2.0,BASELINE,TREATMENT,2024-02-16,1
GB001-ASTHMA-201,VS,GB001-ASTHMA-201-SITE001-0103,11,HEIGHT,Height,181.4,cm,181.4,181.4,cm,,Y,Y,2.0,BASELINE,TREATMENT,2024-02-16,1
GB001-ASTHMA-201,VS,GB001-ASTHMA-201-SITE001-0103,12,PULSE,Pulse Rate,63.0,beats/min,63.0,63.0,beats/min,,Y,Y,2.0,BASELINE,TREATMENT,2024-02-16,1
GB001-ASTHMA-201,VS,GB001-ASTHMA-201-SITE001-0103,13,RESP,Respiratory Rate,15.8,breaths/min,15.8,15.8,breaths/min,,Y,Y,2.0,BASELINE,TREATMENT,2024-02-16,1
GB001-ASTHMA-201,VS,GB001-ASTHMA-201-SITE001-0103,14,SYSBP,Systolic Blood Pressure,133.0,mmHg,133.0,133.0,mmHg,,Y,Y,2.0,BASELINE,TREATMENT,2024-02-16,1
GB001-ASTHMA-201,VS,GB001-ASTHMA-201-SITE001-0103,15,TEMP,Temperature,36.7,C,36.7,36.7,C,,Y,Y,2.0,BASELINE,TREATMENT,2024-02-16,1
GB001-ASTHMA-201,VS,GB001-ASTHMA-201-SITE001-0103,16,WEIGHT,Weight,70.5,kg,70.5,70.5,kg,,Y,Y,2.0,BASELINE,TREATMENT,2024-02-16,1
GB001-ASTHMA-201,VS,GB001-ASTHMA-201-SITE001-0103,17,BMI,BMI,21.3,kg/m2,21.3,21.3,kg/m2,,,,3.0,WEEK 2,TREATMENT,2024-03-04,18
GB001-ASTHMA-201,VS,GB001-ASTHMA-201-SITE001-0103,18,DIABP,Diastolic Blood Pressure,70.2,mmHg,70.2,70.2,mmHg,,,,3.0,WEEK 2,TREATMENT,2024-03-04,18
GB001-ASTHMA-201,VS,GB001-ASTHMA-201-SITE001-0103,19,HEIGHT,Height,181.3,cm,181.3,181.3,cm,,,,3.0,WEEK 2,TREATMENT,2024-03-04,18
GB001-ASTHMA-201,VS,GB001-ASTHMA-201-SITE001-0103,20,PULSE,Pulse Rate,68.3,beats/min,68.3,68.3,beats/min,,,,3.0,WEEK 2,TREATMENT,2024-03-04,18
GB001-ASTHMA-201,VS,GB001-ASTHMA-201-SITE001-0103,21,RESP,Respiratory Rate,16.4,breaths/min,16.4,16.4,breaths/min,,,,3.0,WEEK 2,TREATMENT,2024-03-04,18
GB001-ASTHMA-201,VS,GB001-ASTHMA-201-SITE001-0103,22,SYSBP,Systolic Blood Pressure,132.5,mmHg,132.5,132.5,mmHg,,,,3.0,WEEK 2,TREATMENT,2024-03-04,18
GB001-ASTHMA-201,VS,GB001-ASTHMA-201-SITE001-0103,23,TEMP,Temperature,36.5,C,36.5,36.5,C,,,,3.0,WEEK 2,TREATMENT,2024-03-04,18
GB001-ASTHMA-201,VS,GB001-ASTHMA-201-SITE001-0103,24,WEIGHT,Weight,70.0,kg,70.0,70.0,kg,,,,3.0,WEEK 2,TREATMENT,2024-03-04,18
GB001-ASTHMA-201,VS,GB001-ASTHMA-201-SITE001-0103,25,BMI,BMI,21.1,kg/m2,21.1,21.1,kg/m2,,,,4.0,WEEK 4,TREATMENT,2024-03-16,30
GB001-ASTHMA-201,VS,GB001-ASTHMA-201-SITE001-0103,26,DIABP,Diastolic Blood Pressure,69.2,mmHg,69.2,69.2,mmHg,,,,4.0,WEEK 4,TREATMENT,2024-03-16,30
GB001-ASTHMA-201,VS,GB001-ASTHMA-201-SITE001-0103,27,HEIGHT,Height,180.8,cm,180.8,180.8,cm,,,,4.0,WEEK 4,TREATMENT,2024-03-16,30
GB001-ASTHMA-201,VS,GB001-ASTHMA-201-SITE001-0103,28,PULSE,Pulse Rate,63.3,beats/min,63.3,63.3,beats/min,,,,4.0,WEEK 4,TREATMENT,2024-03-16,30
GB001-ASTHMA-201,VS,GB001-ASTHMA-201-SITE001-0103,29,RESP,Respiratory Rate,17.3,breaths/min,17.3,17.3,breaths/min,,,,4.0,WEEK 4,TREATMENT,2024-03-16,30
GB001-ASTHMA-201,VS,GB001-ASTHMA-201-SITE001-0103,30,SYSBP,Systolic Blood Pressure,131.0,mmHg,131.0,131.0,mmHg,,,,4.0,WEEK 4,TREATMENT,2024-03-16,30
GB001-ASTHMA-201,VS,GB001-ASTHMA-201-SITE001-0103,31,TEMP,Temperature,36.9,C,36.9,36.9,C,,,,4.0,WEEK 4,TREATMENT,2024-03-16,30
GB001-ASTHMA-201,VS,GB001-ASTHMA-201-SITE001-0103,32,WEIGHT,Weight,69.1,kg,69.1,69.1,kg,,,,4.0,WEEK 4,TREATMENT,2024-03-16,30
GB001-ASTHMA-201,VS,GB001-ASTHMA-201-SITE001-0103,33,BMI,BMI,20.9,kg/m2,20.9,20.9,kg/m2,,,,6.0,WEEK 12,TREATMENT,2024-05-09,84
GB001-ASTHMA-201,VS,GB001-ASTHMA-201-SITE001-0103,34,DIABP,Diastolic Blood Pressure,67.8,mmHg,67.8,67.8,mmHg,,,,6.0,WEEK 12,TREATMENT,2024-05-09,84
GB001-ASTHMA-201,VS,GB001-ASTHMA-201-SITE001-0103,35,HEIGHT,Height,180.5,cm,180.5,180.5,cm,,,,6.0,WEEK 12,TREATMENT,2024-05-09,84
GB001-ASTHMA-201,VS,GB001-ASTHMA-201-SITE001-0103,36,PULSE,Pulse Rate,64.4,beats/min,64.4,64.4,beats/min,,,,6.0,WEEK 12,TREATMENT,2024-05-09,84
GB001-ASTHMA-201,VS,GB001-ASTHMA-201-SITE001-0103,37,RESP,Respiratory Rate,17.1,breaths/min,17.1,17.1,breaths/min,,,,6.0,WEEK 12,TREATMENT,2024-05-09,84
GB001-ASTHMA-201,VS,GB001-ASTHMA-201-SITE001-0103,38,SYSBP,Systolic Blood Pressure,128.4,mmHg,128.4,128.4,mmHg,,,,6.0,WEEK 12,TREATMENT,2024-05-09,84
GB001-ASTHMA-201,VS,GB001-ASTHMA-201-SITE001-0103,39,TEMP,Temperature,36.7,C,36.7,36.7,C,,,,6.0,WEEK 12,TREATMENT,2024-05-09,84
GB001-ASTHMA-201,VS,GB001-ASTHMA-201-SITE001-0103,40,WEIGHT,Weight,68.0,kg,68.0,68.0,kg,,,,6.0,WEEK 12,TREATMENT,2024-05-09,84
GB001-ASTHMA-201,VS,GB001-ASTHMA-201-SITE001-0103,41,BMI,BMI,21.1,kg/m2,21.1,21.1,kg/m2,,,,7.0,FOLLOW-UP,FOLLOW-UP,2024-06-12,118
GB001-ASTHMA-201,VS,GB001-ASTHMA-201-SITE001-0103,42,DIABP,Diastolic Blood Pressure,68.9,mmHg,68.9,68.9,mmHg,,,,7.0,FOLLOW-UP,FOLLOW-UP,2024-06-12,118
GB001-ASTHMA-201,VS,GB001-ASTHMA-201-SITE001-0103,43,HEIGHT,Height,180.8,cm,180.8,180.8,cm,,,,7.0,FOLLOW-UP,FOLLOW-UP,2024-06-12,118
GB001-ASTHMA-201,VS,GB001-ASTHMA-201-SITE001-0103,44,PULSE,Pulse Rate,67.2,beats/min,67.2,67.2,beats/min,,,,7.0,FOLLOW-UP,FOLLOW-UP,2024-06-12,118
GB001-ASTHMA-201,VS,GB001-ASTHMA-201-SITE001-0103,45,RESP,Respiratory Rate,17.5,breaths/min,17.5,17.5,breaths/min,,,,7.0,FOLLOW-UP,FOLLOW-UP,2024-06-12,118
GB001-ASTHMA-201,VS,GB001-ASTHMA-201-SITE001-0103,46,SYSBP,Systolic Blood Pressure,129.2,mmHg,129.2,129.2,mmHg,,,,7.0,FOLLOW-UP,FOLLOW-UP,2024-06-12,118
GB001-ASTHMA-201,VS,GB001-ASTHMA-201-SITE001-0103,47,TEMP,Temperature,36.7,C,36.7,36.7,C,,,,7.0,FOLLOW-UP,FOLLOW-UP,2024-06-12,118
GB001-ASTHMA-201,VS,GB001-ASTHMA-201-SITE001-0103,48,WEIGHT,Weight,69.1,kg,69.1,69.1,kg,,,,7.0,FOLLOW-UP,FOLLOW-UP,2024-06-12,118
GB001-ASTHMA-201,VS,GB001-ASTHMA-201-SITE001-0106,1,BMI,BMI,28.2,kg/m2,28.2,28.2,kg/m2,,,,1.0,SCREENING,SCREENING,2024-03-05,-7
GB001-ASTHMA-201,VS,GB001-ASTHMA-201-SITE001-0106,2,DIABP,Diastolic Blood Pressure,76.8,mmHg,76.8,76.8,mmHg,,,,1.0,SCREENING,SCREENING,2024-03-05,-7
GB001-ASTHMA-201,VS,GB001-ASTHMA-201-SITE001-0106,3,HEIGHT,Height,180.7,cm,180.7,180.7,cm,,,,1.0,SCREENING,SCREENING,2024-03-05,-7
GB001-ASTHMA-201,VS,GB001-ASTHMA-201-SITE001-0106,4,PULSE,Pulse Rate,68.4,beats/min,68.4,68.4,beats/min,,,,1.0,SCREENING,SCREENING,2024-03-05,-7
GB001-ASTHMA-201,VS,GB001-ASTHMA-201-SITE001-0106,5,RESP,Respiratory Rate,18.0,breaths/min,18.0,18.0,breaths/min,,,,1.0,SCREENING,SCREENING,2024-03-05,-7
GB001-ASTHMA-201,VS,GB001-ASTHMA-201-SITE001-0106,6,SYSBP,Systolic Blood Pressure,99.2,mmHg,99.2,99.2,mmHg,,,,1.0,SCREENING,SCREENING,2024-03-05,-7
GB001-ASTHMA-201,VS,GB001-ASTHMA-201-SITE001-0106,7,TEMP,Temperature,37.2,C,37.2,37.2,C,,,,1.0,SCREENING,SCREENING,2024-03-05,-7
GB001-ASTHMA-201,VS,GB001-ASTHMA-201-SITE001-0106,8,WEIGHT,Weight,92.2,kg,92.2,92.2,kg,,,,1.0,SCREENING,SCREENING,2024-03-05,-7
GB001-ASTHMA-201,VS,GB001-ASTHMA-201-SITE001-0106,9,BMI,BMI,29.3,kg/m2,29.3,29.3,kg/m2,,Y,Y,2.0,BASELINE,TREATMENT,2024-03-12,1
GB001-ASTHMA-201,VS,GB001-ASTHMA-201-SITE001-0106,10,DIABP,Diastolic Blood Pressure,76.1,mmHg,76.1,76.1,mmHg,,Y,Y,2.0,BASELINE,TREATMENT,2024-03-12,1
GB001-ASTHMA-201,VS,GB001-ASTHMA-201-SITE001-0106,11,HEIGHT,Height,180.8,cm,180.8,180.8,cm,,Y,Y,2.0,BASELINE,TREATMENT,2024-03-12,1
GB001-ASTHMA-201,VS,GB001-ASTHMA-201-SITE001-0106,12,PULSE,Pulse Rate,61.5,beats/min,61.5,61.5,beats/min,,Y,Y,2.0,BASELINE,TREATMENT,2024-03-12,1
GB001-ASTHMA-201,VS,GB001-ASTHMA-201-SITE001-0106,13,RESP,Respiratory Rate,17.8,breaths/min,17.8,17.8,breaths/min,,Y,Y,2.0,BASELINE,TREATMENT,2024-03-12,1
GB001-ASTHMA-201,VS,GB001-ASTHMA-201-SITE001-0106,14,SYSBP,Systolic Blood Pressure,95.9,mmHg,95.9,95.9,mmHg,,Y,Y,2.0,BASELINE,TREATMENT,2024-03-12,1
GB001-ASTHMA-201,VS,GB001-ASTHMA-201-SITE001-0106,15,TEMP,Temperature,37.3,C,37.3,37.3,C,,Y,Y,2.0,BASELINE,TREATMENT,2024-03-12,1
GB001-ASTHMA-201,VS,GB001-ASTHMA-201-SITE001-0106,16,WEIGHT,Weight,95.7,kg,95.7,95.7,kg,,Y,Y,2.0,BASELINE,TREATMENT,2024-03-12,1
GB001-ASTHMA-201,VS,GB001-ASTHMA-201-SITE001-0106,17,BMI,BMI,29.3,kg/m2,29.3,29.3,kg/m2,,,,3.0,WEEK 2,TREATMENT,2024-03-28,17
GB001-ASTHMA-201,VS,GB001-ASTHMA-201-SITE001-0106,18,DIABP,Diastolic Blood Pressure,76.2,mmHg,76.2,76.2,mmHg,,,,3.0,WEEK 2,TREATMENT,2024-03-28,17
GB001-ASTHMA-201,VS,GB001-ASTHMA-201-SITE001-0106,19,HEIGHT,Height,180.4,cm,180.4,180.4,cm,,,,3.0,WEEK 2,TREATMENT,2024-03-28,17
GB001-ASTHMA-201,VS,GB001-ASTHMA-201-SITE001-0106,20,PULSE,Pulse Rate,61.8,beats/min,61.8,61.8,beats/min,,,,3.0,WEEK 2,TREATMENT,2024-03-28,17
GB001-ASTHMA-201,VS,GB001-ASTHMA-201-SITE001-0106,21,RESP,Respiratory Rate,18.3,breaths/min,18.3,18.3,breaths/min,,,,3.0,WEEK 2,TREATMENT,2024-03-28,17
GB001-ASTHMA-201,VS,GB001-ASTHMA-201-SITE001-0106,22,SYSBP,Systolic Blood Pressure,97.4,mmHg,97.4,97.4,mmHg,,,,3.0,WEEK 2,TREATMENT,2024-03-28,17
GB001-ASTHMA-201,VS,GB001-ASTHMA-201-SITE001-0106,23,TEMP,Temperature,37.4,C,37.4,37.4,C,,,,3.0,WEEK 2,TREATMENT,2024-03-28,17
GB001-ASTHMA-201,VS,GB001-ASTHMA-201-SITE001-0106,24,WEIGHT,Weight,95.5,kg,95.5,95.5,kg,,,,3.0,WEEK 2,TREATMENT,2024-03-28,17
GB001-ASTHMA-201,VS,GB001-ASTHMA-201-SITE001-0106,25,BMI,BMI,29.9,kg/m2,29.9,29.9,kg/m2,,,,4.0,WEEK 4,TREATMENT,2024-04-06,26
GB001-ASTHMA-201,VS,GB001-ASTHMA-201-SITE001-0106,26,DIABP,Diastolic Blood Pressure,76.3,mmHg,76.3,76.3,mmHg,,,,4.0,WEEK 4,TREATMENT,2024-04-06,26
GB001-ASTHMA-201,VS,GB001-ASTHMA-201-SITE001-0106,27,HEIGHT,Height,180.4,cm,180.4,180.4,cm,,,,4.0,WEEK 4,TREATMENT,2024-04-06,26
GB001-ASTHMA-201,VS,GB001-ASTHMA-201-SITE001-0106,28,PULSE,Pulse Rate,61.3,beats/min,61.3,61.3,beats/min,,,,4.0,WEEK 4,TREATMENT,2024-04-06,26
GB001-ASTHMA-201,VS,GB001-ASTHMA-201-SITE001-0106,29,RESP,Respiratory Rate,17.9,breaths/min,17.9,17.9,breaths/min,,,,4.0,WEEK 4,TREATMENT,2024-04-06,26
GB001-ASTHMA-201,VS,GB001-ASTHMA-201-SITE001-0106,30,SYSBP,Systolic Blood Pressure,99.8,mmHg,99.8,99.8,mmHg,,,,4.0,WEEK 4,TREATMENT,2024-04-06,26
GB001-ASTHMA-201,VS,GB001-ASTHMA-201-SITE001-0106,31,TEMP,Temperature,37.3,C,37.3,37.3,C,,,,4.0,WEEK 4,TREATMENT,2024-04-06,26
GB001-ASTHMA-201,VS,GB001-ASTHMA-201-SITE001-0106,32,WEIGHT,Weight,97.4,kg,97.4,97.4,kg,,,,4.0,WEEK 4,TREATMENT,2024-04-06,26
GB001-ASTHMA-201,VS,GB001-ASTHMA-201-SITE001-0106,33,BMI,BMI,30.1,kg/m2,30.1,30.1,kg/m2,,,,5.0,WEEK 8,TREATMENT,2024-05-09,59
GB001-ASTHMA-201,VS,GB001-ASTHMA-201-SITE001-0106,34,DIABP,Diastolic Blood Pressure,77.4,mmHg,77.4,77.4,mmHg,,,,5.0,WEEK 8,TREATMENT,2024-05-09,59
GB001-ASTHMA-201,VS,GB001-ASTHMA-201-SITE001-0106,35,HEIGHT,Height,181.2,cm,181.2,181.2,cm,,,,5.0,WEEK 8,TREATMENT,2024-05-09,59
GB001-ASTHMA-201,VS,GB001-ASTHMA-201-SITE001-0106,36,PULSE,Pulse Rate,63.4,beats/min,63.4,63.4,beats/min,,,,5.0,WEEK 8,TREATMENT,2024-05-09,59
GB001-ASTHMA-201,VS,GB001-ASTHMA-201-SITE001-0106,37,RESP,Respiratory Rate,17.5,breaths/min,17.5,17.5,breaths/min,,,,5.0,WEEK 8,TREATMENT,2024-05-09,59
GB001-ASTHMA-201,VS,GB001-ASTHMA-201-SITE001-0106,38,SYSBP,Systolic Blood Pressure,100.6,mmHg,100.6,100.6,mmHg,,,,5.0,WEEK 8,TREATMENT,2024-05-09,59
GB001-ASTHMA-201,VS,GB001-ASTHMA-201-SITE001-0106,39,TEMP,Temperature,37.3,C,37.3,37.3,C,,,,5.0,WEEK 8,TREATMENT,2024-05-09,59
GB001-ASTHMA-201,VS,GB001-ASTHMA-201-SITE001-0106,40,WEIGHT,Weight,98.7,kg,98.7,98.7,kg,,,,5.0,WEEK 8,TREATMENT,2024-05-09,59
GB001-ASTHMA-201,VS,GB001-ASTHMA-201-SITE001-0106,41,BMI,BMI,30.5,kg/m2,30.5,30.5,kg/m2,,,,6.0,WEEK 12,TREATMENT,2024-06-03,84
GB001-ASTHMA-201,VS,GB001-ASTHMA-201-SITE001-0106,42,DIABP,Diastolic Blood Pressure,75.9,mmHg,75.9,75.9,mmHg,,,,6.0,WEEK 12,TREATMENT,2024-06-03,84
GB001-ASTHMA-201,VS,GB001-ASTHMA-201-SITE001-0106,43,HEIGHT,Height,182.2,cm,182.2,182.2,cm,,,,6.0,WEEK 12,TREATMENT,2024-06-03,84
GB001-ASTHMA-201,VS,GB001-ASTHMA-201-SITE001-0106,44,PULSE,Pulse Rate,63.8,beats/min,63.8,63.8,beats/min,,,,6.0,WEEK 12,TREATMENT,2024-06-03,84
GB001-ASTHMA-201,VS,GB001-ASTHMA-201-SITE001-0106,45,RESP,Respiratory Rate,20.6,breaths/min,20.6,20.6,breaths/min,,,,6.0,WEEK 12,TREATMENT,2024-06-03,84
GB001-ASTHMA-201,VS,GB001-ASTHMA-201-SITE001-0106,46,SYSBP,Systolic Blood Pressure,98.0,mmHg,98.0,98.0,mmHg,,,,6.0,WEEK 12,TREATMENT,2024-06-03,84
GB001-ASTHMA-201,VS,GB001-ASTHMA-201-SITE001-0106,47,TEMP,Temperature,37.5,C,37.5,37.5,C,,,,6.0,WEEK 12,TREATMENT,2024-06-03,84
GB001-ASTHMA-201,VS,GB001-ASTHMA-201-SITE001-0106,48,WEIGHT,Weight,101.2,kg,101.2,101.2,kg,,,,6.0,WEEK 12,TREATMENT,2024-06-03,84
GB001-ASTHMA-201,VS,GB001-ASTHMA-201-SITE001-0109,1,BMI,BMI,19.4,kg/m2,19.4,19.4,kg/m2,,,,1.0,SCREENING,SCREENING,2024-04-20,-15
GB001-ASTHMA-201,VS,GB001-ASTHMA-201-SITE001-0109,2,DIABP,Diastolic Blood Pressure,70.3,mmHg,70.3,70.3,mmHg,,,,1.0,SCREENING,SCREENING,2024-04-20,-15
GB001-ASTHMA-201,VS,GB001-ASTHMA-201-SITE001-0109,3,HEIGHT,Height,154.7,cm,154.7,154.7,cm,,,,1.0,SCREENING,SCREENING,2024-04-20,-15
GB001-ASTHMA-201,VS,GB001-ASTHMA-201-SITE001-0109,4,PULSE,Pulse Rate,81.0,beats/min,81.0,81.0,beats/min,,,,1.0,SCREENING,SCREENING,2024-04-20,-15
GB001-ASTHMA-201,VS,GB001-ASTHMA-201-SITE001-0109,5,RESP,Respiratory Rate,10.5,breaths/min,10.5,10.5,breaths/min,,,,1.0,SCREENING,SCREENING,2024-04-20,-15
GB001-ASTHMA-201,VS,GB001-ASTHMA-201-SITE001-0109,6,SYSBP,Systolic Blood Pressure,124.4,mmHg,124.4,124.4,mmHg,,,,1.0,SCREENING,SCREENING,2024-04-20,-15
GB001-ASTHMA-201,VS,GB001-ASTHMA-201-SITE001-0109,7,TEMP,Temperature,37.4,C,37.4,37.4,C,,,,1.0,SCREENING,SCREENING,2024-04-20,-15
GB001-ASTHMA-201,VS,GB001-ASTHMA-201-SITE001-0109,8,WEIGHT,Weight,46.4,kg,46.4,46.4,kg,,,,1.0,SCREENING,SCREENING,2024-04-20,-15
GB001-ASTHMA-201,VS,GB001-ASTHMA-201-SITE001-0109,9,BMI,BMI,18.8,kg/m2,18.8,18.8,kg/m2,,Y,Y,2.0,BASELINE,TREATMENT,2024-05-05,1
GB001-ASTHMA-201,VS,GB001-ASTHMA-201-SITE001-0109,10,DIABP,Diastolic Blood Pressure,69.6,mmHg,69.6,69.6,mmHg,,Y,Y,2.0,BASELINE,TREATMENT,2024-05-05,1
GB001-ASTHMA-201,VS,GB001-ASTHMA-201-SITE001-0109,11,HEIGHT,Height,155.1,cm,155.1,155.1,cm,,Y,Y,2.0,BASELINE,TREATMENT,2024-05-05,1
GB001-ASTHMA-201,VS,GB001-ASTHMA-201-SITE001-0109,12,PULSE,Pulse Rate,75.9,beats/min,75.9,75.9,beats/min,,Y,Y,2.0,BASELINE,TREATMENT,2024-05-05,1
GB001-ASTHMA-201,VS,GB001-ASTHMA-201-SITE001-0109,13,RESP,Respiratory Rate,13.1,breaths/min,13.1,13.1,breaths/min,,Y,Y,2.0,BASELINE,TREATMENT,2024-05-05,1
GB001-ASTHMA-201,VS,GB001-ASTHMA-201-SITE001-0109,14,SYSBP,Systolic Blood Pressure,125.5,mmHg,125.5,125.5,mmHg,,Y,Y,2.0,BASELINE,TREATMENT,2024-05-05,1
GB001-ASTHMA-201,VS,GB001-ASTHMA-201-SITE001-0109,15,TEMP,Temperature,37.5,C,37.5,37.5,C,,Y,Y,2.0,BASELINE,TREATMENT,2024-05-05,1
GB001-ASTHMA-201,VS,GB001-ASTHMA-201-SITE001-0109,16,WEIGHT,Weight,45.2,kg,45.2,45.2,kg,,Y,Y,2.0,BASELINE,TREATMENT,2024-05-05,1
GB001-ASTHMA-201,VS,GB001-ASTHMA-201-SITE001-0109,17,BMI,BMI,19.4,kg/m2,19.4,19.4,kg/m2,,,,3.0,WEEK 2,TREATMENT,2024-05-21,17
GB001-ASTHMA-201,VS,GB001-ASTHMA-201-SITE001-0109,18,DIABP,Diastolic Blood Pressure,68.0,mmHg,68.0,68.0,mmHg,,,,3.0,WEEK 2,TREATMENT,2024-05-21,17
GB001-ASTHMA-201,VS,GB001-ASTHMA-201-SITE001-0109,19,HEIGHT,Height,155.2,cm,155.2,155.2,cm,,,,3.0,WEEK 2,TREATMENT,2024-05-21,17
GB001-ASTHMA-201,VS,GB001-ASTHMA-201-SITE001-0109,20,PULSE,Pulse Rate,79.4,beats/min,79.4,79.4,beats/min,,,,3.0,WEEK 2,TREATMENT,2024-05-21,17
GB001-ASTHMA-201,VS,GB001-ASTHMA-201-SITE001-0109,21,RESP,Respiratory Rate,10.5,breaths/min,10.5,10.5,breaths/min,,,,3.0,WEEK 2,TREATMENT,2024-05-21,17
GB001-ASTHMA-201,VS,GB001-ASTHMA-201-SITE001-0109,22,SYSBP,Systolic Blood Pressure,122.5,mmHg,122.5,122.5,mmHg,,,,3.0,WEEK 2,TREATMENT,2024-05-21,17
GB001-ASTHMA-201,VS,GB001-ASTHMA-201-SITE001-0109,23,TEMP,Temperature,37.5,C,37.5,37.5,C,,,,3.0,WEEK 2,TREATMENT,2024-05-21,17
GB001-ASTHMA-201,VS,GB001-ASTHMA-201-SITE001-0109,24,WEIGHT,Weight,46.8,kg,46.8,46.8,kg,,,,3.0,WEEK 2,TREATMENT,2024-05-21,17
GB001-ASTHMA-201,VS,GB001-ASTHMA-201-SITE001-0109,25,BMI,BMI,18.8,kg/m2,18.8,18.8,kg/m2,,,,4.0,WEEK 4,TREATMENT,2024-06-04,31
GB001-ASTHMA-201,VS,GB001-ASTHMA-201-SITE001-0109,26,DIABP,Diastolic Blood Pressure,68.5,mmHg,68.5,68.5,mmHg,,,,4.0,WEEK 4,TREATMENT,2024-06-04,31
GB001-ASTHMA-201,VS,GB001-ASTHMA-201-SITE001-0109,27,HEIGHT,Height,154.7,cm,154.7,154.7,cm,,,,4.0,WEEK 4,TREATMENT,2024-06-04,31
GB001-ASTHMA-201,VS,GB001-ASTHMA-201-SITE001-0109,28,PULSE,Pulse Rate,74.8,beats/min,74.8,74.8,beats/min,,,,4.0,WEEK 4,TREATMENT,2024-06-04,31
GB001-ASTHMA-201,VS,GB001-ASTHMA-201-SITE001-0109,29,RESP,Respiratory Rate,12.3,breaths/min,12.3,12.3,breaths/min,,,,4.0,WEEK 4,TREATMENT,2024-06-04,31
GB001-ASTHMA-201,VS,GB001-ASTHMA-201-SITE001-0109,30,SYSBP,Systolic Blood Pressure,123.0,mmHg,123.0,123.0,mmHg,,,,4.0,WEEK 4,TREATMENT,2024-06-04,31
GB001-ASTHMA-201,VS,GB001-ASTHMA-201-SITE001-0109,31,TEMP,Temperature,37.4,C,37.4,37.4,C,,,,4.0,WEEK 4,TREATMENT,2024-06-04,31
GB001-ASTHMA-201,VS,GB001-ASTHMA-201-SITE001-0109,32,WEIGHT,Weight,45.0,kg,45.0,45.0,kg,,,,4.0,WEEK 4,TREATMENT,2024-06-04,31
GB001-ASTHMA-201,VS,GB001-ASTHMA-201-SITE001-0109,33,BMI,BMI,19.8,kg/m2,19.8,19.8,kg/m2,,,,5.0,WEEK 8,TREATMENT,2024-06-28,55
GB001-ASTHMA-201,VS,GB001-ASTHMA-201-SITE001-0109,34,DIABP,Diastolic Blood Pressure,65.2,mmHg,65.2,65.2,mmHg,,,,5.0,WEEK 8,TREATMENT,2024-06-28,55
GB001-ASTHMA-201,VS,GB001-ASTHMA-201-SITE001-0109,35,HEIGHT,Height,154.3,cm,154.3,154.3,cm,,,,5.0,WEEK 8,TREATMENT,2024-06-28,55
GB001-ASTHMA-201,VS,GB001-ASTHMA-201-SITE001-0109,36,PULSE,Pulse Rate,78.7,beats/min,78.7,78.7,beats/min,,,,5.0,WEEK 8,TREATMENT,2024-06-28,55
GB001-ASTHMA-201,VS,GB001-ASTHMA-201-SITE001-0109,37,RESP,Respiratory Rate,11.7,breaths/min,11.7,11.7,breaths/min,,,,5.0,WEEK 8,TREATMENT,2024-06-28,55
GB001-ASTHMA-201,VS,GB001-ASTHMA-201-SITE001-0109,38,SYSBP,Systolic Blood Pressure,119.1,mmHg,119.1,119.1,mmHg,,,,5.0,WEEK 8,TREATMENT,2024-06-28,55
GB001-ASTHMA-201,VS,GB001-ASTHMA-201-SITE001-0109,39,TEMP,Temperature,37.5,C,37.5,37.5,C,,,,5.0,WEEK 8,TREATMENT,2024-06-28,55
GB001-ASTHMA-201,VS,GB001-ASTHMA-201-SITE001-0109,40,WEIGHT,Weight,47.1,kg,47.1,47.1,kg,,,,5.0,WEEK 8,TREATMENT,2024-06-28,55
GB001-ASTHMA-201,VS,GB001-ASTHMA-201-SITE001-0109,41,BMI,BMI,19.1,kg/m2,19.1,19.1,kg/m2,,,,6.0,WEEK 12,TREATMENT,2024-07-31,88
GB001-ASTHMA-201,VS,GB001-ASTHMA-201-SITE001-0109,42,DIABP,Diastolic Blood Pressure,67.3,mmHg,67.3,67.3,mmHg,,,,6.0,WEEK 12,TREATMENT,2024-07-31,88
GB001-ASTHMA-201,VS,GB001-ASTHMA-201-SITE001-0109,43,HEIGHT,Height,153.8,cm,153.8,153.8,cm,,,,6.0,WEEK 12,TREATMENT,2024-07-31,88
GB001-ASTHMA-201,VS,GB001-ASTHMA-201-SITE001-0109,44,PULSE,Pulse Rate,75.7,beats/min,75.7,75.7,beats/min,,,,6.0,WEEK 12,TREATMENT,2024-07-31,88
GB001-ASTHMA-201,VS,GB001-ASTHMA-201-SITE001-0109,45,RESP,Respiratory Rate,12.6,breaths/min,12.6,12.6,breaths/min,,,,6.0,WEEK 12,TREATMENT,2024-07-31,88
GB001-ASTHMA-201,VS,GB001-ASTHMA-201-SITE001-0109,46,SYSBP,Systolic Blood Pressure,121.3,mmHg,121.3,121.3,mmHg,,,,6.0,WEEK 12,TREATMENT,2024-07-31,88
GB001-ASTHMA-201,VS,GB001-ASTHMA-201-SITE001-0109,47,TEMP,Temperature,37.4,C,37.4,37.4,C,,,,6.0,WEEK 12,TREATMENT,2024-07-31,88
GB001-ASTHMA-201,VS,GB001-ASTHMA-201-SITE001-0109,48,WEIGHT,Weight,45.2,kg,45.2,45.2,kg,,,,6.0,WEEK 12,TREATMENT,2024-07-31,88
GB001-ASTHMA-201,VS,GB001-ASTHMA-201-SITE001-0109,49,BMI,BMI,20.0,kg/m2,20.0,20.0,kg/m2,,,,7.0,FOLLOW-UP,FOLLOW-UP,2024-08-28,116
GB001-ASTHMA-201,VS,GB001-ASTHMA-201-SITE001-0109,50,DIABP,Diastolic Blood Pressure,68.6,mmHg,68.6,68.6,mmHg,,,,7.0,FOLLOW-UP,FOLLOW-UP,2024-08-28,116
GB001-ASTHMA-201,VS,GB001-ASTHMA-201-SITE001-0109,51,HEIGHT,Height,153.7,cm,153.7,153.7,cm,,,,7.0,FOLLOW-UP,FOLLOW-UP,2024-08-28,116
