STUDYID,DOMAIN,USUBJID,PESEQ,PETESTCD,PETEST,PEORRES,PESTRESC,VISITNUM,VISIT,EPOCH,PEDTC,PEDY
EMPEROR-HFPEF,PE,EMPEROR-HFPEF-SITE001-0001,1,ABDOMEN,ABDOMEN,NORMAL,NORMAL,1.0,SCREENING,SCREENING,2024-01-16,-33
EMPEROR-HFPEF,PE,EMPEROR-HFPEF-SITE001-0001,2,CARDIOVA,CARDIOVASCULAR,NORMAL,NORMAL,1.0,SCREENING,SCREENING,2024-01-16,-33
EMPEROR-HFPEF,PE,EMPEROR-HFPEF-SITE001-0001,3,EARSNOSE,"EARS, NOSE, AND THROAT",NORMAL,NORMAL,1.0,SCREENING,SCREENING,2024-01-16,-33
EMPEROR-HFPEF,PE,EMPEROR-HFPEF-SITE001-0001,4,EYES,EYES,NORMAL,NORMAL,1.0,SCREENING,SCREENING,2024-01-16,-33
EMPEROR-HFPEF,PE,EMPEROR-HFPEF-SITE001-0001,5,GENERALA,GENERAL APPEARANCE,NORMAL,NORMAL,1.0,SCREENING,SCREENING,2024-01-16,-33
EMPEROR-HFPEF,PE,EMPEROR-HFPEF-SITE001-0001,6,HEADANDN,HEAD AND NECK,NORMAL,NORMAL,1.0,SCREENING,SCREENING,2024-01-16,-33
EMPEROR-HFPEF,PE,EMPEROR-HFPEF-SITE001-0001,7,MUSCULOS,MUSCULOSKELETAL,NORMAL,NORMAL,1.0,SCREENING,SCREENING,2024-01-16,-33
EMPEROR-HFPEF,PE,EMPEROR-HFPEF-SITE001-0001,8,NEUROLOG,NEUROLOGICAL,NORMAL,NORMAL,1.0,SCREENING,SCREENING,2024-01-16,-33
EMPEROR-HFPEF,PE,EMPEROR-HFPEF-SITE001-0001,9,RESPIRAT,RESPIRATORY,NORMAL,NORMAL,1.0,SCREENING,SCREENING,2024-01-16,-33
EMPEROR-HFPEF,PE,EMPEROR-HFPEF-SITE001-0001,10,SKIN,SKIN,NORMAL,NORMAL,1.0,SCREENING,SCREENING,2024-01-16,-33
EMPEROR-HFPEF,PE,EMPEROR-HFPEF-SITE001-0001,11,ABDOMEN,ABDOMEN,NORMAL,NORMAL,2.0,RANDOMIZATION,TREATMENT,2024-02-18,1
EMPEROR-HFPEF,PE,EMPEROR-HFPEF-SITE001-0001,12,CARDIOVA,CARDIOVASCULAR,NORMAL,NORMAL,2.0,RANDOMIZATION,TREATMENT,2024-02-18,1
EMPEROR-HFPEF,PE,EMPEROR-HFPEF-SITE001-0001,13,EARSNOSE,"EARS, NOSE, AND THROAT",NORMAL,NORMAL,2.0,RANDOMIZATION,TREATMENT,2024-02-18,1
EMPEROR-HFPEF,PE,EMPEROR-HFPEF-SITE001-0001,14,EYES,EYES,NORMAL,NORMAL,2.0,RANDOMIZATION,TREATMENT,2024-02-18,1
EMPEROR-HFPEF,PE,EMPEROR-HFPEF-SITE001-0001,15,GENERALA,GENERAL APPEARANCE,NORMAL,NORMAL,2.0,RANDOMIZATION,TREATMENT,2024-02-18,1
EMPEROR-HFPEF,PE,EMPEROR-HFPEF-SITE001-0001,16,HEADANDN,HEAD AND NECK,NORMAL,NORMAL,2.0,RANDOMIZATION,TREATMENT,2024-02-18,1
EMPEROR-HFPEF,PE,EMPEROR-HFPEF-SITE001-0001,17,MUSCULOS,MUSCULOSKELETAL,NORMAL,NORMAL,2.0,RANDOMIZATION,TREATMENT,2024-02-18,1
EMPEROR-HFPEF,PE,EMPEROR-HFPEF-SITE001-0001,18,NEUROLOG,NEUROLOGICAL,NORMAL,NORMAL,2.0,RANDOMIZATION,TREATMENT,2024-02-18,1
EMPEROR-HFPEF,PE,EMPEROR-HFPEF-SITE001-0001,19,RESPIRAT,RESPIRATORY,NORMAL,NORMAL,2.0,RANDOMIZATION,TREATMENT,2024-02-18,1
EMPEROR-HFPEF,PE,EMPEROR-HFPEF-SITE001-0001,20,SKIN,SKIN,NORMAL,NORMAL,2.0,RANDOMIZATION,TREATMENT,2024-02-18,1
EMPEROR-HFPEF,PE,EMPEROR-HFPEF-SITE001-0004,1,ABDOMEN,ABDOMEN,NORMAL,NORMAL,1.0,SCREENING,SCREENING,2024-03-02,-34
EMPEROR-HFPEF,PE,EMPEROR-HFPEF-SITE001-0004,2,CARDIOVA,CARDIOVASCULAR,NORMAL,NORMAL,1.0,SCREENING,SCREENING,2024-03-02,-34
EMPEROR-HFPEF,PE,EMPEROR-HFPEF-SITE001-0004,3,EARSNOSE,"EARS, NOSE, AND THROAT",NORMAL,NORMAL,1.0,SCREENING,SCREENING,2024-03-02,-34
EMPEROR-HFPEF,PE,EMPEROR-HFPEF-SITE001-0004,4,EYES,EYES,NORMAL,NORMAL,1.0,SCREENING,SCREENING,2024-03-02,-34
EMPEROR-HFPEF,PE,EMPEROR-HFPEF-SITE001-0004,5,GENERALA,GENERAL APPEARANCE,NORMAL,NORMAL,1.0,SCREENING,SCREENING,2024-03-02,-34
EMPEROR-HFPEF,PE,EMPEROR-HFPEF-SITE001-0004,6,HEADANDN,HEAD AND NECK,NORMAL,NORMAL,1.0,SCREENING,SCREENING,2024-03-02,-34
EMPEROR-HFPEF,PE,EMPEROR-HFPEF-SITE001-0004,7,MUSCULOS,MUSCULOSKELETAL,NORMAL,NORMAL,1.0,SCREENING,SCREENING,2024-03-02,-34
EMPEROR-HFPEF,PE,EMPEROR-HFPEF-SITE001-0004,8,NEUROLOG,NEUROLOGICAL,NORMAL,NORMAL,1.0,SCREENING,SCREENING,2024-03-02,-34
EMPEROR-HFPEF,PE,EMPEROR-HFPEF-SITE001-0004,9,RESPIRAT,RESPIRATORY,NORMAL,NORMAL,1.0,SCREENING,SCREENING,2024-03-02,-34
EMPEROR-HFPEF,PE,EMPEROR-HFPEF-SITE001-0004,10,SKIN,SKIN,NORMAL,NORMAL,1.0,SCREENING,SCREENING,2024-03-02,-34
EMPEROR-HFPEF,PE,EMPEROR-HFPEF-SITE001-0004,11,ABDOMEN,ABDOMEN,NORMAL,NORMAL,2.0,RANDOMIZATION,TREATMENT,2024-04-05,1
EMPEROR-HFPEF,PE,EMPEROR-HFPEF-SITE001-0004,12,CARDIOVA,CARDIOVASCULAR,NORMAL,NORMAL,2.0,RANDOMIZATION,TREATMENT,2024-04-05,1
EMPEROR-HFPEF,PE,EMPEROR-HFPEF-SITE001-0004,13,EARSNOSE,"EARS, NOSE, AND THROAT",NORMAL,NORMAL,2.0,RANDOMIZATION,TREATMENT,2024-04-05,1
EMPEROR-HFPEF,PE,EMPEROR-HFPEF-SITE001-0004,14,EYES,EYES,NORMAL,NORMAL,2.0,RANDOMIZATION,TREATMENT,2024-04-05,1
EMPEROR-HFPEF,PE,EMPEROR-HFPEF-SITE001-0004,15,GENERALA,GENERAL APPEARANCE,NORMAL,NORMAL,2.0,RANDOMIZATION,TREATMENT,2024-04-05,1
EMPEROR-HFPEF,PE,EMPEROR-HFPEF-SITE001-0004,16,HEADANDN,HEAD AND NECK,NORMAL,NORMAL,2.0,RANDOMIZATION,TREATMENT,2024-04-05,1
EMPEROR-HFPEF,PE,EMPEROR-HFPEF-SITE001-0004,17,MUSCULOS,MUSCULOSKELETAL,NORMAL,NORMAL,2.0,RANDOMIZATION,TREATMENT,2024-04-05,1
EMPEROR-HFPEF,PE,EMPEROR-HFPEF-SITE001-0004,18,NEUROLOG,NEUROLOGICAL,NORMAL,NORMAL,2.0,RANDOMIZATION,TREATMENT,2024-04-05,1
EMPEROR-HFPEF,PE,EMPEROR-HFPEF-SITE001-0004,19,RESPIRAT,RESPIRATORY,NORMAL,NORMAL,2.0,RANDOMIZATION,TREATMENT,2024-04-05,1
EMPEROR-HFPEF,PE,EMPEROR-HFPEF-SITE001-0004,20,SKIN,SKIN,NORMAL,NORMAL,2.0,RANDOMIZATION,TREATMENT,2024-04-05,1
EMPEROR-HFPEF,PE,EMPEROR-HFPEF-SITE001-0007,1,ABDOMEN,ABDOMEN,NORMAL,NORMAL,1.0,SCREENING,SCREENING,2024-01-18,-30
EMPEROR-HFPEF,PE,EMPEROR-HFPEF-SITE001-0007,2,CARDIOVA,CARDIOVASCULAR,NORMAL,NORMAL,1.0,SCREENING,SCREENING,2024-01-18,-30
EMPEROR-HFPEF,PE,EMPEROR-HFPEF-SITE001-0007,3,EARSNOSE,"EARS, NOSE, AND THROAT",NORMAL,NORMAL,1.0,SCREENING,SCREENING,2024-01-18,-30
EMPEROR-HFPEF,PE,EMPEROR-HFPEF-SITE001-0007,4,EYES,EYES,NORMAL,NORMAL,1.0,SCREENING,SCREENING,2024-01-18,-30
EMPEROR-HFPEF,PE,EMPEROR-HFPEF-SITE001-0007,5,GENERALA,GENERAL APPEARANCE,NORMAL,NORMAL,1.0,SCREENING,SCREENING,2024-01-18,-30
EMPEROR-HFPEF,PE,EMPEROR-HFPEF-SITE001-0007,6,HEADANDN,HEAD AND NECK,NORMAL,NORMAL,1.0,SCREENING,SCREENING,2024-01-18,-30
EMPEROR-HFPEF,PE,EMPEROR-HFPEF-SITE001-0007,7,MUSCULOS,MUSCULOSKELETAL,NORMAL,NORMAL,1.0,SCREENING,SCREENING,2024-01-18,-30
EMPEROR-HFPEF,PE,EMPEROR-HFPEF-SITE001-0007,8,NEUROLOG,NEUROLOGICAL,NORMAL,NORMAL,1.0,SCREENING,SCREENING,2024-01-18,-30
EMPEROR-HFPEF,PE,EMPEROR-HFPEF-SITE001-0007,9,RESPIRAT,RESPIRATORY,NORMAL,NORMAL,1.0,SCREENING,SCREENING,2024-01-18,-30
EMPEROR-HFPEF,PE,EMPEROR-HFPEF-SITE001-0007,10,SKIN,SKIN,NORMAL,NORMAL,1.0,SCREENING,SCREENING,2024-01-18,-30
EMPEROR-HFPEF,PE,EMPEROR-HFPEF-SITE001-0007,11,ABDOMEN,ABDOMEN,NORMAL,NORMAL,2.0,RANDOMIZATION,TREATMENT,2024-02-17,1
EMPEROR-HFPEF,PE,EMPEROR-HFPEF-SITE001-0007,12,CARDIOVA,CARDIOVASCULAR,NORMAL,NORMAL,2.0,RANDOMIZATION,TREATMENT,2024-02-17,1
EMPEROR-HFPEF,PE,EMPEROR-HFPEF-SITE001-0007,13,EARSNOSE,"EARS, NOSE, AND THROAT",NORMAL,NORMAL,2.0,RANDOMIZATION,TREATMENT,2024-02-17,1
EMPEROR-HFPEF,PE,EMPEROR-HFPEF-SITE001-0007,14,EYES,EYES,NORMAL,NORMAL,2.0,RANDOMIZATION,TREATMENT,2024-02-17,1
EMPEROR-HFPEF,PE,EMPEROR-HFPEF-SITE001-0007,15,GENERALA,GENERAL APPEARANCE,NORMAL,NORMAL,2.0,RANDOMIZATION,TREATMENT,2024-02-17,1
EMPEROR-HFPEF,PE,EMPEROR-HFPEF-SITE001-0007,16,HEADANDN,HEAD AND NECK,NORMAL,NORMAL,2.0,RANDOMIZATION,TREATMENT,2024-02-17,1
EMPEROR-HFPEF,PE,EMPEROR-HFPEF-SITE001-0007,17,MUSCULOS,MUSCULOSKELETAL,NORMAL,NORMAL,2.0,RANDOMIZATION,TREATMENT,2024-02-17,1
EMPEROR-HFPEF,PE,EMPEROR-HFPEF-SITE001-0007,18,NEUROLOG,NEUROLOGICAL,NORMAL,NORMAL,2.0,RANDOMIZATION,TREATMENT,2024-02-17,1
EMPEROR-HFPEF,PE,EMPEROR-HFPEF-SITE001-0007,19,RESPIRAT,RESPIRATORY,NORMAL,NORMAL,2.0,RANDOMIZATION,TREATMENT,2024-02-17,1
EMPEROR-HFPEF,PE,EMPEROR-HFPEF-SITE001-0007,20,SKIN,SKIN,RASH,RASH,2.0,RANDOMIZATION,TREATMENT,2024-02-17,1
EMPEROR-HFPEF,PE,EMPEROR-HFPEF-SITE001-0010,1,ABDOMEN,ABDOMEN,NORMAL,NORMAL,1.0,SCREENING,SCREENING,2024-02-24,-22
EMPEROR-HFPEF,PE,EMPEROR-HFPEF-SITE001-0010,2,CARDIOVA,CARDIOVASCULAR,IRREGULAR RHYTHM,IRREGULAR RHYTHM,1.0,SCREENING,SCREENING,2024-02-24,-22
EMPEROR-HFPEF,PE,EMPEROR-HFPEF-SITE001-0010,3,EARSNOSE,"EARS, NOSE, AND THROAT",NORMAL,NORMAL,1.0,SCREENING,SCREENING,2024-02-24,-22
EMPEROR-HFPEF,PE,EMPEROR-HFPEF-SITE001-0010,4,EYES,EYES,NORMAL,NORMAL,1.0,SCREENING,SCREENING,2024-02-24,-22
EMPEROR-HFPEF,PE,EMPEROR-HFPEF-SITE001-0010,5,GENERALA,GENERAL APPEARANCE,NORMAL,NORMAL,1.0,SCREENING,SCREENING,2024-02-24,-22
EMPEROR-HFPEF,PE,EMPEROR-HFPEF-SITE001-0010,6,HEADANDN,HEAD AND NECK,NORMAL,NORMAL,1.0,SCREENING,SCREENING,2024-02-24,-22
EMPEROR-HFPEF,PE,EMPEROR-HFPEF-SITE001-0010,7,MUSCULOS,MUSCULOSKELETAL,NORMAL,NORMAL,1.0,SCREENING,SCREENING,2024-02-24,-22
EMPEROR-HFPEF,PE,EMPEROR-HFPEF-SITE001-0010,8,NEUROLOG,NEUROLOGICAL,NORMAL,NORMAL,1.0,SCREENING,SCREENING,2024-02-24,-22
EMPEROR-HFPEF,PE,EMPEROR-HFPEF-SITE001-0010,9,RESPIRAT,RESPIRATORY,NORMAL,NORMAL,1.0,SCREENING,SCREENING,2024-02-24,-22
EMPEROR-HFPEF,PE,EMPEROR-HFPEF-SITE001-0010,10,SKIN,SKIN,NORMAL,NORMAL,1.0,SCREENING,SCREENING,2024-02-24,-22
EMPEROR-HFPEF,PE,EMPEROR-HFPEF-SITE001-0010,11,ABDOMEN,ABDOMEN,NORMAL,NORMAL,2.0,RANDOMIZATION,TREATMENT,2024-03-17,1
EMPEROR-HFPEF,PE,EMPEROR-HFPEF-SITE001-0010,12,CARDIOVA,CARDIOVASCULAR,NORMAL,NORMAL,2.0,RANDOMIZATION,TREATMENT,2024-03-17,1
EMPEROR-HFPEF,PE,EMPEROR-HFPEF-SITE001-0010,13,EARSNOSE,"EARS, NOSE, AND THROAT",NORMAL,NORMAL,2.0,RANDOMIZATION,TREATMENT,2024-03-17,1
EMPEROR-HFPEF,PE,EMPEROR-HFPEF-SITE001-0010,14,EYES,EYES,NORMAL,NORMAL,2.0,RANDOMIZATION,TREATMENT,2024-03-17,1
EMPEROR-HFPEF,PE,EMPEROR-HFPEF-SITE001-0010,15,GENERALA,GENERAL APPEARANCE,NORMAL,NORMAL,2.0,RANDOMIZATION,TREATMENT,2024-03-17,1
EMPEROR-HFPEF,PE,EMPEROR-HFPEF-SITE001-0010,16,HEADANDN,HEAD AND NECK,THYROMEGALY,THYROMEGALY,2.0,RANDOMIZATION,TREATMENT,2024-03-17,1
EMPEROR-HFPEF,PE,EMPEROR-HFPEF-SITE001-0010,17,MUSCULOS,MUSCULOSKELETAL,NORMAL,NORMAL,2.0,RANDOMIZATION,TREATMENT,2024-03-17,1
EMPEROR-HFPEF,PE,EMPEROR-HFPEF-SITE001-0010,18,NEUROLOG,NEUROLOGICAL,NORMAL,NORMAL,2.0,RANDOMIZATION,TREATMENT,2024-03-17,1
EMPEROR-HFPEF,PE,EMPEROR-HFPEF-SITE001-0010,19,RESPIRAT,RESPIRATORY,NORMAL,NORMAL,2.0,RANDOMIZATION,TREATMENT,2024-03-17,1
EMPEROR-HFPEF,PE,EMPEROR-HFPEF-SITE001-0010,20,SKIN,SKIN,NORMAL,NORMAL,2.0,RANDOMIZATION,TREATMENT,2024-03-17,1
EMPEROR-HFPEF,PE,EMPEROR-HFPEF-SITE001-0013,1,ABDOMEN,ABDOMEN,NORMAL,NORMAL,1.0,SCREENING,SCREENING,2024-02-13,-20
EMPEROR-HFPEF,PE,EMPEROR-HFPEF-SITE001-0013,2,CARDIOVA,CARDIOVASCULAR,NORMAL,NORMAL,1.0,SCREENING,SCREENING,2024-02-13,-20
EMPEROR-HFPEF,PE,EMPEROR-HFPEF-SITE001-0013,3,EARSNOSE,"EARS, NOSE, AND THROAT",NORMAL,NORMAL,1.0,SCREENING,SCREENING,2024-02-13,-20
EMPEROR-HFPEF,PE,EMPEROR-HFPEF-SITE001-0013,4,EYES,EYES,NORMAL,NORMAL,1.0,SCREENING,SCREENING,2024-02-13,-20
EMPEROR-HFPEF,PE,EMPEROR-HFPEF-SITE001-0013,5,GENERALA,GENERAL APPEARANCE,NORMAL,NORMAL,1.0,SCREENING,SCREENING,2024-02-13,-20
EMPEROR-HFPEF,PE,EMPEROR-HFPEF-SITE001-0013,6,HEADANDN,HEAD AND NECK,NORMAL,NORMAL,1.0,SCREENING,SCREENING,2024-02-13,-20
EMPEROR-HFPEF,PE,EMPEROR-HFPEF-SITE001-0013,7,MUSCULOS,MUSCULOSKELETAL,NORMAL,NORMAL,1.0,SCREENING,SCREENING,2024-02-13,-20
EMPEROR-HFPEF,PE,EMPEROR-HFPEF-SITE001-0013,8,NEUROLOG,NEUROLOGICAL,NORMAL,NORMAL,1.0,SCREENING,SCREENING,2024-02-13,-20
EMPEROR-HFPEF,PE,EMPEROR-HFPEF-SITE001-0013,9,RESPIRAT,RESPIRATORY,NORMAL,NORMAL,1.0,SCREENING,SCREENING,2024-02-13,-20
EMPEROR-HFPEF,PE,EMPEROR-HFPEF-SITE001-0013,10,SKIN,SKIN,NORMAL,NORMAL,1.0,SCREENING,SCREENING,2024-02-13,-20
EMPEROR-HFPEF,PE,EMPEROR-HFPEF-SITE001-0013,11,ABDOMEN,ABDOMEN,NORMAL,NORMAL,2.0,RANDOMIZATION,TREATMENT,2024-03-04,1
EMPEROR-HFPEF,PE,EMPEROR-HFPEF-SITE001-0013,12,CARDIOVA,CARDIOVASCULAR,NORMAL,NORMAL,2.0,RANDOMIZATION,TREATMENT,2024-03-04,1
EMPEROR-HFPEF,PE,EMPEROR-HFPEF-SITE001-0013,13,EARSNOSE,"EARS, NOSE, AND THROAT",NORMAL,NORMAL,2.0,RANDOMIZATION,TREATMENT,2024-03-04,1
EMPEROR-HFPEF,PE,EMPEROR-HFPEF-SITE001-0013,14,EYES,EYES,NORMAL,NORMAL,2.0,RANDOMIZATION,TREATMENT,2024-03-04,1
EMPEROR-HFPEF,PE,EMPEROR-HFPEF-SITE001-0013,15,GENERALA,GENERAL APPEARANCE,NORMAL,NORMAL,2.0,RANDOMIZATION,TREATMENT,2024-03-04,1
EMPEROR-HFPEF,PE,EMPEROR-HFPEF-SITE001-0013,16,HEADANDN,HEAD AND NECK,NORMAL,NORMAL,2.0,RANDOMIZATION,TREATMENT,2024-03-04,1
EMPEROR-HFPEF,PE,EMPEROR-HFPEF-SITE001-0013,17,MUSCULOS,MUSCULOSKELETAL,NORMAL,NORMAL,2.0,RANDOMIZATION,TREATMENT,2024-03-04,1
EMPEROR-HFPEF,PE,EMPEROR-HFPEF-SITE001-0013,18,NEUROLOG,NEUROLOGICAL,NORMAL,NORMAL,2.0,RANDOMIZATION,TREATMENT,2024-03-04,1
EMPEROR-HFPEF,PE,EMPEROR-HFPEF-SITE001-0013,19,RESPIRAT,RESPIRATORY,NORMAL,NORMAL,2.0,RANDOMIZATION,TREATMENT,2024-03-04,1
EMPEROR-HFPEF,PE,EMPEROR-HFPEF-SITE001-0013,20,SKIN,SKIN,NORMAL,NORMAL,2.0,RANDOMIZATION,TREATMENT,2024-03-04,1
EMPEROR-HFPEF,PE,EMPEROR-HFPEF-SITE001-0016,1,ABDOMEN,ABDOMEN,NORMAL,NORMAL,1.0,SCREENING,SCREENING,2024-03-09,-24
EMPEROR-HFPEF,PE,EMPEROR-HFPEF-SITE001-0016,2,CARDIOVA,CARDIOVASCULAR,NORMAL,NORMAL,1.0,SCREENING,SCREENING,2024-03-09,-24
EMPEROR-HFPEF,PE,EMPEROR-HFPEF-SITE001-0016,3,EARSNOSE,"EARS, NOSE, AND THROAT",NORMAL,NORMAL,1.0,SCREENING,SCREENING,2024-03-09,-24
EMPEROR-HFPEF,PE,EMPEROR-HFPEF-SITE001-0016,4,EYES,EYES,NORMAL,NORMAL,1.0,SCREENING,SCREENING,2024-03-09,-24
EMPEROR-HFPEF,PE,EMPEROR-HFPEF-SITE001-0016,5,GENERALA,GENERAL APPEARANCE,NORMAL,NORMAL,1.0,SCREENING,SCREENING,2024-03-09,-24
EMPEROR-HFPEF,PE,EMPEROR-HFPEF-SITE001-0016,6,HEADANDN,HEAD AND NECK,NORMAL,NORMAL,1.0,SCREENING,SCREENING,2024-03-09,-24
EMPEROR-HFPEF,PE,EMPEROR-HFPEF-SITE001-0016,7,MUSCULOS,MUSCULOSKELETAL,NORMAL,NORMAL,1.0,SCREENING,SCREENING,2024-03-09,-24
EMPEROR-HFPEF,PE,EMPEROR-HFPEF-SITE001-0016,8,NEUROLOG,NEUROLOGICAL,DECREASED SENSATION,DECREASED SENSATION,1.0,SCREENING,SCREENING,2024-03-09,-24
EMPEROR-HFPEF,PE,EMPEROR-HFPEF-SITE001-0016,9,RESPIRAT,RESPIRATORY,NORMAL,NORMAL,1.0,SCREENING,SCREENING,2024-03-09,-24
EMPEROR-HFPEF,PE,EMPEROR-HFPEF-SITE001-0016,10,SKIN,SKIN,NORMAL,NORMAL,1.0,SCREENING,SCREENING,2024-03-09,-24
EMPEROR-HFPEF,PE,EMPEROR-HFPEF-SITE001-0016,11,ABDOMEN,ABDOMEN,NORMAL,NORMAL,2.0,RANDOMIZATION,TREATMENT,2024-04-02,1
EMPEROR-HFPEF,PE,EMPEROR-HFPEF-SITE001-0016,12,CARDIOVA,CARDIOVASCULAR,NORMAL,NORMAL,2.0,RANDOMIZATION,TREATMENT,2024-04-02,1
EMPEROR-HFPEF,PE,EMPEROR-HFPEF-SITE001-0016,13,EARSNOSE,"EARS, NOSE, AND THROAT",NORMAL,NORMAL,2.0,RANDOMIZATION,TREATMENT,2024-04-02,1
EMPEROR-HFPEF,PE,EMPEROR-HFPEF-SITE001-0016,14,EYES,EYES,NORMAL,NORMAL,2.0,RANDOMIZATION,TREATMENT,2024-04-02,1
EMPEROR-HFPEF,PE,EMPEROR-HFPEF-SITE001-0016,15,GENERALA,GENERAL APPEARANCE,NORMAL,NORMAL,2.0,RANDOMIZATION,TREATMENT,2024-04-02,1
EMPEROR-HFPEF,PE,EMPEROR-HFPEF-SITE001-0016,16,HEADANDN,HEAD AND NECK,NORMAL,NORMAL,2.0,RANDOMIZATION,TREATMENT,2024-04-02,1
EMPEROR-HFPEF,PE,EMPEROR-HFPEF-SITE001-0016,17,MUSCULOS,MUSCULOSKELETAL,NORMAL,NORMAL,2.0,RANDOMIZATION,TREATMENT,2024-04-02,1
EMPEROR-HFPEF,PE,EMPEROR-HFPEF-SITE001-0016,18,NEUROLOG,NEUROLOGICAL,NORMAL,NORMAL,2.0,RANDOMIZATION,TREATMENT,2024-04-02,1
EMPEROR-HFPEF,PE,EMPEROR-HFPEF-SITE001-0016,19,RESPIRAT,RESPIRATORY,NORMAL,NORMAL,2.0,RANDOMIZATION,TREATMENT,2024-04-02,1
EMPEROR-HFPEF,PE,EMPEROR-HFPEF-SITE001-0016,20,SKIN,SKIN,NORMAL,NORMAL,2.0,RANDOMIZATION,TREATMENT,2024-04-02,1
EMPEROR-HFPEF,PE,EMPEROR-HFPEF-SITE001-0019,1,ABDOMEN,ABDOMEN,NORMAL,NORMAL,1.0,SCREENING,SCREENING,2024-03-16,-9
EMPEROR-HFPEF,PE,EMPEROR-HFPEF-SITE001-0019,2,CARDIOVA,CARDIOVASCULAR,IRREGULAR RHYTHM,IRREGULAR RHYTHM,1.0,SCREENING,SCREENING,2024-03-16,-9
EMPEROR-HFPEF,PE,EMPEROR-HFPEF-SITE001-0019,3,EARSNOSE,"EARS, NOSE, AND THROAT",NORMAL,NORMAL,1.0,SCREENING,SCREENING,2024-03-16,-9
EMPEROR-HFPEF,PE,EMPEROR-HFPEF-SITE001-0019,4,EYES,EYES,NORMAL,NORMAL,1.0,SCREENING,SCREENING,2024-03-16,-9
EMPEROR-HFPEF,PE,EMPEROR-HFPEF-SITE001-0019,5,GENERALA,GENERAL APPEARANCE,NORMAL,NORMAL,1.0,SCREENING,SCREENING,2024-03-16,-9
EMPEROR-HFPEF,PE,EMPEROR-HFPEF-SITE001-0019,6,HEADANDN,HEAD AND NECK,NORMAL,NORMAL,1.0,SCREENING,SCREENING,2024-03-16,-9
EMPEROR-HFPEF,PE,EMPEROR-HFPEF-SITE001-0019,7,MUSCULOS,MUSCULOSKELETAL,NORMAL,NORMAL,1.0,SCREENING,SCREENING,2024-03-16,-9
EMPEROR-HFPEF,PE,EMPEROR-HFPEF-SITE001-0019,8,NEUROLOG,NEUROLOGICAL,NORMAL,NORMAL,1.0,SCREENING,SCREENING,2024-03-16,-9
EMPEROR-HFPEF,PE,EMPEROR-HFPEF-SITE001-0019,9,RESPIRAT,RESPIRATORY,NORMAL,NORMAL,1.0,SCREENING,SCREENING,2024-03-16,-9
EMPEROR-HFPEF,PE,EMPEROR-HFPEF-SITE001-0019,10,SKIN,SKIN,NORMAL,NORMAL,1.0,SCREENING,SCREENING,2024-03-16,-9
EMPEROR-HFPEF,PE,EMPEROR-HFPEF-SITE001-0019,11,ABDOMEN,ABDOMEN,NORMAL,NORMAL,2.0,RANDOMIZATION,TREATMENT,2024-03-25,1
EMPEROR-HFPEF,PE,EMPEROR-HFPEF-SITE001-0019,12,CARDIOVA,CARDIOVASCULAR,NORMAL,NORMAL,2.0,RANDOMIZATION,TREATMENT,2024-03-25,1
EMPEROR-HFPEF,PE,EMPEROR-HFPEF-SITE001-0019,13,EARSNOSE,"EARS, NOSE, AND THROAT",NORMAL,NORMAL,2.0,RANDOMIZATION,TREATMENT,2024-03-25,1
EMPEROR-HFPEF,PE,EMPEROR-HFPEF-SITE001-0019,14,EYES,EYES,NORMAL,NORMAL,2.0,RANDOMIZATION,TREATMENT,2024-03-25,1
EMPEROR-HFPEF,PE,EMPEROR-HFPEF-SITE001-0019,15,GENERALA,GENERAL APPEARANCE,NORMAL,NORMAL,2.0,RANDOMIZATION,TREATMENT,2024-03-25,1
EMPEROR-HFPEF,PE,EMPEROR-HFPEF-SITE001-0019,16,HEADANDN,HEAD AND NECK,NORMAL,NORMAL,2.0,RANDOMIZATION,TREATMENT,2024-03-25,1
EMPEROR-HFPEF,PE,EMPEROR-HFPEF-SITE001-0019,17,MUSCULOS,MUSCULOSKELETAL,NORMAL,NORMAL,2.0,RANDOMIZATION,TREATMENT,2024-03-25,1
EMPEROR-HFPEF,PE,EMPEROR-HFPEF-SITE001-0019,18,NEUROLOG,NEUROLOGICAL,NORMAL,NORMAL,2.0,RANDOMIZATION,TREATMENT,2024-03-25,1
EMPEROR-HFPEF,PE,EMPEROR-HFPEF-SITE001-0019,19,RESPIRAT,RESPIRATORY,NORMAL,NORMAL,2.0,RANDOMIZATION,TREATMENT,2024-03-25,1
EMPEROR-HFPEF,PE,EMPEROR-HFPEF-SITE001-0019,20,SKIN,SKIN,NORMAL,NORMAL,2.0,RANDOMIZATION,TREATMENT,2024-03-25,1
EMPEROR-HFPEF,PE,EMPEROR-HFPEF-SITE001-0022,1,ABDOMEN,ABDOMEN,NORMAL,NORMAL,1.0,SCREENING,SCREENING,2024-04-05,-21
EMPEROR-HFPEF,PE,EMPEROR-HFPEF-SITE001-0022,2,CARDIOVA,CARDIOVASCULAR,NORMAL,NORMAL,1.0,SCREENING,SCREENING,2024-04-05,-21
EMPEROR-HFPEF,PE,EMPEROR-HFPEF-SITE001-0022,3,EARSNOSE,"EARS, NOSE, AND THROAT",NORMAL,NORMAL,1.0,SCREENING,SCREENING,2024-04-05,-21
EMPEROR-HFPEF,PE,EMPEROR-HFPEF-SITE001-0022,4,EYES,EYES,NORMAL,NORMAL,1.0,SCREENING,SCREENING,2024-04-05,-21
EMPEROR-HFPEF,PE,EMPEROR-HFPEF-SITE001-0022,5,GENERALA,GENERAL APPEARANCE,NORMAL,NORMAL,1.0,SCREENING,SCREENING,2024-04-05,-21
EMPEROR-HFPEF,PE,EMPEROR-HFPEF-SITE001-0022,6,HEADANDN,HEAD AND NECK,NORMAL,NORMAL,1.0,SCREENING,SCREENING,2024-04-05,-21
EMPEROR-HFPEF,PE,EMPEROR-HFPEF-SITE001-0022,7,MUSCULOS,MUSCULOSKELETAL,NORMAL,NORMAL,1.0,SCREENING,SCREENING,2024-04-05,-21
EMPEROR-HFPEF,PE,EMPEROR-HFPEF-SITE001-0022,8,NEUROLOG,NEUROLOGICAL,NORMAL,NORMAL,1.0,SCREENING,SCREENING,2024-04-05,-21
EMPEROR-HFPEF,PE,EMPEROR-HFPEF-SITE001-0022,9,RESPIRAT,RESPIRATORY,NORMAL,NORMAL,1.0,SCREENING,SCREENING,2024-04-05,-21
EMPEROR-HFPEF,PE,EMPEROR-HFPEF-SITE001-0022,10,SKIN,SKIN,NORMAL,NORMAL,1.0,SCREENING,SCREENING,2024-04-05,-21
EMPEROR-HFPEF,PE,EMPEROR-HFPEF-SITE001-0022,11,ABDOMEN,ABDOMEN,NORMAL,NORMAL,2.0,RANDOMIZATION,TREATMENT,2024-04-26,1
EMPEROR-HFPEF,PE,EMPEROR-HFPEF-SITE001-0022,12,CARDIOVA,CARDIOVASCULAR,NORMAL,NORMAL,2.0,RANDOMIZATION,TREATMENT,2024-04-26,1
EMPEROR-HFPEF,PE,EMPEROR-HFPEF-SITE001-0022,13,EARSNOSE,"EARS, NOSE, AND THROAT",NORMAL,NORMAL,2.0,RANDOMIZATION,TREATMENT,2024-04-26,1
EMPEROR-HFPEF,PE,EMPEROR-HFPEF-SITE001-0022,14,EYES,EYES,NORMAL,NORMAL,2.0,RANDOMIZATION,TREATMENT,2024-04-26,1
EMPEROR-HFPEF,PE,EMPEROR-HFPEF-SITE001-0022,15,GENERALA,GENERAL APPEARANCE,NORMAL,NORMAL,2.0,RANDOMIZATION,TREATMENT,2024-04-26,1
EMPEROR-HFPEF,PE,EMPEROR-HFPEF-SITE001-0022,16,HEADANDN,HEAD AND NECK,NORMAL,NORMAL,2.0,RANDOMIZATION,TREATMENT,2024-04-26,1
EMPEROR-HFPEF,PE,EMPEROR-HFPEF-SITE001-0022,17,MUSCULOS,MUSCULOSKELETAL,NORMAL,NORMAL,2.0,RANDOMIZATION,TREATMENT,2024-04-26,1
EMPEROR-HFPEF,PE,EMPEROR-HFPEF-SITE001-0022,18,NEUROLOG,NEUROLOGICAL,NORMAL,NORMAL,2.0,RANDOMIZATION,TREATMENT,2024-04-26,1
EMPEROR-HFPEF,PE,EMPEROR-HFPEF-SITE001-0022,19,RESPIRAT,RESPIRATORY,NORMAL,NORMAL,2.0,RANDOMIZATION,TREATMENT,2024-04-26,1
EMPEROR-HFPEF,PE,EMPEROR-HFPEF-SITE001-0022,20,SKIN,SKIN,NORMAL,NORMAL,2.0,RANDOMIZATION,TREATMENT,2024-04-26,1
EMPEROR-HFPEF,PE,EMPEROR-HFPEF-SITE001-0025,1,ABDOMEN,ABDOMEN,NORMAL,NORMAL,1.0,SCREENING,SCREENING,2024-01-17,-21
EMPEROR-HFPEF,PE,EMPEROR-HFPEF-SITE001-0025,2,CARDIOVA,CARDIOVASCULAR,NORMAL,NORMAL,1.0,SCREENING,SCREENING,2024-01-17,-21
EMPEROR-HFPEF,PE,EMPEROR-HFPEF-SITE001-0025,3,EARSNOSE,"EARS, NOSE, AND THROAT",NORMAL,NORMAL,1.0,SCREENING,SCREENING,2024-01-17,-21
EMPEROR-HFPEF,PE,EMPEROR-HFPEF-SITE001-0025,4,EYES,EYES,NORMAL,NORMAL,1.0,SCREENING,SCREENING,2024-01-17,-21
EMPEROR-HFPEF,PE,EMPEROR-HFPEF-SITE001-0025,5,GENERALA,GENERAL APPEARANCE,NORMAL,NORMAL,1.0,SCREENING,SCREENING,2024-01-17,-21
EMPEROR-HFPEF,PE,EMPEROR-HFPEF-SITE001-0025,6,HEADANDN,HEAD AND NECK,NORMAL,NORMAL,1.0,SCREENING,SCREENING,2024-01-17,-21
EMPEROR-HFPEF,PE,EMPEROR-HFPEF-SITE001-0025,7,MUSCULOS,MUSCULOSKELETAL,NORMAL,NORMAL,1.0,SCREENING,SCREENING,2024-01-17,-21
EMPEROR-HFPEF,PE,EMPEROR-HFPEF-SITE001-0025,8,NEUROLOG,NEUROLOGICAL,NORMAL,NORMAL,1.0,SCREENING,SCREENING,2024-01-17,-21
EMPEROR-HFPEF,PE,EMPEROR-HFPEF-SITE001-0025,9,RESPIRAT,RESPIRATORY,NORMAL,NORMAL,1.0,SCREENING,SCREENING,2024-01-17,-21
EMPEROR-HFPEF,PE,EMPEROR-HFPEF-SITE001-0025,10,SKIN,SKIN,NORMAL,NORMAL,1.0,SCREENING,SCREENING,2024-01-17,-21
EMPEROR-HFPEF,PE,EMPEROR-HFPEF-SITE001-0025,11,ABDOMEN,ABDOMEN,NORMAL,NORMAL,2.0,RANDOMIZATION,TREATMENT,2024-02-07,1
EMPEROR-HFPEF,PE,EMPEROR-HFPEF-SITE001-0025,12,CARDIOVA,CARDIOVASCULAR,NORMAL,NORMAL,2.0,RANDOMIZATION,TREATMENT,2024-02-07,1
EMPEROR-HFPEF,PE,EMPEROR-HFPEF-SITE001-0025,13,EARSNOSE,"EARS, NOSE, AND THROAT",NORMAL,NORMAL,2.0,RANDOMIZATION,TREATMENT,2024-02-07,1
EMPEROR-HFPEF,PE,EMPEROR-HFPEF-SITE001-0025,14,EYES,EYES,NORMAL,NORMAL,2.0,RANDOMIZATION,TREATMENT,2024-02-07,1
EMPEROR-HFPEF,PE,EMPEROR-HFPEF-SITE001-0025,15,GENERALA,GENERAL APPEARANCE,NORMAL,NORMAL,2.0,RANDOMIZATION,TREATMENT,2024-02-07,1
EMPEROR-HFPEF,PE,EMPEROR-HFPEF-SITE001-0025,16,HEADANDN,HEAD AND NECK,NORMAL,NORMAL,2.0,RANDOMIZATION,TREATMENT,2024-02-07,1
EMPEROR-HFPEF,PE,EMPEROR-HFPEF-SITE001-0025,17,MUSCULOS,MUSCULOSKELETAL,NORMAL,NORMAL,2.0,RANDOMIZATION,TREATMENT,2024-02-07,1
EMPEROR-HFPEF,PE,EMPEROR-HFPEF-SITE001-0025,18,NEUROLOG,NEUROLOGICAL,NORMAL,NORMAL,2.0,RANDOMIZATION,TREATMENT,2024-02-07,1
EMPEROR-HFPEF,PE,EMPEROR-HFPEF-SITE001-0025,19,RESPIRAT,RESPIRATORY,NORMAL,NORMAL,2.0,RANDOMIZATION,TREATMENT,2024-02-07,1
EMPEROR-HFPEF,PE,EMPEROR-HFPEF-SITE001-0025,20,SKIN,SKIN,NORMAL,NORMAL,2.0,RANDOMIZATION,TREATMENT,2024-02-07,1
EMPEROR-HFPEF,PE,EMPEROR-HFPEF-SITE001-0028,1,ABDOMEN,ABDOMEN,NORMAL,NORMAL,1.0,SCREENING,SCREENING,2024-03-01,-23
EMPEROR-HFPEF,PE,EMPEROR-HFPEF-SITE001-0028,2,CARDIOVA,CARDIOVASCULAR,NORMAL,NORMAL,1.0,SCREENING,SCREENING,2024-03-01,-23
EMPEROR-HFPEF,PE,EMPEROR-HFPEF-SITE001-0028,3,EARSNOSE,"EARS, NOSE, AND THROAT",NORMAL,NORMAL,1.0,SCREENING,SCREENING,2024-03-01,-23
EMPEROR-HFPEF,PE,EMPEROR-HFPEF-SITE001-0028,4,EYES,EYES,NORMAL,NORMAL,1.0,SCREENING,SCREENING,2024-03-01,-23
EMPEROR-HFPEF,PE,EMPEROR-HFPEF-SITE001-0028,5,GENERALA,GENERAL APPEARANCE,NORMAL,NORMAL,1.0,SCREENING,SCREENING,2024-03-01,-23
EMPEROR-HFPEF,PE,EMPEROR-HFPEF-SITE001-0028,6,HEADANDN,HEAD AND NECK,NORMAL,NORMAL,1.0,SCREENING,SCREENING,2024-03-01,-23
EMPEROR-HFPEF,PE,EMPEROR-HFPEF-SITE001-0028,7,MUSCULOS,MUSCULOSKELETAL,NORMAL,NORMAL,1.0,SCREENING,SCREENING,2024-03-01,-23
EMPEROR-HFPEF,PE,EMPEROR-HFPEF-SITE001-0028,8,NEUROLOG,NEUROLOGICAL,NORMAL,NORMAL,1.0,SCREENING,SCREENING,2024-03-01,-23
EMPEROR-HFPEF,PE,EMPEROR-HFPEF-SITE001-0028,9,RESPIRAT,RESPIRATORY,NORMAL,NORMAL,1.0,SCREENING,SCREENING,2024-03-01,-23
EMPEROR-HFPEF,PE,EMPEROR-HFPEF-SITE001-0028,10,SKIN,SKIN,NORMAL,NORMAL,1.0,SCREENING,SCREENING,2024-03-01,-23
EMPEROR-HFPEF,PE,EMPEROR-HFPEF-SITE001-0028,11,ABDOMEN,ABDOMEN,NORMAL,NORMAL,2.0,RANDOMIZATION,TREATMENT,2024-03-24,1
EMPEROR-HFPEF,PE,EMPEROR-HFPEF-SITE001-0028,12,CARDIOVA,CARDIOVASCULAR,NORMAL,NORMAL,2.0,RANDOMIZATION,TREATMENT,2024-03-24,1
EMPEROR-HFPEF,PE,EMPEROR-HFPEF-SITE001-0028,13,EARSNOSE,"EARS, NOSE, AND THROAT",NORMAL,NORMAL,2.0,RANDOMIZATION,TREATMENT,2024-03-24,1
EMPEROR-HFPEF,PE,EMPEROR-HFPEF-SITE001-0028,14,EYES,EYES,NORMAL,NORMAL,2.0,RANDOMIZATION,TREATMENT,2024-03-24,1
EMPEROR-HFPEF,PE,EMPEROR-HFPEF-SITE001-0028,15,GENERALA,GENERAL APPEARANCE,NORMAL,NORMAL,2.0,RANDOMIZATION,TREATMENT,2024-03-24,1
EMPEROR-HFPEF,PE,EMPEROR-HFPEF-SITE001-0028,16,HEADANDN,HEAD AND NECK,NORMAL,NORMAL,2.0,RANDOMIZATION,TREATMENT,2024-03-24,1
EMPEROR-HFPEF,PE,EMPEROR-HFPEF-SITE001-0028,17,MUSCULOS,MUSCULOSKELETAL,NORMAL,NORMAL,2.0,RANDOMIZATION,TREATMENT,2024-03-24,1
EMPEROR-HFPEF,PE,EMPEROR-HFPEF-SITE001-0028,18,NEUROLOG,NEUROLOGICAL,NORMAL,NORMAL,2.0,RANDOMIZATION,TREATMENT,2024-03-24,1
EMPEROR-HFPEF,PE,EMPEROR-HFPEF-SITE001-0028,19,RESPIRAT,RESPIRATORY,NORMAL,NORMAL,2.0,RANDOMIZATION,TREATMENT,2024-03-24,1
EMPEROR-HFPEF,PE,EMPEROR-HFPEF-SITE001-0028,20,SKIN,SKIN,NORMAL,NORMAL,2.0,RANDOMIZATION,TREATMENT,2024-03-24,1
EMPEROR-HFPEF,PE,EMPEROR-HFPEF-SITE001-0031,1,ABDOMEN,ABDOMEN,NORMAL,NORMAL,1.0,SCREENING,SCREENING,2024-02-25,-12
EMPEROR-HFPEF,PE,EMPEROR-HFPEF-SITE001-0031,2,CARDIOVA,CARDIOVASCULAR,NORMAL,NORMAL,1.0,SCREENING,SCREENING,2024-02-25,-12
EMPEROR-HFPEF,PE,EMPEROR-HFPEF-SITE001-0031,3,EARSNOSE,"EARS, NOSE, AND THROAT",NORMAL,NORMAL,1.0,SCREENING,SCREENING,2024-02-25,-12
EMPEROR-HFPEF,PE,EMPEROR-HFPEF-SITE001-0031,4,EYES,EYES,NORMAL,NORMAL,1.0,SCREENING,SCREENING,2024-02-25,-12
EMPEROR-HFPEF,PE,EMPEROR-HFPEF-SITE001-0031,5,GENERALA,GENERAL APPEARANCE,NORMAL,NORMAL,1.0,SCREENING,SCREENING,2024-02-25,-12
EMPEROR-HFPEF,PE,EMPEROR-HFPEF-SITE001-0031,6,HEADANDN,HEAD AND NECK,NORMAL,NORMAL,1.0,SCREENING,SCREENING,2024-02-25,-12
EMPEROR-HFPEF,PE,EMPEROR-HFPEF-SITE001-0031,7,MUSCULOS,MUSCULOSKELETAL,NORMAL,NORMAL,1.0,SCREENING,SCREENING,2024-02-25,-12
EMPEROR-HFPEF,PE,EMPEROR-HFPEF-SITE001-0031,8,NEUROLOG,NEUROLOGICAL,NORMAL,NORMAL,1.0,SCREENING,SCREENING,2024-02-25,-12
EMPEROR-HFPEF,PE,EMPEROR-HFPEF-SITE001-0031,9,RESPIRAT,RESPIRATORY,NORMAL,NORMAL,1.0,SCREENING,SCREENING,2024-02-25,-12
EMPEROR-HFPEF,PE,EMPEROR-HFPEF-SITE001-0031,10,SKIN,SKIN,NORMAL,NORMAL,1.0,SCREENING,SCREENING,2024-02-25,-12
EMPEROR-HFPEF,PE,EMPEROR-HFPEF-SITE001-0031,11,ABDOMEN,ABDOMEN,NORMAL,NORMAL,2.0,RANDOMIZATION,TREATMENT,2024-03-08,1
EMPEROR-HFPEF,PE,EMPEROR-HFPEF-SITE001-0031,12,CARDIOVA,CARDIOVASCULAR,NORMAL,NORMAL,2.0,RANDOMIZATION,TREATMENT,2024-03-08,1
EMPEROR-HFPEF,PE,EMPEROR-HFPEF-SITE001-0031,13,EARSNOSE,"EARS, NOSE, AND THROAT",NORMAL,NORMAL,2.0,RANDOMIZATION,TREATMENT,2024-03-08,1
EMPEROR-HFPEF,PE,EMPEROR-HFPEF-SITE001-0031,14,EYES,EYES,NORMAL,NORMAL,2.0,RANDOMIZATION,TREATMENT,2024-03-08,1
EMPEROR-HFPEF,PE,EMPEROR-HFPEF-SITE001-0031,15,GENERALA,GENERAL APPEARANCE,NORMAL,NORMAL,2.0,RANDOMIZATION,TREATMENT,2024-03-08,1
EMPEROR-HFPEF,PE,EMPEROR-HFPEF-SITE001-0031,16,HEADANDN,HEAD AND NECK,NORMAL,NORMAL,2.0,RANDOMIZATION,TREATMENT,2024-03-08,1
EMPEROR-HFPEF,PE,EMPEROR-HFPEF-SITE001-0031,17,MUSCULOS,MUSCULOSKELETAL,NORMAL,NORMAL,2.0,RANDOMIZATION,TREATMENT,2024-03-08,1
EMPEROR-HFPEF,PE,EMPEROR-HFPEF-SITE001-0031,18,NEUROLOG,NEUROLOGICAL,NORMAL,NORMAL,2.0,RANDOMIZATION,TREATMENT,2024-03-08,1
EMPEROR-HFPEF,PE,EMPEROR-HFPEF-SITE001-0031,19,RESPIRAT,RESPIRATORY,NORMAL,NORMAL,2.0,RANDOMIZATION,TREATMENT,2024-03-08,1
EMPEROR-HFPEF,PE,EMPEROR-HFPEF-SITE001-0031,20,SKIN,SKIN,NORMAL,NORMAL,2.0,RANDOMIZATION,TREATMENT,2024-03-08,1
EMPEROR-HFPEF,PE,EMPEROR-HFPEF-SITE001-0034,1,ABDOMEN,ABDOMEN,NORMAL,NORMAL,1.0,SCREENING,SCREENING,2024-04-09,-20
EMPEROR-HFPEF,PE,EMPEROR-HFPEF-SITE001-0034,2,CARDIOVA,CARDIOVASCULAR,NORMAL,NORMAL,1.0,SCREENING,SCREENING,2024-04-09,-20
EMPEROR-HFPEF,PE,EMPEROR-HFPEF-SITE001-0034,3,EARSNOSE,"EARS, NOSE, AND THROAT",NORMAL,NORMAL,1.0,SCREENING,SCREENING,2024-04-09,-20
EMPEROR-HFPEF,PE,EMPEROR-HFPEF-SITE001-0034,4,EYES,EYES,NORMAL,NORMAL,1.0,SCREENING,SCREENING,2024-04-09,-20
EMPEROR-HFPEF,PE,EMPEROR-HFPEF-SITE001-0034,5,GENERALA,GENERAL APPEARANCE,NORMAL,NORMAL,1.0,SCREENING,SCREENING,2024-04-09,-20
EMPEROR-HFPEF,PE,EMPEROR-HFPEF-SITE001-0034,6,HEADANDN,HEAD AND NECK,NORMAL,NORMAL,1.0,SCREENING,SCREENING,2024-04-09,-20
EMPEROR-HFPEF,PE,EMPEROR-HFPEF-SITE001-0034,7,MUSCULOS,MUSCULOSKELETAL,NORMAL,NORMAL,1.0,SCREENING,SCREENING,2024-04-09,-20
EMPEROR-HFPEF,PE,EMPEROR-HFPEF-SITE001-0034,8,NEUROLOG,NEUROLOGICAL,NORMAL,NORMAL,1.0,SCREENING,SCREENING,2024-04-09,-20
EMPEROR-HFPEF,PE,EMPEROR-HFPEF-SITE001-0034,9,RESPIRAT,RESPIRATORY,NORMAL,NORMAL,1.0,SCREENING,SCREENING,2024-04-09,-20
EMPEROR-HFPEF,PE,EMPEROR-HFPEF-SITE001-0034,10,SKIN,SKIN,NORMAL,NORMAL,1.0,SCREENING,SCREENING,2024-04-09,-20
EMPEROR-HFPEF,PE,EMPEROR-HFPEF-SITE001-0034,11,ABDOMEN,ABDOMEN,TENDERNESS,TENDERNESS,2.0,RANDOMIZATION,TREATMENT,2024-04-29,1
EMPEROR-HFPEF,PE,EMPEROR-HFPEF-SITE001-0034,12,CARDIOVA,CARDIOVASCULAR,NORMAL,NORMAL,2.0,RANDOMIZATION,TREATMENT,2024-04-29,1
EMPEROR-HFPEF,PE,EMPEROR-HFPEF-SITE001-0034,13,EARSNOSE,"EARS, NOSE, AND THROAT",NORMAL,NORMAL,2.0,RANDOMIZATION,TREATMENT,2024-04-29,1
EMPEROR-HFPEF,PE,EMPEROR-HFPEF-SITE001-0034,14,EYES,EYES,NORMAL,NORMAL,2.0,RANDOMIZATION,TREATMENT,2024-04-29,1
EMPEROR-HFPEF,PE,EMPEROR-HFPEF-SITE001-0034,15,GENERALA,GENERAL APPEARANCE,NORMAL,NORMAL,2.0,RANDOMIZATION,TREATMENT,2024-04-29,1
EMPEROR-HFPEF,PE,EMPEROR-HFPEF-SITE001-0034,16,HEADANDN,HEAD AND NECK,NORMAL,NORMAL,2.0,RANDOMIZATION,TREATMENT,2024-04-29,1
EMPEROR-HFPEF,PE,EMPEROR-HFPEF-SITE001-0034,17,MUSCULOS,MUSCULOSKELETAL,NORMAL,NORMAL,2.0,RANDOMIZATION,TREATMENT,2024-04-29,1
EMPEROR-HFPEF,PE,EMPEROR-HFPEF-SITE001-0034,18,NEUROLOG,NEUROLOGICAL,NORMAL,NORMAL,2.0,RANDOMIZATION,TREATMENT,2024-04-29,1
EMPEROR-HFPEF,PE,EMPEROR-HFPEF-SITE001-0034,19,RESPIRAT,RESPIRATORY,NORMAL,NORMAL,2.0,RANDOMIZATION,TREATMENT,2024-04-29,1
EMPEROR-HFPEF,PE,EMPEROR-HFPEF-SITE001-0034,20,SKIN,SKIN,NORMAL,NORMAL,2.0,RANDOMIZATION,TREATMENT,2024-04-29,1
EMPEROR-HFPEF,PE,EMPEROR-HFPEF-SITE001-0037,1,ABDOMEN,ABDOMEN,NORMAL,NORMAL,1.0,SCREENING,SCREENING,2024-02-08,-21
EMPEROR-HFPEF,PE,EMPEROR-HFPEF-SITE001-0037,2,CARDIOVA,CARDIOVASCULAR,NORMAL,NORMAL,1.0,SCREENING,SCREENING,2024-02-08,-21
EMPEROR-HFPEF,PE,EMPEROR-HFPEF-SITE001-0037,3,EARSNOSE,"EARS, NOSE, AND THROAT",NORMAL,NORMAL,1.0,SCREENING,SCREENING,2024-02-08,-21
EMPEROR-HFPEF,PE,EMPEROR-HFPEF-SITE001-0037,4,EYES,EYES,NORMAL,NORMAL,1.0,SCREENING,SCREENING,2024-02-08,-21
EMPEROR-HFPEF,PE,EMPEROR-HFPEF-SITE001-0037,5,GENERALA,GENERAL APPEARANCE,NORMAL,NORMAL,1.0,SCREENING,SCREENING,2024-02-08,-21
EMPEROR-HFPEF,PE,EMPEROR-HFPEF-SITE001-0037,6,HEADANDN,HEAD AND NECK,NORMAL,NORMAL,1.0,SCREENING,SCREENING,2024-02-08,-21
EMPEROR-HFPEF,PE,EMPEROR-HFPEF-SITE001-0037,7,MUSCULOS,MUSCULOSKELETAL,NORMAL,NORMAL,1.0,SCREENING,SCREENING,2024-02-08,-21
EMPEROR-HFPEF,PE,EMPEROR-HFPEF-SITE001-0037,8,NEUROLOG,NEUROLOGICAL,NORMAL,NORMAL,1.0,SCREENING,SCREENING,2024-02-08,-21
EMPEROR-HFPEF,PE,EMPEROR-HFPEF-SITE001-0037,9,RESPIRAT,RESPIRATORY,NORMAL,NORMAL,1.0,SCREENING,SCREENING,2024-02-08,-21
EMPEROR-HFPEF,PE,EMPEROR-HFPEF-SITE001-0037,10,SKIN,SKIN,NORMAL,NORMAL,1.0,SCREENING,SCREENING,2024-02-08,-21
EMPEROR-HFPEF,PE,EMPEROR-HFPEF-SITE001-0037,11,ABDOMEN,ABDOMEN,NORMAL,NORMAL,2.0,RANDOMIZATION,TREATMENT,2024-02-29,1
EMPEROR-HFPEF,PE,EMPEROR-HFPEF-SITE001-0037,12,CARDIOVA,CARDIOVASCULAR,NORMAL,NORMAL,2.0,RANDOMIZATION,TREATMENT,2024-02-29,1
EMPEROR-HFPEF,PE,EMPEROR-HFPEF-SITE001-0037,13,EARSNOSE,"EARS, NOSE, AND THROAT",NORMAL,NORMAL,2.0,RANDOMIZATION,TREATMENT,2024-02-29,1
EMPEROR-HFPEF,PE,EMPEROR-HFPEF-SITE001-0037,14,EYES,EYES,NORMAL,NORMAL,2.0,RANDOMIZATION,TREATMENT,2024-02-29,1
EMPEROR-HFPEF,PE,EMPEROR-HFPEF-SITE001-0037,15,GENERALA,GENERAL APPEARANCE,NORMAL,NORMAL,2.0,RANDOMIZATION,TREATMENT,2024-02-29,1
EMPEROR-HFPEF,PE,EMPEROR-HFPEF-SITE001-0037,16,HEADANDN,HEAD AND NECK,NORMAL,NORMAL,2.0,RANDOMIZATION,TREATMENT,2024-02-29,1
EMPEROR-HFPEF,PE,EMPEROR-HFPEF-SITE001-0037,17,MUSCULOS,MUSCULOSKELETAL,NORMAL,NORMAL,2.0,RANDOMIZATION,TREATMENT,2024-02-29,1
EMPEROR-HFPEF,PE,EMPEROR-HFPEF-SITE001-0037,18,NEUROLOG,NEUROLOGICAL,NORMAL,NORMAL,2.0,RANDOMIZATION,TREATMENT,2024-02-29,1
EMPEROR-HFPEF,PE,EMPEROR-HFPEF-SITE001-0037,19,RESPIRAT,RESPIRATORY,NORMAL,NORMAL,2.0,RANDOMIZATION,TREATMENT,2024-02-29,1
EMPEROR-HFPEF,PE,EMPEROR-HFPEF-SITE001-0037,20,SKIN,SKIN,NORMAL,NORMAL,2.0,RANDOMIZATION,TREATMENT,2024-02-29,1
EMPEROR-HFPEF,PE,EMPEROR-HFPEF-SITE001-0040,1,ABDOMEN,ABDOMEN,NORMAL,NORMAL,1.0,SCREENING,SCREENING,2024-01-23,-14
EMPEROR-HFPEF,PE,EMPEROR-HFPEF-SITE001-0040,2,CARDIOVA,CARDIOVASCULAR,NORMAL,NORMAL,1.0,SCREENING,SCREENING,2024-01-23,-14
EMPEROR-HFPEF,PE,EMPEROR-HFPEF-SITE001-0040,3,EARSNOSE,"EARS, NOSE, AND THROAT",NORMAL,NORMAL,1.0,SCREENING,SCREENING,2024-01-23,-14
EMPEROR-HFPEF,PE,EMPEROR-HFPEF-SITE001-0040,4,EYES,EYES,NORMAL,NORMAL,1.0,SCREENING,SCREENING,2024-01-23,-14
EMPEROR-HFPEF,PE,EMPEROR-HFPEF-SITE001-0040,5,GENERALA,GENERAL APPEARANCE,NORMAL,NORMAL,1.0,SCREENING,SCREENING,2024-01-23,-14
EMPEROR-HFPEF,PE,EMPEROR-HFPEF-SITE001-0040,6,HEADANDN,HEAD AND NECK,NORMAL,NORMAL,1.0,SCREENING,SCREENING,2024-01-23,-14
EMPEROR-HFPEF,PE,EMPEROR-HFPEF-SITE001-0040,7,MUSCULOS,MUSCULOSKELETAL,NORMAL,NORMAL,1.0,SCREENING,SCREENING,2024-01-23,-14
EMPEROR-HFPEF,PE,EMPEROR-HFPEF-SITE001-0040,8,NEUROLOG,NEUROLOGICAL,NORMAL,NORMAL,1.0,SCREENING,SCREENING,2024-01-23,-14
EMPEROR-HFPEF,PE,EMPEROR-HFPEF-SITE001-0040,9,RESPIRAT,RESPIRATORY,NORMAL,NORMAL,1.0,SCREENING,SCREENING,2024-01-23,-14
EMPEROR-HFPEF,PE,EMPEROR-HFPEF-SITE001-0040,10,SKIN,SKIN,NORMAL,NORMAL,1.0,SCREENING,SCREENING,2024-01-23,-14
EMPEROR-HFPEF,PE,EMPEROR-HFPEF-SITE001-0040,11,ABDOMEN,ABDOMEN,NORMAL,NORMAL,2.0,RANDOMIZATION,TREATMENT,2024-02-06,1
EMPEROR-HFPEF,PE,EMPEROR-HFPEF-SITE001-0040,12,CARDIOVA,CARDIOVASCULAR,NORMAL,NORMAL,2.0,RANDOMIZATION,TREATMENT,2024-02-06,1
EMPEROR-HFPEF,PE,EMPEROR-HFPEF-SITE001-0040,13,EARSNOSE,"EARS, NOSE, AND THROAT",NORMAL,NORMAL,2.0,RANDOMIZATION,TREATMENT,2024-02-06,1
EMPEROR-HFPEF,PE,EMPEROR-HFPEF-SITE001-0040,14,EYES,EYES,NORMAL,NORMAL,2.0,RANDOMIZATION,TREATMENT,2024-02-06,1
EMPEROR-HFPEF,PE,EMPEROR-HFPEF-SITE001-0040,15,GENERALA,GENERAL APPEARANCE,NORMAL,NORMAL,2.0,RANDOMIZATION,TREATMENT,2024-02-06,1
EMPEROR-HFPEF,PE,EMPEROR-HFPEF-SITE001-0040,16,HEADANDN,HEAD AND NECK,NORMAL,NORMAL,2.0,RANDOMIZATION,TREATMENT,2024-02-06,1
EMPEROR-HFPEF,PE,EMPEROR-HFPEF-SITE001-0040,17,MUSCULOS,MUSCULOSKELETAL,NORMAL,NORMAL,2.0,RANDOMIZATION,TREATMENT,2024-02-06,1
EMPEROR-HFPEF,PE,EMPEROR-HFPEF-SITE001-0040,18,NEUROLOG,NEUROLOGICAL,NORMAL,NORMAL,2.0,RANDOMIZATION,TREATMENT,2024-02-06,1
EMPEROR-HFPEF,PE,EMPEROR-HFPEF-SITE001-0040,19,RESPIRAT,RESPIRATORY,NORMAL,NORMAL,2.0,RANDOMIZATION,TREATMENT,2024-02-06,1
EMPEROR-HFPEF,PE,EMPEROR-HFPEF-SITE001-0040,20,SKIN,SKIN,NORMAL,NORMAL,2.0,RANDOMIZATION,TREATMENT,2024-02-06,1
EMPEROR-HFPEF,PE,EMPEROR-HFPEF-SITE001-0043,1,ABDOMEN,ABDOMEN,NORMAL,NORMAL,1.0,SCREENING,SCREENING,2024-03-21,-33
EMPEROR-HFPEF,PE,EMPEROR-HFPEF-SITE001-0043,2,CARDIOVA,CARDIOVASCULAR,NORMAL,NORMAL,1.0,SCREENING,SCREENING,2024-03-21,-33
EMPEROR-HFPEF,PE,EMPEROR-HFPEF-SITE001-0043,3,EARSNOSE,"EARS, NOSE, AND THROAT",NORMAL,NORMAL,1.0,SCREENING,SCREENING,2024-03-21,-33
EMPEROR-HFPEF,PE,EMPEROR-HFPEF-SITE001-0043,4,EYES,EYES,NORMAL,NORMAL,1.0,SCREENING,SCREENING,2024-03-21,-33
EMPEROR-HFPEF,PE,EMPEROR-HFPEF-SITE001-0043,5,GENERALA,GENERAL APPEARANCE,NORMAL,NORMAL,1.0,SCREENING,SCREENING,2024-03-21,-33
EMPEROR-HFPEF,PE,EMPEROR-HFPEF-SITE001-0043,6,HEADANDN,HEAD AND NECK,NORMAL,NORMAL,1.0,SCREENING,SCREENING,2024-03-21,-33
EMPEROR-HFPEF,PE,EMPEROR-HFPEF-SITE001-0043,7,MUSCULOS,MUSCULOSKELETAL,LIMITED RANGE OF MOTION,LIMITED RANGE OF MOTION,1.0,SCREENING,SCREENING,2024-03-21,-33
EMPEROR-HFPEF,PE,EMPEROR-HFPEF-SITE001-0043,8,NEUROLOG,NEUROLOGICAL,NORMAL,NORMAL,1.0,SCREENING,SCREENING,2024-03-21,-33
EMPEROR-HFPEF,PE,EMPEROR-HFPEF-SITE001-0043,9,RESPIRAT,RESPIRATORY,NORMAL,NORMAL,1.0,SCREENING,SCREENING,2024-03-21,-33
EMPEROR-HFPEF,PE,EMPEROR-HFPEF-SITE001-0043,10,SKIN,SKIN,NORMAL,NORMAL,1.0,SCREENING,SCREENING,2024-03-21,-33
EMPEROR-HFPEF,PE,EMPEROR-HFPEF-SITE001-0043,11,ABDOMEN,ABDOMEN,NORMAL,NORMAL,2.0,RANDOMIZATION,TREATMENT,2024-04-23,1
EMPEROR-HFPEF,PE,EMPEROR-HFPEF-SITE001-0043,12,CARDIOVA,CARDIOVASCULAR,NORMAL,NORMAL,2.0,RANDOMIZATION,TREATMENT,2024-04-23,1
EMPEROR-HFPEF,PE,EMPEROR-HFPEF-SITE001-0043,13,EARSNOSE,"EARS, NOSE, AND THROAT",NORMAL,NORMAL,2.0,RANDOMIZATION,TREATMENT,2024-04-23,1
EMPEROR-HFPEF,PE,EMPEROR-HFPEF-SITE001-0043,14,EYES,EYES,NORMAL,NORMAL,2.0,RANDOMIZATION,TREATMENT,2024-04-23,1
EMPEROR-HFPEF,PE,EMPEROR-HFPEF-SITE001-0043,15,GENERALA,GENERAL APPEARANCE,NORMAL,NORMAL,2.0,RANDOMIZATION,TREATMENT,2024-04-23,1
EMPEROR-HFPEF,PE,EMPEROR-HFPEF-SITE001-0043,16,HEADANDN,HEAD AND NECK,NORMAL,NORMAL,2.0,RANDOMIZATION,TREATMENT,2024-04-23,1
EMPEROR-HFPEF,PE,EMPEROR-HFPEF-SITE001-0043,17,MUSCULOS,MUSCULOSKELETAL,NORMAL,NORMAL,2.0,RANDOMIZATION,TREATMENT,2024-04-23,1
EMPEROR-HFPEF,PE,EMPEROR-HFPEF-SITE001-0043,18,NEUROLOG,NEUROLOGICAL,NORMAL,NORMAL,2.0,RANDOMIZATION,TREATMENT,2024-04-23,1
EMPEROR-HFPEF,PE,EMPEROR-HFPEF-SITE001-0043,19,RESPIRAT,RESPIRATORY,NORMAL,NORMAL,2.0,RANDOMIZATION,TREATMENT,2024-04-23,1
EMPEROR-HFPEF,PE,EMPEROR-HFPEF-SITE001-0043,20,SKIN,SKIN,NORMAL,NORMAL,2.0,RANDOMIZATION,TREATMENT,2024-04-23,1
EMPEROR-HFPEF,PE,EMPEROR-HFPEF-SITE001-0046,1,ABDOMEN,ABDOMEN,NORMAL,NORMAL,1.0,SCREENING,SCREENING,2024-04-09,-18
EMPEROR-HFPEF,PE,EMPEROR-HFPEF-SITE001-0046,2,CARDIOVA,CARDIOVASCULAR,NORMAL,NORMAL,1.0,SCREENING,SCREENING,2024-04-09,-18
EMPEROR-HFPEF,PE,EMPEROR-HFPEF-SITE001-0046,3,EARSNOSE,"EARS, NOSE, AND THROAT",NORMAL,NORMAL,1.0,SCREENING,SCREENING,2024-04-09,-18
EMPEROR-HFPEF,PE,EMPEROR-HFPEF-SITE001-0046,4,EYES,EYES,NORMAL,NORMAL,1.0,SCREENING,SCREENING,2024-04-09,-18
EMPEROR-HFPEF,PE,EMPEROR-HFPEF-SITE001-0046,5,GENERALA,GENERAL APPEARANCE,NORMAL,NORMAL,1.0,SCREENING,SCREENING,2024-04-09,-18
EMPEROR-HFPEF,PE,EMPEROR-HFPEF-SITE001-0046,6,HEADANDN,HEAD AND NECK,NORMAL,NORMAL,1.0,SCREENING,SCREENING,2024-04-09,-18
EMPEROR-HFPEF,PE,EMPEROR-HFPEF-SITE001-0046,7,MUSCULOS,MUSCULOSKELETAL,NORMAL,NORMAL,1.0,SCREENING,SCREENING,2024-04-09,-18
EMPEROR-HFPEF,PE,EMPEROR-HFPEF-SITE001-0046,8,NEUROLOG,NEUROLOGICAL,NORMAL,NORMAL,1.0,SCREENING,SCREENING,2024-04-09,-18
EMPEROR-HFPEF,PE,EMPEROR-HFPEF-SITE001-0046,9,RESPIRAT,RESPIRATORY,NORMAL,NORMAL,1.0,SCREENING,SCREENING,2024-04-09,-18
EMPEROR-HFPEF,PE,EMPEROR-HFPEF-SITE001-0046,10,SKIN,SKIN,NORMAL,NORMAL,1.0,SCREENING,SCREENING,2024-04-09,-18
EMPEROR-HFPEF,PE,EMPEROR-HFPEF-SITE001-0046,11,ABDOMEN,ABDOMEN,NORMAL,NORMAL,2.0,RANDOMIZATION,TREATMENT,2024-04-27,1
EMPEROR-HFPEF,PE,EMPEROR-HFPEF-SITE001-0046,12,CARDIOVA,CARDIOVASCULAR,NORMAL,NORMAL,2.0,RANDOMIZATION,TREATMENT,2024-04-27,1
EMPEROR-HFPEF,PE,EMPEROR-HFPEF-SITE001-0046,13,EARSNOSE,"EARS, NOSE, AND THROAT",NORMAL,NORMAL,2.0,RANDOMIZATION,TREATMENT,2024-04-27,1
EMPEROR-HFPEF,PE,EMPEROR-HFPEF-SITE001-0046,14,EYES,EYES,NORMAL,NORMAL,2.0,RANDOMIZATION,TREATMENT,2024-04-27,1
EMPEROR-HFPEF,PE,EMPEROR-HFPEF-SITE001-0046,15,GENERALA,GENERAL APPEARANCE,NORMAL,NORMAL,2.0,RANDOMIZATION,TREATMENT,2024-04-27,1
EMPEROR-HFPEF,PE,EMPEROR-HFPEF-SITE001-0046,16,HEADANDN,HEAD AND NECK,NORMAL,NORMAL,2.0,RANDOMIZATION,TREATMENT,2024-04-27,1
EMPEROR-HFPEF,PE,EMPEROR-HFPEF-SITE001-0046,17,MUSCULOS,MUSCULOSKELETAL,NORMAL,NORMAL,2.0,RANDOMIZATION,TREATMENT,2024-04-27,1
EMPEROR-HFPEF,PE,EMPEROR-HFPEF-SITE001-0046,18,NEUROLOG,NEUROLOGICAL,NORMAL,NORMAL,2.0,RANDOMIZATION,TREATMENT,2024-04-27,1
EMPEROR-HFPEF,PE,EMPEROR-HFPEF-SITE001-0046,19,RESPIRAT,RESPIRATORY,NORMAL,NORMAL,2.0,RANDOMIZATION,TREATMENT,2024-04-27,1
EMPEROR-HFPEF,PE,EMPEROR-HFPEF-SITE001-0046,20,SKIN,SKIN,NORMAL,NORMAL,2.0,RANDOMIZATION,TREATMENT,2024-04-27,1
EMPEROR-HFPEF,PE,EMPEROR-HFPEF-SITE001-0049,1,ABDOMEN,ABDOMEN,NORMAL,NORMAL,1.0,SCREENING,SCREENING,2024-03-17,-17
EMPEROR-HFPEF,PE,EMPEROR-HFPEF-SITE001-0049,2,CARDIOVA,CARDIOVASCULAR,NORMAL,NORMAL,1.0,SCREENING,SCREENING,2024-03-17,-17
EMPEROR-HFPEF,PE,EMPEROR-HFPEF-SITE001-0049,3,EARSNOSE,"EARS, NOSE, AND THROAT",NORMAL,NORMAL,1.0,SCREENING,SCREENING,2024-03-17,-17
EMPEROR-HFPEF,PE,EMPEROR-HFPEF-SITE001-0049,4,EYES,EYES,NORMAL,NORMAL,1.0,SCREENING,SCREENING,2024-03-17,-17
EMPEROR-HFPEF,PE,EMPEROR-HFPEF-SITE001-0049,5,GENERALA,GENERAL APPEARANCE,NORMAL,NORMAL,1.0,SCREENING,SCREENING,2024-03-17,-17
EMPEROR-HFPEF,PE,EMPEROR-HFPEF-SITE001-0049,6,HEADANDN,HEAD AND NECK,NORMAL,NORMAL,1.0,SCREENING,SCREENING,2024-03-17,-17
EMPEROR-HFPEF,PE,EMPEROR-HFPEF-SITE001-0049,7,MUSCULOS,MUSCULOSKELETAL,NORMAL,NORMAL,1.0,SCREENING,SCREENING,2024-03-17,-17
EMPEROR-HFPEF,PE,EMPEROR-HFPEF-SITE001-0049,8,NEUROLOG,NEUROLOGICAL,NORMAL,NORMAL,1.0,SCREENING,SCREENING,2024-03-17,-17
EMPEROR-HFPEF,PE,EMPEROR-HFPEF-SITE001-0049,9,RESPIRAT,RESPIRATORY,NORMAL,NORMAL,1.0,SCREENING,SCREENING,2024-03-17,-17
EMPEROR-HFPEF,PE,EMPEROR-HFPEF-SITE001-0049,10,SKIN,SKIN,NORMAL,NORMAL,1.0,SCREENING,SCREENING,2024-03-17,-17
EMPEROR-HFPEF,PE,EMPEROR-HFPEF-SITE001-0049,11,ABDOMEN,ABDOMEN,NORMAL,NORMAL,2.0,RANDOMIZATION,TREATMENT,2024-04-03,1
EMPEROR-HFPEF,PE,EMPEROR-HFPEF-SITE001-0049,12,CARDIOVA,CARDIOVASCULAR,NORMAL,NORMAL,2.0,RANDOMIZATION,TREATMENT,2024-04-03,1
EMPEROR-HFPEF,PE,EMPEROR-HFPEF-SITE001-0049,13,EARSNOSE,"EARS, NOSE, AND THROAT",NORMAL,NORMAL,2.0,RANDOMIZATION,TREATMENT,2024-04-03,1
EMPEROR-HFPEF,PE,EMPEROR-HFPEF-SITE001-0049,14,EYES,EYES,NORMAL,NORMAL,2.0,RANDOMIZATION,TREATMENT,2024-04-03,1
EMPEROR-HFPEF,PE,EMPEROR-HFPEF-SITE001-0049,15,GENERALA,GENERAL APPEARANCE,NORMAL,NORMAL,2.0,RANDOMIZATION,TREATMENT,2024-04-03,1
EMPEROR-HFPEF,PE,EMPEROR-HFPEF-SITE001-0049,16,HEADANDN,HEAD AND NECK,NORMAL,NORMAL,2.0,RANDOMIZATION,TREATMENT,2024-04-03,1
EMPEROR-HFPEF,PE,EMPEROR-HFPEF-SITE001-0049,17,MUSCULOS,MUSCULOSKELETAL,NORMAL,NORMAL,2.0,RANDOMIZATION,TREATMENT,2024-04-03,1
EMPEROR-HFPEF,PE,EMPEROR-HFPEF-SITE001-0049,18,NEUROLOG,NEUROLOGICAL,NORMAL,NORMAL,2.0,RANDOMIZATION,TREATMENT,2024-04-03,1
EMPEROR-HFPEF,PE,EMPEROR-HFPEF-SITE001-0049,19,RESPIRAT,RESPIRATORY,CRACKLES,CRACKLES,2.0,RANDOMIZATION,TREATMENT,2024-04-03,1
EMPEROR-HFPEF,PE,EMPEROR-HFPEF-SITE001-0049,20,SKIN,SKIN,NORMAL,NORMAL,2.0,RANDOMIZATION,TREATMENT,2024-04-03,1
EMPEROR-HFPEF,PE,EMPEROR-HFPEF-SITE002-0005,1,ABDOMEN,ABDOMEN,NORMAL,NORMAL,1.0,SCREENING,SCREENING,2024-03-10,-35
EMPEROR-HFPEF,PE,EMPEROR-HFPEF-SITE002-0005,2,CARDIOVA,CARDIOVASCULAR,NORMAL,NORMAL,1.0,SCREENING,SCREENING,2024-03-10,-35
EMPEROR-HFPEF,PE,EMPEROR-HFPEF-SITE002-0005,3,EARSNOSE,"EARS, NOSE, AND THROAT",NORMAL,NORMAL,1.0,SCREENING,SCREENING,2024-03-10,-35
EMPEROR-HFPEF,PE,EMPEROR-HFPEF-SITE002-0005,4,EYES,EYES,NORMAL,NORMAL,1.0,SCREENING,SCREENING,2024-03-10,-35
EMPEROR-HFPEF,PE,EMPEROR-HFPEF-SITE002-0005,5,GENERALA,GENERAL APPEARANCE,NORMAL,NORMAL,1.0,SCREENING,SCREENING,2024-03-10,-35
EMPEROR-HFPEF,PE,EMPEROR-HFPEF-SITE002-0005,6,HEADANDN,HEAD AND NECK,NORMAL,NORMAL,1.0,SCREENING,SCREENING,2024-03-10,-35
EMPEROR-HFPEF,PE,EMPEROR-HFPEF-SITE002-0005,7,MUSCULOS,MUSCULOSKELETAL,NORMAL,NORMAL,1.0,SCREENING,SCREENING,2024-03-10,-35
EMPEROR-HFPEF,PE,EMPEROR-HFPEF-SITE002-0005,8,NEUROLOG,NEUROLOGICAL,NORMAL,NORMAL,1.0,SCREENING,SCREENING,2024-03-10,-35
EMPEROR-HFPEF,PE,EMPEROR-HFPEF-SITE002-0005,9,RESPIRAT,RESPIRATORY,NORMAL,NORMAL,1.0,SCREENING,SCREENING,2024-03-10,-35
EMPEROR-HFPEF,PE,EMPEROR-HFPEF-SITE002-0005,10,SKIN,SKIN,NORMAL,NORMAL,1.0,SCREENING,SCREENING,2024-03-10,-35
EMPEROR-HFPEF,PE,EMPEROR-HFPEF-SITE002-0005,11,ABDOMEN,ABDOMEN,NORMAL,NORMAL,2.0,RANDOMIZATION,TREATMENT,2024-04-14,1
EMPEROR-HFPEF,PE,EMPEROR-HFPEF-SITE002-0005,12,CARDIOVA,CARDIOVASCULAR,NORMAL,NORMAL,2.0,RANDOMIZATION,TREATMENT,2024-04-14,1
EMPEROR-HFPEF,PE,EMPEROR-HFPEF-SITE002-0005,13,EARSNOSE,"EARS, NOSE, AND THROAT",PHARYNGEAL ERYTHEMA,PHARYNGEAL ERYTHEMA,2.0,RANDOMIZATION,TREATMENT,2024-04-14,1
EMPEROR-HFPEF,PE,EMPEROR-HFPEF-SITE002-0005,14,EYES,EYES,NORMAL,NORMAL,2.0,RANDOMIZATION,TREATMENT,2024-04-14,1
EMPEROR-HFPEF,PE,EMPEROR-HFPEF-SITE002-0005,15,GENERALA,GENERAL APPEARANCE,NORMAL,NORMAL,2.0,RANDOMIZATION,TREATMENT,2024-04-14,1
EMPEROR-HFPEF,PE,EMPEROR-HFPEF-SITE002-0005,16,HEADANDN,HEAD AND NECK,NORMAL,NORMAL,2.0,RANDOMIZATION,TREATMENT,2024-04-14,1
EMPEROR-HFPEF,PE,EMPEROR-HFPEF-SITE002-0005,17,MUSCULOS,MUSCULOSKELETAL,NORMAL,NORMAL,2.0,RANDOMIZATION,TREATMENT,2024-04-14,1
EMPEROR-HFPEF,PE,EMPEROR-HFPEF-SITE002-0005,18,NEUROLOG,NEUROLOGICAL,NORMAL,NORMAL,2.0,RANDOMIZATION,TREATMENT,2024-04-14,1
EMPEROR-HFPEF,PE,EMPEROR-HFPEF-SITE002-0005,19,RESPIRAT,RESPIRATORY,NORMAL,NORMAL,2.0,RANDOMIZATION,TREATMENT,2024-04-14,1
EMPEROR-HFPEF,PE,EMPEROR-HFPEF-SITE002-0005,20,SKIN,SKIN,NORMAL,NORMAL,2.0,RANDOMIZATION,TREATMENT,2024-04-14,1
EMPEROR-HFPEF,PE,EMPEROR-HFPEF-SITE002-0008,1,ABDOMEN,ABDOMEN,NORMAL,NORMAL,1.0,SCREENING,SCREENING,2024-02-25,-32
EMPEROR-HFPEF,PE,EMPEROR-HFPEF-SITE002-0008,2,CARDIOVA,CARDIOVASCULAR,NORMAL,NORMAL,1.0,SCREENING,SCREENING,2024-02-25,-32
EMPEROR-HFPEF,PE,EMPEROR-HFPEF-SITE002-0008,3,EARSNOSE,"EARS, NOSE, AND THROAT",NORMAL,NORMAL,1.0,SCREENING,SCREENING,2024-02-25,-32
EMPEROR-HFPEF,PE,EMPEROR-HFPEF-SITE002-0008,4,EYES,EYES,NORMAL,NORMAL,1.0,SCREENING,SCREENING,2024-02-25,-32
EMPEROR-HFPEF,PE,EMPEROR-HFPEF-SITE002-0008,5,GENERALA,GENERAL APPEARANCE,NORMAL,NORMAL,1.0,SCREENING,SCREENING,2024-02-25,-32
EMPEROR-HFPEF,PE,EMPEROR-HFPEF-SITE002-0008,6,HEADANDN,HEAD AND NECK,NORMAL,NORMAL,1.0,SCREENING,SCREENING,2024-02-25,-32
EMPEROR-HFPEF,PE,EMPEROR-HFPEF-SITE002-0008,7,MUSCULOS,MUSCULOSKELETAL,NORMAL,NORMAL,1.0,SCREENING,SCREENING,2024-02-25,-32
EMPEROR-HFPEF,PE,EMPEROR-HFPEF-SITE002-0008,8,NEUROLOG,NEUROLOGICAL,NORMAL,NORMAL,1.0,SCREENING,SCREENING,2024-02-25,-32
EMPEROR-HFPEF,PE,EMPEROR-HFPEF-SITE002-0008,9,RESPIRAT,RESPIRATORY,NORMAL,NORMAL,1.0,SCREENING,SCREENING,2024-02-25,-32
EMPEROR-HFPEF,PE,EMPEROR-HFPEF-SITE002-0008,10,SKIN,SKIN,NORMAL,NORMAL,1.0,SCREENING,SCREENING,2024-02-25,-32
EMPEROR-HFPEF,PE,EMPEROR-HFPEF-SITE002-0008,11,ABDOMEN,ABDOMEN,NORMAL,NORMAL,2.0,RANDOMIZATION,TREATMENT,2024-03-28,1
EMPEROR-HFPEF,PE,EMPEROR-HFPEF-SITE002-0008,12,CARDIOVA,CARDIOVASCULAR,NORMAL,NORMAL,2.0,RANDOMIZATION,TREATMENT,2024-03-28,1
EMPEROR-HFPEF,PE,EMPEROR-HFPEF-SITE002-0008,13,EARSNOSE,"EARS, NOSE, AND THROAT",NORMAL,NORMAL,2.0,RANDOMIZATION,TREATMENT,2024-03-28,1
EMPEROR-HFPEF,PE,EMPEROR-HFPEF-SITE002-0008,14,EYES,EYES,NORMAL,NORMAL,2.0,RANDOMIZATION,TREATMENT,2024-03-28,1
EMPEROR-HFPEF,PE,EMPEROR-HFPEF-SITE002-0008,15,GENERALA,GENERAL APPEARANCE,NORMAL,NORMAL,2.0,RANDOMIZATION,TREATMENT,2024-03-28,1
EMPEROR-HFPEF,PE,EMPEROR-HFPEF-SITE002-0008,16,HEADANDN,HEAD AND NECK,NORMAL,NORMAL,2.0,RANDOMIZATION,TREATMENT,2024-03-28,1
EMPEROR-HFPEF,PE,EMPEROR-HFPEF-SITE002-0008,17,MUSCULOS,MUSCULOSKELETAL,NORMAL,NORMAL,2.0,RANDOMIZATION,TREATMENT,2024-03-28,1
EMPEROR-HFPEF,PE,EMPEROR-HFPEF-SITE002-0008,18,NEUROLOG,NEUROLOGICAL,NORMAL,NORMAL,2.0,RANDOMIZATION,TREATMENT,2024-03-28,1
EMPEROR-HFPEF,PE,EMPEROR-HFPEF-SITE002-0008,19,RESPIRAT,RESPIRATORY,NORMAL,NORMAL,2.0,RANDOMIZATION,TREATMENT,2024-03-28,1
EMPEROR-HFPEF,PE,EMPEROR-HFPEF-SITE002-0008,20,SKIN,SKIN,NORMAL,NORMAL,2.0,RANDOMIZATION,TREATMENT,2024-03-28,1
EMPEROR-HFPEF,PE,EMPEROR-HFPEF-SITE002-0011,1,ABDOMEN,ABDOMEN,NORMAL,NORMAL,1.0,SCREENING,SCREENING,2024-04-03,-14
EMPEROR-HFPEF,PE,EMPEROR-HFPEF-SITE002-0011,2,CARDIOVA,CARDIOVASCULAR,NORMAL,NORMAL,1.0,SCREENING,SCREENING,2024-04-03,-14
EMPEROR-HFPEF,PE,EMPEROR-HFPEF-SITE002-0011,3,EARSNOSE,"EARS, NOSE, AND THROAT",NORMAL,NORMAL,1.0,SCREENING,SCREENING,2024-04-03,-14
EMPEROR-HFPEF,PE,EMPEROR-HFPEF-SITE002-0011,4,EYES,EYES,NORMAL,NORMAL,1.0,SCREENING,SCREENING,2024-04-03,-14
EMPEROR-HFPEF,PE,EMPEROR-HFPEF-SITE002-0011,5,GENERALA,GENERAL APPEARANCE,NORMAL,NORMAL,1.0,SCREENING,SCREENING,2024-04-03,-14
EMPEROR-HFPEF,PE,EMPEROR-HFPEF-SITE002-0011,6,HEADANDN,HEAD AND NECK,NORMAL,NORMAL,1.0,SCREENING,SCREENING,2024-04-03,-14
EMPEROR-HFPEF,PE,EMPEROR-HFPEF-SITE002-0011,7,MUSCULOS,MUSCULOSKELETAL,NORMAL,NORMAL,1.0,SCREENING,SCREENING,2024-04-03,-14
EMPEROR-HFPEF,PE,EMPEROR-HFPEF-SITE002-0011,8,NEUROLOG,NEUROLOGICAL,NORMAL,NORMAL,1.0,SCREENING,SCREENING,2024-04-03,-14
EMPEROR-HFPEF,PE,EMPEROR-HFPEF-SITE002-0011,9,RESPIRAT,RESPIRATORY,NORMAL,NORMAL,1.0,SCREENING,SCREENING,2024-04-03,-14
EMPEROR-HFPEF,PE,EMPEROR-HFPEF-SITE002-0011,10,SKIN,SKIN,NORMAL,NORMAL,1.0,SCREENING,SCREENING,2024-04-03,-14
EMPEROR-HFPEF,PE,EMPEROR-HFPEF-SITE002-0011,11,ABDOMEN,ABDOMEN,NORMAL,NORMAL,2.0,RANDOMIZATION,TREATMENT,2024-04-17,1
EMPEROR-HFPEF,PE,EMPEROR-HFPEF-SITE002-0011,12,CARDIOVA,CARDIOVASCULAR,NORMAL,NORMAL,2.0,RANDOMIZATION,TREATMENT,2024-04-17,1
EMPEROR-HFPEF,PE,EMPEROR-HFPEF-SITE002-0011,13,EARSNOSE,"EARS, NOSE, AND THROAT",NORMAL,NORMAL,2.0,RANDOMIZATION,TREATMENT,2024-04-17,1
EMPEROR-HFPEF,PE,EMPEROR-HFPEF-SITE002-0011,14,EYES,EYES,NORMAL,NORMAL,2.0,RANDOMIZATION,TREATMENT,2024-04-17,1
EMPEROR-HFPEF,PE,EMPEROR-HFPEF-SITE002-0011,15,GENERALA,GENERAL APPEARANCE,NORMAL,NORMAL,2.0,RANDOMIZATION,TREATMENT,2024-04-17,1
EMPEROR-HFPEF,PE,EMPEROR-HFPEF-SITE002-0011,16,HEADANDN,HEAD AND NECK,NORMAL,NORMAL,2.0,RANDOMIZATION,TREATMENT,2024-04-17,1
EMPEROR-HFPEF,PE,EMPEROR-HFPEF-SITE002-0011,17,MUSCULOS,MUSCULOSKELETAL,NORMAL,NORMAL,2.0,RANDOMIZATION,TREATMENT,2024-04-17,1
EMPEROR-HFPEF,PE,EMPEROR-HFPEF-SITE002-0011,18,NEUROLOG,NEUROLOGICAL,NORMAL,NORMAL,2.0,RANDOMIZATION,TREATMENT,2024-04-17,1
EMPEROR-HFPEF,PE,EMPEROR-HFPEF-SITE002-0011,19,RESPIRAT,RESPIRATORY,NORMAL,NORMAL,2.0,RANDOMIZATION,TREATMENT,2024-04-17,1
EMPEROR-HFPEF,PE,EMPEROR-HFPEF-SITE002-0011,20,SKIN,SKIN,NORMAL,NORMAL,2.0,RANDOMIZATION,TREATMENT,2024-04-17,1
EMPEROR-HFPEF,PE,EMPEROR-HFPEF-SITE002-0014,1,ABDOMEN,ABDOMEN,NORMAL,NORMAL,1.0,SCREENING,SCREENING,2024-01-26,-34
EMPEROR-HFPEF,PE,EMPEROR-HFPEF-SITE002-0014,2,CARDIOVA,CARDIOVASCULAR,NORMAL,NORMAL,1.0,SCREENING,SCREENING,2024-01-26,-34
EMPEROR-HFPEF,PE,EMPEROR-HFPEF-SITE002-0014,3,EARSNOSE,"EARS, NOSE, AND THROAT",NORMAL,NORMAL,1.0,SCREENING,SCREENING,2024-01-26,-34
EMPEROR-HFPEF,PE,EMPEROR-HFPEF-SITE002-0014,4,EYES,EYES,NORMAL,NORMAL,1.0,SCREENING,SCREENING,2024-01-26,-34
EMPEROR-HFPEF,PE,EMPEROR-HFPEF-SITE002-0014,5,GENERALA,GENERAL APPEARANCE,NORMAL,NORMAL,1.0,SCREENING,SCREENING,2024-01-26,-34
EMPEROR-HFPEF,PE,EMPEROR-HFPEF-SITE002-0014,6,HEADANDN,HEAD AND NECK,NORMAL,NORMAL,1.0,SCREENING,SCREENING,2024-01-26,-34
EMPEROR-HFPEF,PE,EMPEROR-HFPEF-SITE002-0014,7,MUSCULOS,MUSCULOSKELETAL,NORMAL,NORMAL,1.0,SCREENING,SCREENING,2024-01-26,-34
EMPEROR-HFPEF,PE,EMPEROR-HFPEF-SITE002-0014,8,NEUROLOG,NEUROLOGICAL,NORMAL,NORMAL,1.0,SCREENING,SCREENING,2024-01-26,-34
EMPEROR-HFPEF,PE,EMPEROR-HFPEF-SITE002-0014,9,RESPIRAT,RESPIRATORY,NORMAL,NORMAL,1.0,SCREENING,SCREENING,2024-01-26,-34
EMPEROR-HFPEF,PE,EMPEROR-HFPEF-SITE002-0014,10,SKIN,SKIN,NORMAL,NORMAL,1.0,SCREENING,SCREENING,2024-01-26,-34
EMPEROR-HFPEF,PE,EMPEROR-HFPEF-SITE002-0014,11,ABDOMEN,ABDOMEN,NORMAL,NORMAL,2.0,RANDOMIZATION,TREATMENT,2024-02-29,1
EMPEROR-HFPEF,PE,EMPEROR-HFPEF-SITE002-0014,12,CARDIOVA,CARDIOVASCULAR,NORMAL,NORMAL,2.0,RANDOMIZATION,TREATMENT,2024-02-29,1
EMPEROR-HFPEF,PE,EMPEROR-HFPEF-SITE002-0014,13,EARSNOSE,"EARS, NOSE, AND THROAT",NORMAL,NORMAL,2.0,RANDOMIZATION,TREATMENT,2024-02-29,1
EMPEROR-HFPEF,PE,EMPEROR-HFPEF-SITE002-0014,14,EYES,EYES,NORMAL,NORMAL,2.0,RANDOMIZATION,TREATMENT,2024-02-29,1
EMPEROR-HFPEF,PE,EMPEROR-HFPEF-SITE002-0014,15,GENERALA,GENERAL APPEARANCE,NORMAL,NORMAL,2.0,RANDOMIZATION,TREATMENT,2024-02-29,1
EMPEROR-HFPEF,PE,EMPEROR-HFPEF-SITE002-0014,16,HEADANDN,HEAD AND NECK,NORMAL,NORMAL,2.0,RANDOMIZATION,TREATMENT,2024-02-29,1
EMPEROR-HFPEF,PE,EMPEROR-HFPEF-SITE002-0014,17,MUSCULOS,MUSCULOSKELETAL,NORMAL,NORMAL,2.0,RANDOMIZATION,TREATMENT,2024-02-29,1
EMPEROR-HFPEF,PE,EMPEROR-HFPEF-SITE002-0014,18,NEUROLOG,NEUROLOGICAL,NORMAL,NORMAL,2.0,RANDOMIZATION,TREATMENT,2024-02-29,1
EMPEROR-HFPEF,PE,EMPEROR-HFPEF-SITE002-0014,19,RESPIRAT,RESPIRATORY,WHEEZING,WHEEZING,2.0,RANDOMIZATION,TREATMENT,2024-02-29,1
EMPEROR-HFPEF,PE,EMPEROR-HFPEF-SITE002-0014,20,SKIN,SKIN,NORMAL,NORMAL,2.0,RANDOMIZATION,TREATMENT,2024-02-29,1
EMPEROR-HFPEF,PE,EMPEROR-HFPEF-SITE002-0017,1,ABDOMEN,ABDOMEN,NORMAL,NORMAL,1.0,SCREENING,SCREENING,2024-02-09,-23
EMPEROR-HFPEF,PE,EMPEROR-HFPEF-SITE002-0017,2,CARDIOVA,CARDIOVASCULAR,NORMAL,NORMAL,1.0,SCREENING,SCREENING,2024-02-09,-23
EMPEROR-HFPEF,PE,EMPEROR-HFPEF-SITE002-0017,3,EARSNOSE,"EARS, NOSE, AND THROAT",NORMAL,NORMAL,1.0,SCREENING,SCREENING,2024-02-09,-23
EMPEROR-HFPEF,PE,EMPEROR-HFPEF-SITE002-0017,4,EYES,EYES,NORMAL,NORMAL,1.0,SCREENING,SCREENING,2024-02-09,-23
EMPEROR-HFPEF,PE,EMPEROR-HFPEF-SITE002-0017,5,GENERALA,GENERAL APPEARANCE,NORMAL,NORMAL,1.0,SCREENING,SCREENING,2024-02-09,-23
EMPEROR-HFPEF,PE,EMPEROR-HFPEF-SITE002-0017,6,HEADANDN,HEAD AND NECK,NORMAL,NORMAL,1.0,SCREENING,SCREENING,2024-02-09,-23
EMPEROR-HFPEF,PE,EMPEROR-HFPEF-SITE002-0017,7,MUSCULOS,MUSCULOSKELETAL,NORMAL,NORMAL,1.0,SCREENING,SCREENING,2024-02-09,-23
EMPEROR-HFPEF,PE,EMPEROR-HFPEF-SITE002-0017,8,NEUROLOG,NEUROLOGICAL,NORMAL,NORMAL,1.0,SCREENING,SCREENING,2024-02-09,-23
EMPEROR-HFPEF,PE,EMPEROR-HFPEF-SITE002-0017,9,RESPIRAT,RESPIRATORY,NORMAL,NORMAL,1.0,SCREENING,SCREENING,2024-02-09,-23
EMPEROR-HFPEF,PE,EMPEROR-HFPEF-SITE002-0017,10,SKIN,SKIN,NORMAL,NORMAL,1.0,SCREENING,SCREENING,2024-02-09,-23
EMPEROR-HFPEF,PE,EMPEROR-HFPEF-SITE002-0017,11,ABDOMEN,ABDOMEN,NORMAL,NORMAL,2.0,RANDOMIZATION,TREATMENT,2024-03-03,1
EMPEROR-HFPEF,PE,EMPEROR-HFPEF-SITE002-0017,12,CARDIOVA,CARDIOVASCULAR,NORMAL,NORMAL,2.0,RANDOMIZATION,TREATMENT,2024-03-03,1
EMPEROR-HFPEF,PE,EMPEROR-HFPEF-SITE002-0017,13,EARSNOSE,"EARS, NOSE, AND THROAT",NORMAL,NORMAL,2.0,RANDOMIZATION,TREATMENT,2024-03-03,1
EMPEROR-HFPEF,PE,EMPEROR-HFPEF-SITE002-0017,14,EYES,EYES,NORMAL,NORMAL,2.0,RANDOMIZATION,TREATMENT,2024-03-03,1
EMPEROR-HFPEF,PE,EMPEROR-HFPEF-SITE002-0017,15,GENERALA,GENERAL APPEARANCE,NORMAL,NORMAL,2.0,RANDOMIZATION,TREATMENT,2024-03-03,1
EMPEROR-HFPEF,PE,EMPEROR-HFPEF-SITE002-0017,16,HEADANDN,HEAD AND NECK,NORMAL,NORMAL,2.0,RANDOMIZATION,TREATMENT,2024-03-03,1
EMPEROR-HFPEF,PE,EMPEROR-HFPEF-SITE002-0017,17,MUSCULOS,MUSCULOSKELETAL,LIMITED RANGE OF MOTION,LIMITED RANGE OF MOTION,2.0,RANDOMIZATION,TREATMENT,2024-03-03,1
EMPEROR-HFPEF,PE,EMPEROR-HFPEF-SITE002-0017,18,NEUROLOG,NEUROLOGICAL,NORMAL,NORMAL,2.0,RANDOMIZATION,TREATMENT,2024-03-03,1
EMPEROR-HFPEF,PE,EMPEROR-HFPEF-SITE002-0017,19,RESPIRAT,RESPIRATORY,NORMAL,NORMAL,2.0,RANDOMIZATION,TREATMENT,2024-03-03,1
EMPEROR-HFPEF,PE,EMPEROR-HFPEF-SITE002-0017,20,SKIN,SKIN,NORMAL,NORMAL,2.0,RANDOMIZATION,TREATMENT,2024-03-03,1
EMPEROR-HFPEF,PE,EMPEROR-HFPEF-SITE002-0020,1,ABDOMEN,ABDOMEN,NORMAL,NORMAL,1.0,SCREENING,SCREENING,2024-03-04,-22
EMPEROR-HFPEF,PE,EMPEROR-HFPEF-SITE002-0020,2,CARDIOVA,CARDIOVASCULAR,NORMAL,NORMAL,1.0,SCREENING,SCREENING,2024-03-04,-22
EMPEROR-HFPEF,PE,EMPEROR-HFPEF-SITE002-0020,3,EARSNOSE,"EARS, NOSE, AND THROAT",NORMAL,NORMAL,1.0,SCREENING,SCREENING,2024-03-04,-22
EMPEROR-HFPEF,PE,EMPEROR-HFPEF-SITE002-0020,4,EYES,EYES,NORMAL,NORMAL,1.0,SCREENING,SCREENING,2024-03-04,-22
EMPEROR-HFPEF,PE,EMPEROR-HFPEF-SITE002-0020,5,GENERALA,GENERAL APPEARANCE,NORMAL,NORMAL,1.0,SCREENING,SCREENING,2024-03-04,-22
EMPEROR-HFPEF,PE,EMPEROR-HFPEF-SITE002-0020,6,HEADANDN,HEAD AND NECK,NORMAL,NORMAL,1.0,SCREENING,SCREENING,2024-03-04,-22
EMPEROR-HFPEF,PE,EMPEROR-HFPEF-SITE002-0020,7,MUSCULOS,MUSCULOSKELETAL,NORMAL,NORMAL,1.0,SCREENING,SCREENING,2024-03-04,-22
EMPEROR-HFPEF,PE,EMPEROR-HFPEF-SITE002-0020,8,NEUROLOG,NEUROLOGICAL,NORMAL,NORMAL,1.0,SCREENING,SCREENING,2024-03-04,-22
EMPEROR-HFPEF,PE,EMPEROR-HFPEF-SITE002-0020,9,RESPIRAT,RESPIRATORY,NORMAL,NORMAL,1.0,SCREENING,SCREENING,2024-03-04,-22
EMPEROR-HFPEF,PE,EMPEROR-HFPEF-SITE002-0020,10,SKIN,SKIN,NORMAL,NORMAL,1.0,SCREENING,SCREENING,2024-03-04,-22
EMPEROR-HFPEF,PE,EMPEROR-HFPEF-SITE002-0020,11,ABDOMEN,ABDOMEN,NORMAL,NORMAL,2.0,RANDOMIZATION,TREATMENT,2024-03-26,1
EMPEROR-HFPEF,PE,EMPEROR-HFPEF-SITE002-0020,12,CARDIOVA,CARDIOVASCULAR,IRREGULAR RHYTHM,IRREGULAR RHYTHM,2.0,RANDOMIZATION,TREATMENT,2024-03-26,1
EMPEROR-HFPEF,PE,EMPEROR-HFPEF-SITE002-0020,13,EARSNOSE,"EARS, NOSE, AND THROAT",NORMAL,NORMAL,2.0,RANDOMIZATION,TREATMENT,2024-03-26,1
EMPEROR-HFPEF,PE,EMPEROR-HFPEF-SITE002-0020,14,EYES,EYES,NORMAL,NORMAL,2.0,RANDOMIZATION,TREATMENT,2024-03-26,1
EMPEROR-HFPEF,PE,EMPEROR-HFPEF-SITE002-0020,15,GENERALA,GENERAL APPEARANCE,NORMAL,NORMAL,2.0,RANDOMIZATION,TREATMENT,2024-03-26,1
EMPEROR-HFPEF,PE,EMPEROR-HFPEF-SITE002-0020,16,HEADANDN,HEAD AND NECK,NORMAL,NORMAL,2.0,RANDOMIZATION,TREATMENT,2024-03-26,1
EMPEROR-HFPEF,PE,EMPEROR-HFPEF-SITE002-0020,17,MUSCULOS,MUSCULOSKELETAL,NORMAL,NORMAL,2.0,RANDOMIZATION,TREATMENT,2024-03-26,1
EMPEROR-HFPEF,PE,EMPEROR-HFPEF-SITE002-0020,18,NEUROLOG,NEUROLOGICAL,NORMAL,NORMAL,2.0,RANDOMIZATION,TREATMENT,2024-03-26,1
EMPEROR-HFPEF,PE,EMPEROR-HFPEF-SITE002-0020,19,RESPIRAT,RESPIRATORY,NORMAL,NORMAL,2.0,RANDOMIZATION,TREATMENT,2024-03-26,1
EMPEROR-HFPEF,PE,EMPEROR-HFPEF-SITE002-0020,20,SKIN,SKIN,NORMAL,NORMAL,2.0,RANDOMIZATION,TREATMENT,2024-03-26,1
EMPEROR-HFPEF,PE,EMPEROR-HFPEF-SITE002-0023,1,ABDOMEN,ABDOMEN,NORMAL,NORMAL,1.0,SCREENING,SCREENING,2024-01-20,-22
EMPEROR-HFPEF,PE,EMPEROR-HFPEF-SITE002-0023,2,CARDIOVA,CARDIOVASCULAR,NORMAL,NORMAL,1.0,SCREENING,SCREENING,2024-01-20,-22
EMPEROR-HFPEF,PE,EMPEROR-HFPEF-SITE002-0023,3,EARSNOSE,"EARS, NOSE, AND THROAT",NORMAL,NORMAL,1.0,SCREENING,SCREENING,2024-01-20,-22
EMPEROR-HFPEF,PE,EMPEROR-HFPEF-SITE002-0023,4,EYES,EYES,NORMAL,NORMAL,1.0,SCREENING,SCREENING,2024-01-20,-22
EMPEROR-HFPEF,PE,EMPEROR-HFPEF-SITE002-0023,5,GENERALA,GENERAL APPEARANCE,NORMAL,NORMAL,1.0,SCREENING,SCREENING,2024-01-20,-22
EMPEROR-HFPEF,PE,EMPEROR-HFPEF-SITE002-0023,6,HEADANDN,HEAD AND NECK,NORMAL,NORMAL,1.0,SCREENING,SCREENING,2024-01-20,-22
EMPEROR-HFPEF,PE,EMPEROR-HFPEF-SITE002-0023,7,MUSCULOS,MUSCULOSKELETAL,NORMAL,NORMAL,1.0,SCREENING,SCREENING,2024-01-20,-22
EMPEROR-HFPEF,PE,EMPEROR-HFPEF-SITE002-0023,8,NEUROLOG,NEUROLOGICAL,NORMAL,NORMAL,1.0,SCREENING,SCREENING,2024-01-20,-22
EMPEROR-HFPEF,PE,EMPEROR-HFPEF-SITE002-0023,9,RESPIRAT,RESPIRATORY,NORMAL,NORMAL,1.0,SCREENING,SCREENING,2024-01-20,-22
EMPEROR-HFPEF,PE,EMPEROR-HFPEF-SITE002-0023,10,SKIN,SKIN,NORMAL,NORMAL,1.0,SCREENING,SCREENING,2024-01-20,-22
EMPEROR-HFPEF,PE,EMPEROR-HFPEF-SITE002-0023,11,ABDOMEN,ABDOMEN,NORMAL,NORMAL,2.0,RANDOMIZATION,TREATMENT,2024-02-11,1
EMPEROR-HFPEF,PE,EMPEROR-HFPEF-SITE002-0023,12,CARDIOVA,CARDIOVASCULAR,NORMAL,NORMAL,2.0,RANDOMIZATION,TREATMENT,2024-02-11,1
EMPEROR-HFPEF,PE,EMPEROR-HFPEF-SITE002-0023,13,EARSNOSE,"EARS, NOSE, AND THROAT",NORMAL,NORMAL,2.0,RANDOMIZATION,TREATMENT,2024-02-11,1
EMPEROR-HFPEF,PE,EMPEROR-HFPEF-SITE002-0023,14,EYES,EYES,NORMAL,NORMAL,2.0,RANDOMIZATION,TREATMENT,2024-02-11,1
EMPEROR-HFPEF,PE,EMPEROR-HFPEF-SITE002-0023,15,GENERALA,GENERAL APPEARANCE,NORMAL,NORMAL,2.0,RANDOMIZATION,TREATMENT,2024-02-11,1
EMPEROR-HFPEF,PE,EMPEROR-HFPEF-SITE002-0023,16,HEADANDN,HEAD AND NECK,NORMAL,NORMAL,2.0,RANDOMIZATION,TREATMENT,2024-02-11,1
EMPEROR-HFPEF,PE,EMPEROR-HFPEF-SITE002-0023,17,MUSCULOS,MUSCULOSKELETAL,NORMAL,NORMAL,2.0,RANDOMIZATION,TREATMENT,2024-02-11,1
EMPEROR-HFPEF,PE,EMPEROR-HFPEF-SITE002-0023,18,NEUROLOG,NEUROLOGICAL,NORMAL,NORMAL,2.0,RANDOMIZATION,TREATMENT,2024-02-11,1
EMPEROR-HFPEF,PE,EMPEROR-HFPEF-SITE002-0023,19,RESPIRAT,RESPIRATORY,NORMAL,NORMAL,2.0,RANDOMIZATION,TREATMENT,2024-02-11,1
EMPEROR-HFPEF,PE,EMPEROR-HFPEF-SITE002-0023,20,SKIN,SKIN,NORMAL,NORMAL,2.0,RANDOMIZATION,TREATMENT,2024-02-11,1
EMPEROR-HFPEF,PE,EMPEROR-HFPEF-SITE002-0026,1,ABDOMEN,ABDOMEN,NORMAL,NORMAL,1.0,SCREENING,SCREENING,2024-03-05,-35
EMPEROR-HFPEF,PE,EMPEROR-HFPEF-SITE002-0026,2,CARDIOVA,CARDIOVASCULAR,NORMAL,NORMAL,1.0,SCREENING,SCREENING,2024-03-05,-35
EMPEROR-HFPEF,PE,EMPEROR-HFPEF-SITE002-0026,3,EARSNOSE,"EARS, NOSE, AND THROAT",NORMAL,NORMAL,1.0,SCREENING,SCREENING,2024-03-05,-35
EMPEROR-HFPEF,PE,EMPEROR-HFPEF-SITE002-0026,4,EYES,EYES,NORMAL,NORMAL,1.0,SCREENING,SCREENING,2024-03-05,-35
EMPEROR-HFPEF,PE,EMPEROR-HFPEF-SITE002-0026,5,GENERALA,GENERAL APPEARANCE,NORMAL,NORMAL,1.0,SCREENING,SCREENING,2024-03-05,-35
EMPEROR-HFPEF,PE,EMPEROR-HFPEF-SITE002-0026,6,HEADANDN,HEAD AND NECK,NORMAL,NORMAL,1.0,SCREENING,SCREENING,2024-03-05,-35
EMPEROR-HFPEF,PE,EMPEROR-HFPEF-SITE002-0026,7,MUSCULOS,MUSCULOSKELETAL,NORMAL,NORMAL,1.0,SCREENING,SCREENING,2024-03-05,-35
EMPEROR-HFPEF,PE,EMPEROR-HFPEF-SITE002-0026,8,NEUROLOG,NEUROLOGICAL,NORMAL,NORMAL,1.0,SCREENING,SCREENING,2024-03-05,-35
EMPEROR-HFPEF,PE,EMPEROR-HFPEF-SITE002-0026,9,RESPIRAT,RESPIRATORY,NORMAL,NORMAL,1.0,SCREENING,SCREENING,2024-03-05,-35
EMPEROR-HFPEF,PE,EMPEROR-HFPEF-SITE002-0026,10,SKIN,SKIN,NORMAL,NORMAL,1.0,SCREENING,SCREENING,2024-03-05,-35
EMPEROR-HFPEF,PE,EMPEROR-HFPEF-SITE002-0026,11,ABDOMEN,ABDOMEN,NORMAL,NORMAL,2.0,RANDOMIZATION,TREATMENT,2024-04-09,1
EMPEROR-HFPEF,PE,EMPEROR-HFPEF-SITE002-0026,12,CARDIOVA,CARDIOVASCULAR,NORMAL,NORMAL,2.0,RANDOMIZATION,TREATMENT,2024-04-09,1
EMPEROR-HFPEF,PE,EMPEROR-HFPEF-SITE002-0026,13,EARSNOSE,"EARS, NOSE, AND THROAT",NORMAL,NORMAL,2.0,RANDOMIZATION,TREATMENT,2024-04-09,1
EMPEROR-HFPEF,PE,EMPEROR-HFPEF-SITE002-0026,14,EYES,EYES,NORMAL,NORMAL,2.0,RANDOMIZATION,TREATMENT,2024-04-09,1
EMPEROR-HFPEF,PE,EMPEROR-HFPEF-SITE002-0026,15,GENERALA,GENERAL APPEARANCE,NORMAL,NORMAL,2.0,RANDOMIZATION,TREATMENT,2024-04-09,1
EMPEROR-HFPEF,PE,EMPEROR-HFPEF-SITE002-0026,16,HEADANDN,HEAD AND NECK,NORMAL,NORMAL,2.0,RANDOMIZATION,TREATMENT,2024-04-09,1
EMPEROR-HFPEF,PE,EMPEROR-HFPEF-SITE002-0026,17,MUSCULOS,MUSCULOSKELETAL,NORMAL,NORMAL,2.0,RANDOMIZATION,TREATMENT,2024-04-09,1
EMPEROR-HFPEF,PE,EMPEROR-HFPEF-SITE002-0026,18,NEUROLOG,NEUROLOGICAL,NORMAL,NORMAL,2.0,RANDOMIZATION,TREATMENT,2024-04-09,1
EMPEROR-HFPEF,PE,EMPEROR-HFPEF-SITE002-0026,19,RESPIRAT,RESPIRATORY,NORMAL,NORMAL,2.0,RANDOMIZATION,TREATMENT,2024-04-09,1
EMPEROR-HFPEF,PE,EMPEROR-HFPEF-SITE002-0026,20,SKIN,SKIN,NORMAL,NORMAL,2.0,RANDOMIZATION,TREATMENT,2024-04-09,1
EMPEROR-HFPEF,PE,EMPEROR-HFPEF-SITE002-0032,1,ABDOMEN,ABDOMEN,NORMAL,NORMAL,1.0,SCREENING,SCREENING,2024-04-14,-25
EMPEROR-HFPEF,PE,EMPEROR-HFPEF-SITE002-0032,2,CARDIOVA,CARDIOVASCULAR,NORMAL,NORMAL,1.0,SCREENING,SCREENING,2024-04-14,-25
EMPEROR-HFPEF,PE,EMPEROR-HFPEF-SITE002-0032,3,EARSNOSE,"EARS, NOSE, AND THROAT",NORMAL,NORMAL,1.0,SCREENING,SCREENING,2024-04-14,-25
EMPEROR-HFPEF,PE,EMPEROR-HFPEF-SITE002-0032,4,EYES,EYES,NORMAL,NORMAL,1.0,SCREENING,SCREENING,2024-04-14,-25
EMPEROR-HFPEF,PE,EMPEROR-HFPEF-SITE002-0032,5,GENERALA,GENERAL APPEARANCE,NORMAL,NORMAL,1.0,SCREENING,SCREENING,2024-04-14,-25
EMPEROR-HFPEF,PE,EMPEROR-HFPEF-SITE002-0032,6,HEADANDN,HEAD AND NECK,NORMAL,NORMAL,1.0,SCREENING,SCREENING,2024-04-14,-25
EMPEROR-HFPEF,PE,EMPEROR-HFPEF-SITE002-0032,7,MUSCULOS,MUSCULOSKELETAL,NORMAL,NORMAL,1.0,SCREENING,SCREENING,2024-04-14,-25
EMPEROR-HFPEF,PE,EMPEROR-HFPEF-SITE002-0032,8,NEUROLOG,NEUROLOGICAL,NORMAL,NORMAL,1.0,SCREENING,SCREENING,2024-04-14,-25
EMPEROR-HFPEF,PE,EMPEROR-HFPEF-SITE002-0032,9,RESPIRAT,RESPIRATORY,NORMAL,NORMAL,1.0,SCREENING,SCREENING,2024-04-14,-25
EMPEROR-HFPEF,PE,EMPEROR-HFPEF-SITE002-0032,10,SKIN,SKIN,NORMAL,NORMAL,1.0,SCREENING,SCREENING,2024-04-14,-25
EMPEROR-HFPEF,PE,EMPEROR-HFPEF-SITE002-0032,11,ABDOMEN,ABDOMEN,NORMAL,NORMAL,2.0,RANDOMIZATION,TREATMENT,2024-05-09,1
EMPEROR-HFPEF,PE,EMPEROR-HFPEF-SITE002-0032,12,CARDIOVA,CARDIOVASCULAR,NORMAL,NORMAL,2.0,RANDOMIZATION,TREATMENT,2024-05-09,1
EMPEROR-HFPEF,PE,EMPEROR-HFPEF-SITE002-0032,13,EARSNOSE,"EARS, NOSE, AND THROAT",NORMAL,NORMAL,2.0,RANDOMIZATION,TREATMENT,2024-05-09,1
EMPEROR-HFPEF,PE,EMPEROR-HFPEF-SITE002-0032,14,EYES,EYES,NORMAL,NORMAL,2.0,RANDOMIZATION,TREATMENT,2024-05-09,1
EMPEROR-HFPEF,PE,EMPEROR-HFPEF-SITE002-0032,15,GENERALA,GENERAL APPEARANCE,NORMAL,NORMAL,2.0,RANDOMIZATION,TREATMENT,2024-05-09,1
EMPEROR-HFPEF,PE,EMPEROR-HFPEF-SITE002-0032,16,HEADANDN,HEAD AND NECK,NORMAL,NORMAL,2.0,RANDOMIZATION,TREATMENT,2024-05-09,1
EMPEROR-HFPEF,PE,EMPEROR-HFPEF-SITE002-0032,17,MUSCULOS,MUSCULOSKELETAL,NORMAL,NORMAL,2.0,RANDOMIZATION,TREATMENT,2024-05-09,1
EMPEROR-HFPEF,PE,EMPEROR-HFPEF-SITE002-0032,18,NEUROLOG,NEUROLOGICAL,NORMAL,NORMAL,2.0,RANDOMIZATION,TREATMENT,2024-05-09,1
EMPEROR-HFPEF,PE,EMPEROR-HFPEF-SITE002-0032,19,RESPIRAT,RESPIRATORY,NORMAL,NORMAL,2.0,RANDOMIZATION,TREATMENT,2024-05-09,1
EMPEROR-HFPEF,PE,EMPEROR-HFPEF-SITE002-0032,20,SKIN,SKIN,NORMAL,NORMAL,2.0,RANDOMIZATION,TREATMENT,2024-05-09,1
EMPEROR-HFPEF,PE,EMPEROR-HFPEF-SITE002-0035,1,ABDOMEN,ABDOMEN,NORMAL,NORMAL,1.0,SCREENING,SCREENING,2024-03-15,-29
EMPEROR-HFPEF,PE,EMPEROR-HFPEF-SITE002-0035,2,CARDIOVA,CARDIOVASCULAR,NORMAL,NORMAL,1.0,SCREENING,SCREENING,2024-03-15,-29
EMPEROR-HFPEF,PE,EMPEROR-HFPEF-SITE002-0035,3,EARSNOSE,"EARS, NOSE, AND THROAT",NORMAL,NORMAL,1.0,SCREENING,SCREENING,2024-03-15,-29
EMPEROR-HFPEF,PE,EMPEROR-HFPEF-SITE002-0035,4,EYES,EYES,NORMAL,NORMAL,1.0,SCREENING,SCREENING,2024-03-15,-29
EMPEROR-HFPEF,PE,EMPEROR-HFPEF-SITE002-0035,5,GENERALA,GENERAL APPEARANCE,NORMAL,NORMAL,1.0,SCREENING,SCREENING,2024-03-15,-29
EMPEROR-HFPEF,PE,EMPEROR-HFPEF-SITE002-0035,6,HEADANDN,HEAD AND NECK,NORMAL,NORMAL,1.0,SCREENING,SCREENING,2024-03-15,-29
EMPEROR-HFPEF,PE,EMPEROR-HFPEF-SITE002-0035,7,MUSCULOS,MUSCULOSKELETAL,NORMAL,NORMAL,1.0,SCREENING,SCREENING,2024-03-15,-29
EMPEROR-HFPEF,PE,EMPEROR-HFPEF-SITE002-0035,8,NEUROLOG,NEUROLOGICAL,NORMAL,NORMAL,1.0,SCREENING,SCREENING,2024-03-15,-29
EMPEROR-HFPEF,PE,EMPEROR-HFPEF-SITE002-0035,9,RESPIRAT,RESPIRATORY,NORMAL,NORMAL,1.0,SCREENING,SCREENING,2024-03-15,-29
EMPEROR-HFPEF,PE,EMPEROR-HFPEF-SITE002-0035,10,SKIN,SKIN,NORMAL,NORMAL,1.0,SCREENING,SCREENING,2024-03-15,-29
EMPEROR-HFPEF,PE,EMPEROR-HFPEF-SITE002-0035,11,ABDOMEN,ABDOMEN,NORMAL,NORMAL,2.0,RANDOMIZATION,TREATMENT,2024-04-13,1
EMPEROR-HFPEF,PE,EMPEROR-HFPEF-SITE002-0035,12,CARDIOVA,CARDIOVASCULAR,NORMAL,NORMAL,2.0,RANDOMIZATION,TREATMENT,2024-04-13,1
EMPEROR-HFPEF,PE,EMPEROR-HFPEF-SITE002-0035,13,EARSNOSE,"EARS, NOSE, AND THROAT",NORMAL,NORMAL,2.0,RANDOMIZATION,TREATMENT,2024-04-13,1
EMPEROR-HFPEF,PE,EMPEROR-HFPEF-SITE002-0035,14,EYES,EYES,NORMAL,NORMAL,2.0,RANDOMIZATION,TREATMENT,2024-04-13,1
EMPEROR-HFPEF,PE,EMPEROR-HFPEF-SITE002-0035,15,GENERALA,GENERAL APPEARANCE,NORMAL,NORMAL,2.0,RANDOMIZATION,TREATMENT,2024-04-13,1
EMPEROR-HFPEF,PE,EMPEROR-HFPEF-SITE002-0035,16,HEADANDN,HEAD AND NECK,NORMAL,NORMAL,2.0,RANDOMIZATION,TREATMENT,2024-04-13,1
EMPEROR-HFPEF,PE,EMPEROR-HFPEF-SITE002-0035,17,MUSCULOS,MUSCULOSKELETAL,NORMAL,NORMAL,2.0,RANDOMIZATION,TREATMENT,2024-04-13,1
EMPEROR-HFPEF,PE,EMPEROR-HFPEF-SITE002-0035,18,NEUROLOG,NEUROLOGICAL,NORMAL,NORMAL,2.0,RANDOMIZATION,TREATMENT,2024-04-13,1
EMPEROR-HFPEF,PE,EMPEROR-HFPEF-SITE002-0035,19,RESPIRAT,RESPIRATORY,NORMAL,NORMAL,2.0,RANDOMIZATION,TREATMENT,2024-04-13,1
EMPEROR-HFPEF,PE,EMPEROR-HFPEF-SITE002-0035,20,SKIN,SKIN,NORMAL,NORMAL,2.0,RANDOMIZATION,TREATMENT,2024-04-13,1
EMPEROR-HFPEF,PE,EMPEROR-HFPEF-SITE002-0038,1,ABDOMEN,ABDOMEN,NORMAL,NORMAL,1.0,SCREENING,SCREENING,2024-01-29,-24
EMPEROR-HFPEF,PE,EMPEROR-HFPEF-SITE002-0038,2,CARDIOVA,CARDIOVASCULAR,NORMAL,NORMAL,1.0,SCREENING,SCREENING,2024-01-29,-24
EMPEROR-HFPEF,PE,EMPEROR-HFPEF-SITE002-0038,3,EARSNOSE,"EARS, NOSE, AND THROAT",NORMAL,NORMAL,1.0,SCREENING,SCREENING,2024-01-29,-24
EMPEROR-HFPEF,PE,EMPEROR-HFPEF-SITE002-0038,4,EYES,EYES,NORMAL,NORMAL,1.0,SCREENING,SCREENING,2024-01-29,-24
EMPEROR-HFPEF,PE,EMPEROR-HFPEF-SITE002-0038,5,GENERALA,GENERAL APPEARANCE,NORMAL,NORMAL,1.0,SCREENING,SCREENING,2024-01-29,-24
EMPEROR-HFPEF,PE,EMPEROR-HFPEF-SITE002-0038,6,HEADANDN,HEAD AND NECK,NORMAL,NORMAL,1.0,SCREENING,SCREENING,2024-01-29,-24
EMPEROR-HFPEF,PE,EMPEROR-HFPEF-SITE002-0038,7,MUSCULOS,MUSCULOSKELETAL,NORMAL,NORMAL,1.0,SCREENING,SCREENING,2024-01-29,-24
EMPEROR-HFPEF,PE,EMPEROR-HFPEF-SITE002-0038,8,NEUROLOG,NEUROLOGICAL,NORMAL,NORMAL,1.0,SCREENING,SCREENING,2024-01-29,-24
EMPEROR-HFPEF,PE,EMPEROR-HFPEF-SITE002-0038,9,RESPIRAT,RESPIRATORY,NORMAL,NORMAL,1.0,SCREENING,SCREENING,2024-01-29,-24
EMPEROR-HFPEF,PE,EMPEROR-HFPEF-SITE002-0038,10,SKIN,SKIN,NORMAL,NORMAL,1.0,SCREENING,SCREENING,2024-01-29,-24
EMPEROR-HFPEF,PE,EMPEROR-HFPEF-SITE002-0038,11,ABDOMEN,ABDOMEN,NORMAL,NORMAL,2.0,RANDOMIZATION,TREATMENT,2024-02-22,1
EMPEROR-HFPEF,PE,EMPEROR-HFPEF-SITE002-0038,12,CARDIOVA,CARDIOVASCULAR,NORMAL,NORMAL,2.0,RANDOMIZATION,TREATMENT,2024-02-22,1
EMPEROR-HFPEF,PE,EMPEROR-HFPEF-SITE002-0038,13,EARSNOSE,"EARS, NOSE, AND THROAT",NORMAL,NORMAL,2.0,RANDOMIZATION,TREATMENT,2024-02-22,1
EMPEROR-HFPEF,PE,EMPEROR-HFPEF-SITE002-0038,14,EYES,EYES,NORMAL,NORMAL,2.0,RANDOMIZATION,TREATMENT,2024-02-22,1
EMPEROR-HFPEF,PE,EMPEROR-HFPEF-SITE002-0038,15,GENERALA,GENERAL APPEARANCE,NORMAL,NORMAL,2.0,RANDOMIZATION,TREATMENT,2024-02-22,1
EMPEROR-HFPEF,PE,EMPEROR-HFPEF-SITE002-0038,16,HEADANDN,HEAD AND NECK,NORMAL,NORMAL,2.0,RANDOMIZATION,TREATMENT,2024-02-22,1
EMPEROR-HFPEF,PE,EMPEROR-HFPEF-SITE002-0038,17,MUSCULOS,MUSCULOSKELETAL,NORMAL,NORMAL,2.0,RANDOMIZATION,TREATMENT,2024-02-22,1
EMPEROR-HFPEF,PE,EMPEROR-HFPEF-SITE002-0038,18,NEUROLOG,NEUROLOGICAL,NORMAL,NORMAL,2.0,RANDOMIZATION,TREATMENT,2024-02-22,1
EMPEROR-HFPEF,PE,EMPEROR-HFPEF-SITE002-0038,19,RESPIRAT,RESPIRATORY,NORMAL,NORMAL,2.0,RANDOMIZATION,TREATMENT,2024-02-22,1
EMPEROR-HFPEF,PE,EMPEROR-HFPEF-SITE002-0038,20,SKIN,SKIN,NORMAL,NORMAL,2.0,RANDOMIZATION,TREATMENT,2024-02-22,1
EMPEROR-HFPEF,PE,EMPEROR-HFPEF-SITE002-0041,1,ABDOMEN,ABDOMEN,NORMAL,NORMAL,1.0,SCREENING,SCREENING,2024-01-15,-18
EMPEROR-HFPEF,PE,EMPEROR-HFPEF-SITE002-0041,2,CARDIOVA,CARDIOVASCULAR,NORMAL,NORMAL,1.0,SCREENING,SCREENING,2024-01-15,-18
EMPEROR-HFPEF,PE,EMPEROR-HFPEF-SITE002-0041,3,EARSNOSE,"EARS, NOSE, AND THROAT",NORMAL,NORMAL,1.0,SCREENING,SCREENING,2024-01-15,-18
EMPEROR-HFPEF,PE,EMPEROR-HFPEF-SITE002-0041,4,EYES,EYES,NORMAL,NORMAL,1.0,SCREENING,SCREENING,2024-01-15,-18
EMPEROR-HFPEF,PE,EMPEROR-HFPEF-SITE002-0041,5,GENERALA,GENERAL APPEARANCE,NORMAL,NORMAL,1.0,SCREENING,SCREENING,2024-01-15,-18
EMPEROR-HFPEF,PE,EMPEROR-HFPEF-SITE002-0041,6,HEADANDN,HEAD AND NECK,NORMAL,NORMAL,1.0,SCREENING,SCREENING,2024-01-15,-18
EMPEROR-HFPEF,PE,EMPEROR-HFPEF-SITE002-0041,7,MUSCULOS,MUSCULOSKELETAL,NORMAL,NORMAL,1.0,SCREENING,SCREENING,2024-01-15,-18
EMPEROR-HFPEF,PE,EMPEROR-HFPEF-SITE002-0041,8,NEUROLOG,NEUROLOGICAL,NORMAL,NORMAL,1.0,SCREENING,SCREENING,2024-01-15,-18
EMPEROR-HFPEF,PE,EMPEROR-HFPEF-SITE002-0041,9,RESPIRAT,RESPIRATORY,NORMAL,NORMAL,1.0,SCREENING,SCREENING,2024-01-15,-18
EMPEROR-HFPEF,PE,EMPEROR-HFPEF-SITE002-0041,10,SKIN,SKIN,NORMAL,NORMAL,1.0,SCREENING,SCREENING,2024-01-15,-18
EMPEROR-HFPEF,PE,EMPEROR-HFPEF-SITE002-0041,11,ABDOMEN,ABDOMEN,NORMAL,NORMAL,2.0,RANDOMIZATION,TREATMENT,2024-02-02,1
EMPEROR-HFPEF,PE,EMPEROR-HFPEF-SITE002-0041,12,CARDIOVA,CARDIOVASCULAR,NORMAL,NORMAL,2.0,RANDOMIZATION,TREATMENT,2024-02-02,1
EMPEROR-HFPEF,PE,EMPEROR-HFPEF-SITE002-0041,13,EARSNOSE,"EARS, NOSE, AND THROAT",NORMAL,NORMAL,2.0,RANDOMIZATION,TREATMENT,2024-02-02,1
EMPEROR-HFPEF,PE,EMPEROR-HFPEF-SITE002-0041,14,EYES,EYES,NORMAL,NORMAL,2.0,RANDOMIZATION,TREATMENT,2024-02-02,1
EMPEROR-HFPEF,PE,EMPEROR-HFPEF-SITE002-0041,15,GENERALA,GENERAL APPEARANCE,NORMAL,NORMAL,2.0,RANDOMIZATION,TREATMENT,2024-02-02,1
EMPEROR-HFPEF,PE,EMPEROR-HFPEF-SITE002-0041,16,HEADANDN,HEAD AND NECK,NORMAL,NORMAL,2.0,RANDOMIZATION,TREATMENT,2024-02-02,1
EMPEROR-HFPEF,PE,EMPEROR-HFPEF-SITE002-0041,17,MUSCULOS,MUSCULOSKELETAL,NORMAL,NORMAL,2.0,RANDOMIZATION,TREATMENT,2024-02-02,1
EMPEROR-HFPEF,PE,EMPEROR-HFPEF-SITE002-0041,18,NEUROLOG,NEUROLOGICAL,NORMAL,NORMAL,2.0,RANDOMIZATION,TREATMENT,2024-02-02,1
EMPEROR-HFPEF,PE,EMPEROR-HFPEF-SITE002-0041,19,RESPIRAT,RESPIRATORY,NORMAL,NORMAL,2.0,RANDOMIZATION,TREATMENT,2024-02-02,1
EMPEROR-HFPEF,PE,EMPEROR-HFPEF-SITE002-0041,20,SKIN,SKIN,NORMAL,NORMAL,2.0,RANDOMIZATION,TREATMENT,2024-02-02,1
EMPEROR-HFPEF,PE,EMPEROR-HFPEF-SITE002-0044,1,ABDOMEN,ABDOMEN,NORMAL,NORMAL,1.0,SCREENING,SCREENING,2024-04-02,-20
EMPEROR-HFPEF,PE,EMPEROR-HFPEF-SITE002-0044,2,CARDIOVA,CARDIOVASCULAR,NORMAL,NORMAL,1.0,SCREENING,SCREENING,2024-04-02,-20
EMPEROR-HFPEF,PE,EMPEROR-HFPEF-SITE002-0044,3,EARSNOSE,"EARS, NOSE, AND THROAT",NORMAL,NORMAL,1.0,SCREENING,SCREENING,2024-04-02,-20
EMPEROR-HFPEF,PE,EMPEROR-HFPEF-SITE002-0044,4,EYES,EYES,NORMAL,NORMAL,1.0,SCREENING,SCREENING,2024-04-02,-20
EMPEROR-HFPEF,PE,EMPEROR-HFPEF-SITE002-0044,5,GENERALA,GENERAL APPEARANCE,NORMAL,NORMAL,1.0,SCREENING,SCREENING,2024-04-02,-20
EMPEROR-HFPEF,PE,EMPEROR-HFPEF-SITE002-0044,6,HEADANDN,HEAD AND NECK,NORMAL,NORMAL,1.0,SCREENING,SCREENING,2024-04-02,-20
EMPEROR-HFPEF,PE,EMPEROR-HFPEF-SITE002-0044,7,MUSCULOS,MUSCULOSKELETAL,NORMAL,NORMAL,1.0,SCREENING,SCREENING,2024-04-02,-20
EMPEROR-HFPEF,PE,EMPEROR-HFPEF-SITE002-0044,8,NEUROLOG,NEUROLOGICAL,NORMAL,NORMAL,1.0,SCREENING,SCREENING,2024-04-02,-20
EMPEROR-HFPEF,PE,EMPEROR-HFPEF-SITE002-0044,9,RESPIRAT,RESPIRATORY,NORMAL,NORMAL,1.0,SCREENING,SCREENING,2024-04-02,-20
EMPEROR-HFPEF,PE,EMPEROR-HFPEF-SITE002-0044,10,SKIN,SKIN,NORMAL,NORMAL,1.0,SCREENING,SCREENING,2024-04-02,-20
EMPEROR-HFPEF,PE,EMPEROR-HFPEF-SITE002-0044,11,ABDOMEN,ABDOMEN,NORMAL,NORMAL,2.0,RANDOMIZATION,TREATMENT,2024-04-22,1
EMPEROR-HFPEF,PE,EMPEROR-HFPEF-SITE002-0044,12,CARDIOVA,CARDIOVASCULAR,NORMAL,NORMAL,2.0,RANDOMIZATION,TREATMENT,2024-04-22,1
EMPEROR-HFPEF,PE,EMPEROR-HFPEF-SITE002-0044,13,EARSNOSE,"EARS, NOSE, AND THROAT",NORMAL,NORMAL,2.0,RANDOMIZATION,TREATMENT,2024-04-22,1
EMPEROR-HFPEF,PE,EMPEROR-HFPEF-SITE002-0044,14,EYES,EYES,NORMAL,NORMAL,2.0,RANDOMIZATION,TREATMENT,2024-04-22,1
EMPEROR-HFPEF,PE,EMPEROR-HFPEF-SITE002-0044,15,GENERALA,GENERAL APPEARANCE,NORMAL,NORMAL,2.0,RANDOMIZATION,TREATMENT,2024-04-22,1
EMPEROR-HFPEF,PE,EMPEROR-HFPEF-SITE002-0044,16,HEADANDN,HEAD AND NECK,NORMAL,NORMAL,2.0,RANDOMIZATION,TREATMENT,2024-04-22,1
EMPEROR-HFPEF,PE,EMPEROR-HFPEF-SITE002-0044,17,MUSCULOS,MUSCULOSKELETAL,NORMAL,NORMAL,2.0,RANDOMIZATION,TREATMENT,2024-04-22,1
EMPEROR-HFPEF,PE,EMPEROR-HFPEF-SITE002-0044,18,NEUROLOG,NEUROLOGICAL,NORMAL,NORMAL,2.0,RANDOMIZATION,TREATMENT,2024-04-22,1
EMPEROR-HFPEF,PE,EMPEROR-HFPEF-SITE002-0044,19,RESPIRAT,RESPIRATORY,NORMAL,NORMAL,2.0,RANDOMIZATION,TREATMENT,2024-04-22,1
EMPEROR-HFPEF,PE,EMPEROR-HFPEF-SITE002-0044,20,SKIN,SKIN,NORMAL,NORMAL,2.0,RANDOMIZATION,TREATMENT,2024-04-22,1
EMPEROR-HFPEF,PE,EMPEROR-HFPEF-SITE002-0047,1,ABDOMEN,ABDOMEN,NORMAL,NORMAL,1.0,SCREENING,SCREENING,2024-02-22,-21
EMPEROR-HFPEF,PE,EMPEROR-HFPEF-SITE002-0047,2,CARDIOVA,CARDIOVASCULAR,NORMAL,NORMAL,1.0,SCREENING,SCREENING,2024-02-22,-21
EMPEROR-HFPEF,PE,EMPEROR-HFPEF-SITE002-0047,3,EARSNOSE,"EARS, NOSE, AND THROAT",PHARYNGEAL ERYTHEMA,PHARYNGEAL ERYTHEMA,1.0,SCREENING,SCREENING,2024-02-22,-21
EMPEROR-HFPEF,PE,EMPEROR-HFPEF-SITE002-0047,4,EYES,EYES,CONJUNCTIVAL PALLOR,CONJUNCTIVAL PALLOR,1.0,SCREENING,SCREENING,2024-02-22,-21
EMPEROR-HFPEF,PE,EMPEROR-HFPEF-SITE002-0047,5,GENERALA,GENERAL APPEARANCE,NORMAL,NORMAL,1.0,SCREENING,SCREENING,2024-02-22,-21
EMPEROR-HFPEF,PE,EMPEROR-HFPEF-SITE002-0047,6,HEADANDN,HEAD AND NECK,NORMAL,NORMAL,1.0,SCREENING,SCREENING,2024-02-22,-21
EMPEROR-HFPEF,PE,EMPEROR-HFPEF-SITE002-0047,7,MUSCULOS,MUSCULOSKELETAL,NORMAL,NORMAL,1.0,SCREENING,SCREENING,2024-02-22,-21
EMPEROR-HFPEF,PE,EMPEROR-HFPEF-SITE002-0047,8,NEUROLOG,NEUROLOGICAL,NORMAL,NORMAL,1.0,SCREENING,SCREENING,2024-02-22,-21
EMPEROR-HFPEF,PE,EMPEROR-HFPEF-SITE002-0047,9,RESPIRAT,RESPIRATORY,DECREASED BREATH SOUNDS,DECREASED BREATH SOUNDS,1.0,SCREENING,SCREENING,2024-02-22,-21
EMPEROR-HFPEF,PE,EMPEROR-HFPEF-SITE002-0047,10,SKIN,SKIN,NORMAL,NORMAL,1.0,SCREENING,SCREENING,2024-02-22,-21
EMPEROR-HFPEF,PE,EMPEROR-HFPEF-SITE002-0047,11,ABDOMEN,ABDOMEN,NORMAL,NORMAL,2.0,RANDOMIZATION,TREATMENT,2024-03-14,1
EMPEROR-HFPEF,PE,EMPEROR-HFPEF-SITE002-0047,12,CARDIOVA,CARDIOVASCULAR,NORMAL,NORMAL,2.0,RANDOMIZATION,TREATMENT,2024-03-14,1
EMPEROR-HFPEF,PE,EMPEROR-HFPEF-SITE002-0047,13,EARSNOSE,"EARS, NOSE, AND THROAT",NORMAL,NORMAL,2.0,RANDOMIZATION,TREATMENT,2024-03-14,1
EMPEROR-HFPEF,PE,EMPEROR-HFPEF-SITE002-0047,14,EYES,EYES,NORMAL,NORMAL,2.0,RANDOMIZATION,TREATMENT,2024-03-14,1
EMPEROR-HFPEF,PE,EMPEROR-HFPEF-SITE002-0047,15,GENERALA,GENERAL APPEARANCE,NORMAL,NORMAL,2.0,RANDOMIZATION,TREATMENT,2024-03-14,1
EMPEROR-HFPEF,PE,EMPEROR-HFPEF-SITE002-0047,16,HEADANDN,HEAD AND NECK,NORMAL,NORMAL,2.0,RANDOMIZATION,TREATMENT,2024-03-14,1
EMPEROR-HFPEF,PE,EMPEROR-HFPEF-SITE002-0047,17,MUSCULOS,MUSCULOSKELETAL,NORMAL,NORMAL,2.0,RANDOMIZATION,TREATMENT,2024-03-14,1
EMPEROR-HFPEF,PE,EMPEROR-HFPEF-SITE002-0047,18,NEUROLOG,NEUROLOGICAL,NORMAL,NORMAL,2.0,RANDOMIZATION,TREATMENT,2024-03-14,1
EMPEROR-HFPEF,PE,EMPEROR-HFPEF-SITE002-0047,19,RESPIRAT,RESPIRATORY,NORMAL,NORMAL,2.0,RANDOMIZATION,TREATMENT,2024-03-14,1
EMPEROR-HFPEF,PE,EMPEROR-HFPEF-SITE002-0047,20,SKIN,SKIN,NORMAL,NORMAL,2.0,RANDOMIZATION,TREATMENT,2024-03-14,1
EMPEROR-HFPEF,PE,EMPEROR-HFPEF-SITE002-0050,1,ABDOMEN,ABDOMEN,NORMAL,NORMAL,1.0,SCREENING,SCREENING,2024-03-23,-13
EMPEROR-HFPEF,PE,EMPEROR-HFPEF-SITE002-0050,2,CARDIOVA,CARDIOVASCULAR,NORMAL,NORMAL,1.0,SCREENING,SCREENING,2024-03-23,-13
EMPEROR-HFPEF,PE,EMPEROR-HFPEF-SITE002-0050,3,EARSNOSE,"EARS, NOSE, AND THROAT",NORMAL,NORMAL,1.0,SCREENING,SCREENING,2024-03-23,-13
EMPEROR-HFPEF,PE,EMPEROR-HFPEF-SITE002-0050,4,EYES,EYES,NORMAL,NORMAL,1.0,SCREENING,SCREENING,2024-03-23,-13
EMPEROR-HFPEF,PE,EMPEROR-HFPEF-SITE002-0050,5,GENERALA,GENERAL APPEARANCE,NORMAL,NORMAL,1.0,SCREENING,SCREENING,2024-03-23,-13
EMPEROR-HFPEF,PE,EMPEROR-HFPEF-SITE002-0050,6,HEADANDN,HEAD AND NECK,NORMAL,NORMAL,1.0,SCREENING,SCREENING,2024-03-23,-13
EMPEROR-HFPEF,PE,EMPEROR-HFPEF-SITE002-0050,7,MUSCULOS,MUSCULOSKELETAL,NORMAL,NORMAL,1.0,SCREENING,SCREENING,2024-03-23,-13
EMPEROR-HFPEF,PE,EMPEROR-HFPEF-SITE002-0050,8,NEUROLOG,NEUROLOGICAL,NORMAL,NORMAL,1.0,SCREENING,SCREENING,2024-03-23,-13
EMPEROR-HFPEF,PE,EMPEROR-HFPEF-SITE002-0050,9,RESPIRAT,RESPIRATORY,NORMAL,NORMAL,1.0,SCREENING,SCREENING,2024-03-23,-13
EMPEROR-HFPEF,PE,EMPEROR-HFPEF-SITE002-0050,10,SKIN,SKIN,DRY SKIN,DRY SKIN,1.0,SCREENING,SCREENING,2024-03-23,-13
EMPEROR-HFPEF,PE,EMPEROR-HFPEF-SITE002-0050,11,ABDOMEN,ABDOMEN,NORMAL,NORMAL,2.0,RANDOMIZATION,TREATMENT,2024-04-05,1
EMPEROR-HFPEF,PE,EMPEROR-HFPEF-SITE002-0050,12,CARDIOVA,CARDIOVASCULAR,NORMAL,NORMAL,2.0,RANDOMIZATION,TREATMENT,2024-04-05,1
EMPEROR-HFPEF,PE,EMPEROR-HFPEF-SITE002-0050,13,EARSNOSE,"EARS, NOSE, AND THROAT",NORMAL,NORMAL,2.0,RANDOMIZATION,TREATMENT,2024-04-05,1
EMPEROR-HFPEF,PE,EMPEROR-HFPEF-SITE002-0050,14,EYES,EYES,NORMAL,NORMAL,2.0,RANDOMIZATION,TREATMENT,2024-04-05,1
EMPEROR-HFPEF,PE,EMPEROR-HFPEF-SITE002-0050,15,GENERALA,GENERAL APPEARANCE,NORMAL,NORMAL,2.0,RANDOMIZATION,TREATMENT,2024-04-05,1
EMPEROR-HFPEF,PE,EMPEROR-HFPEF-SITE002-0050,16,HEADANDN,HEAD AND NECK,NORMAL,NORMAL,2.0,RANDOMIZATION,TREATMENT,2024-04-05,1
EMPEROR-HFPEF,PE,EMPEROR-HFPEF-SITE002-0050,17,MUSCULOS,MUSCULOSKELETAL,NORMAL,NORMAL,2.0,RANDOMIZATION,TREATMENT,2024-04-05,1
EMPEROR-HFPEF,PE,EMPEROR-HFPEF-SITE002-0050,18,NEUROLOG,NEUROLOGICAL,NORMAL,NORMAL,2.0,RANDOMIZATION,TREATMENT,2024-04-05,1
EMPEROR-HFPEF,PE,EMPEROR-HFPEF-SITE002-0050,19,RESPIRAT,RESPIRATORY,NORMAL,NORMAL,2.0,RANDOMIZATION,TREATMENT,2024-04-05,1
EMPEROR-HFPEF,PE,EMPEROR-HFPEF-SITE002-0050,20,SKIN,SKIN,NORMAL,NORMAL,2.0,RANDOMIZATION,TREATMENT,2024-04-05,1
EMPEROR-HFPEF,PE,EMPEROR-HFPEF-SITE003-0003,1,ABDOMEN,ABDOMEN,NORMAL,NORMAL,1.0,SCREENING,SCREENING,2024-03-03,-29
EMPEROR-HFPEF,PE,EMPEROR-HFPEF-SITE003-0003,2,CARDIOVA,CARDIOVASCULAR,NORMAL,NORMAL,1.0,SCREENING,SCREENING,2024-03-03,-29
EMPEROR-HFPEF,PE,EMPEROR-HFPEF-SITE003-0003,3,EARSNOSE,"EARS, NOSE, AND THROAT",NORMAL,NORMAL,1.0,SCREENING,SCREENING,2024-03-03,-29
EMPEROR-HFPEF,PE,EMPEROR-HFPEF-SITE003-0003,4,EYES,EYES,NORMAL,NORMAL,1.0,SCREENING,SCREENING,2024-03-03,-29
EMPEROR-HFPEF,PE,EMPEROR-HFPEF-SITE003-0003,5,GENERALA,GENERAL APPEARANCE,NORMAL,NORMAL,1.0,SCREENING,SCREENING,2024-03-03,-29
EMPEROR-HFPEF,PE,EMPEROR-HFPEF-SITE003-0003,6,HEADANDN,HEAD AND NECK,NORMAL,NORMAL,1.0,SCREENING,SCREENING,2024-03-03,-29
EMPEROR-HFPEF,PE,EMPEROR-HFPEF-SITE003-0003,7,MUSCULOS,MUSCULOSKELETAL,NORMAL,NORMAL,1.0,SCREENING,SCREENING,2024-03-03,-29
EMPEROR-HFPEF,PE,EMPEROR-HFPEF-SITE003-0003,8,NEUROLOG,NEUROLOGICAL,NORMAL,NORMAL,1.0,SCREENING,SCREENING,2024-03-03,-29
EMPEROR-HFPEF,PE,EMPEROR-HFPEF-SITE003-0003,9,RESPIRAT,RESPIRATORY,NORMAL,NORMAL,1.0,SCREENING,SCREENING,2024-03-03,-29
EMPEROR-HFPEF,PE,EMPEROR-HFPEF-SITE003-0003,10,SKIN,SKIN,NORMAL,NORMAL,1.0,SCREENING,SCREENING,2024-03-03,-29
EMPEROR-HFPEF,PE,EMPEROR-HFPEF-SITE003-0003,11,ABDOMEN,ABDOMEN,NORMAL,NORMAL,2.0,RANDOMIZATION,TREATMENT,2024-04-01,1
EMPEROR-HFPEF,PE,EMPEROR-HFPEF-SITE003-0003,12,CARDIOVA,CARDIOVASCULAR,NORMAL,NORMAL,2.0,RANDOMIZATION,TREATMENT,2024-04-01,1
EMPEROR-HFPEF,PE,EMPEROR-HFPEF-SITE003-0003,13,EARSNOSE,"EARS, NOSE, AND THROAT",NORMAL,NORMAL,2.0,RANDOMIZATION,TREATMENT,2024-04-01,1
EMPEROR-HFPEF,PE,EMPEROR-HFPEF-SITE003-0003,14,EYES,EYES,NORMAL,NORMAL,2.0,RANDOMIZATION,TREATMENT,2024-04-01,1
EMPEROR-HFPEF,PE,EMPEROR-HFPEF-SITE003-0003,15,GENERALA,GENERAL APPEARANCE,NORMAL,NORMAL,2.0,RANDOMIZATION,TREATMENT,2024-04-01,1
EMPEROR-HFPEF,PE,EMPEROR-HFPEF-SITE003-0003,16,HEADANDN,HEAD AND NECK,NORMAL,NORMAL,2.0,RANDOMIZATION,TREATMENT,2024-04-01,1
EMPEROR-HFPEF,PE,EMPEROR-HFPEF-SITE003-0003,17,MUSCULOS,MUSCULOSKELETAL,NORMAL,NORMAL,2.0,RANDOMIZATION,TREATMENT,2024-04-01,1
EMPEROR-HFPEF,PE,EMPEROR-HFPEF-SITE003-0003,18,NEUROLOG,NEUROLOGICAL,NORMAL,NORMAL,2.0,RANDOMIZATION,TREATMENT,2024-04-01,1
EMPEROR-HFPEF,PE,EMPEROR-HFPEF-SITE003-0003,19,RESPIRAT,RESPIRATORY,NORMAL,NORMAL,2.0,RANDOMIZATION,TREATMENT,2024-04-01,1
EMPEROR-HFPEF,PE,EMPEROR-HFPEF-SITE003-0003,20,SKIN,SKIN,NORMAL,NORMAL,2.0,RANDOMIZATION,TREATMENT,2024-04-01,1
EMPEROR-HFPEF,PE,EMPEROR-HFPEF-SITE003-0006,1,ABDOMEN,ABDOMEN,NORMAL,NORMAL,1.0,SCREENING,SCREENING,2024-01-20,-21
EMPEROR-HFPEF,PE,EMPEROR-HFPEF-SITE003-0006,2,CARDIOVA,CARDIOVASCULAR,NORMAL,NORMAL,1.0,SCREENING,SCREENING,2024-01-20,-21
EMPEROR-HFPEF,PE,EMPEROR-HFPEF-SITE003-0006,3,EARSNOSE,"EARS, NOSE, AND THROAT",NORMAL,NORMAL,1.0,SCREENING,SCREENING,2024-01-20,-21
EMPEROR-HFPEF,PE,EMPEROR-HFPEF-SITE003-0006,4,EYES,EYES,NORMAL,NORMAL,1.0,SCREENING,SCREENING,2024-01-20,-21
EMPEROR-HFPEF,PE,EMPEROR-HFPEF-SITE003-0006,5,GENERALA,GENERAL APPEARANCE,NORMAL,NORMAL,1.0,SCREENING,SCREENING,2024-01-20,-21
EMPEROR-HFPEF,PE,EMPEROR-HFPEF-SITE003-0006,6,HEADANDN,HEAD AND NECK,NORMAL,NORMAL,1.0,SCREENING,SCREENING,2024-01-20,-21
EMPEROR-HFPEF,PE,EMPEROR-HFPEF-SITE003-0006,7,MUSCULOS,MUSCULOSKELETAL,NORMAL,NORMAL,1.0,SCREENING,SCREENING,2024-01-20,-21
EMPEROR-HFPEF,PE,EMPEROR-HFPEF-SITE003-0006,8,NEUROLOG,NEUROLOGICAL,NORMAL,NORMAL,1.0,SCREENING,SCREENING,2024-01-20,-21
EMPEROR-HFPEF,PE,EMPEROR-HFPEF-SITE003-0006,9,RESPIRAT,RESPIRATORY,NORMAL,NORMAL,1.0,SCREENING,SCREENING,2024-01-20,-21
EMPEROR-HFPEF,PE,EMPEROR-HFPEF-SITE003-0006,10,SKIN,SKIN,NORMAL,NORMAL,1.0,SCREENING,SCREENING,2024-01-20,-21
EMPEROR-HFPEF,PE,EMPEROR-HFPEF-SITE003-0006,11,ABDOMEN,ABDOMEN,NORMAL,NORMAL,2.0,RANDOMIZATION,TREATMENT,2024-02-10,1
EMPEROR-HFPEF,PE,EMPEROR-HFPEF-SITE003-0006,12,CARDIOVA,CARDIOVASCULAR,NORMAL,NORMAL,2.0,RANDOMIZATION,TREATMENT,2024-02-10,1
EMPEROR-HFPEF,PE,EMPEROR-HFPEF-SITE003-0006,13,EARSNOSE,"EARS, NOSE, AND THROAT",NORMAL,NORMAL,2.0,RANDOMIZATION,TREATMENT,2024-02-10,1
EMPEROR-HFPEF,PE,EMPEROR-HFPEF-SITE003-0006,14,EYES,EYES,NORMAL,NORMAL,2.0,RANDOMIZATION,TREATMENT,2024-02-10,1
EMPEROR-HFPEF,PE,EMPEROR-HFPEF-SITE003-0006,15,GENERALA,GENERAL APPEARANCE,NORMAL,NORMAL,2.0,RANDOMIZATION,TREATMENT,2024-02-10,1
EMPEROR-HFPEF,PE,EMPEROR-HFPEF-SITE003-0006,16,HEADANDN,HEAD AND NECK,NORMAL,NORMAL,2.0,RANDOMIZATION,TREATMENT,2024-02-10,1
EMPEROR-HFPEF,PE,EMPEROR-HFPEF-SITE003-0006,17,MUSCULOS,MUSCULOSKELETAL,NORMAL,NORMAL,2.0,RANDOMIZATION,TREATMENT,2024-02-10,1
EMPEROR-HFPEF,PE,EMPEROR-HFPEF-SITE003-0006,18,NEUROLOG,NEUROLOGICAL,NORMAL,NORMAL,2.0,RANDOMIZATION,TREATMENT,2024-02-10,1
EMPEROR-HFPEF,PE,EMPEROR-HFPEF-SITE003-0006,19,RESPIRAT,RESPIRATORY,NORMAL,NORMAL,2.0,RANDOMIZATION,TREATMENT,2024-02-10,1
EMPEROR-HFPEF,PE,EMPEROR-HFPEF-SITE003-0006,20,SKIN,SKIN,NORMAL,NORMAL,2.0,RANDOMIZATION,TREATMENT,2024-02-10,1
EMPEROR-HFPEF,PE,EMPEROR-HFPEF-SITE003-0009,1,ABDOMEN,ABDOMEN,NORMAL,NORMAL,1.0,SCREENING,SCREENING,2024-01-17,-32
EMPEROR-HFPEF,PE,EMPEROR-HFPEF-SITE003-0009,2,CARDIOVA,CARDIOVASCULAR,NORMAL,NORMAL,1.0,SCREENING,SCREENING,2024-01-17,-32
EMPEROR-HFPEF,PE,EMPEROR-HFPEF-SITE003-0009,3,EARSNOSE,"EARS, NOSE, AND THROAT",NORMAL,NORMAL,1.0,SCREENING,SCREENING,2024-01-17,-32
EMPEROR-HFPEF,PE,EMPEROR-HFPEF-SITE003-0009,4,EYES,EYES,NORMAL,NORMAL,1.0,SCREENING,SCREENING,2024-01-17,-32
EMPEROR-HFPEF,PE,EMPEROR-HFPEF-SITE003-0009,5,GENERALA,GENERAL APPEARANCE,NORMAL,NORMAL,1.0,SCREENING,SCREENING,2024-01-17,-32
EMPEROR-HFPEF,PE,EMPEROR-HFPEF-SITE003-0009,6,HEADANDN,HEAD AND NECK,NORMAL,NORMAL,1.0,SCREENING,SCREENING,2024-01-17,-32
EMPEROR-HFPEF,PE,EMPEROR-HFPEF-SITE003-0009,7,MUSCULOS,MUSCULOSKELETAL,NORMAL,NORMAL,1.0,SCREENING,SCREENING,2024-01-17,-32
EMPEROR-HFPEF,PE,EMPEROR-HFPEF-SITE003-0009,8,NEUROLOG,NEUROLOGICAL,NORMAL,NORMAL,1.0,SCREENING,SCREENING,2024-01-17,-32
EMPEROR-HFPEF,PE,EMPEROR-HFPEF-SITE003-0009,9,RESPIRAT,RESPIRATORY,NORMAL,NORMAL,1.0,SCREENING,SCREENING,2024-01-17,-32
EMPEROR-HFPEF,PE,EMPEROR-HFPEF-SITE003-0009,10,SKIN,SKIN,NORMAL,NORMAL,1.0,SCREENING,SCREENING,2024-01-17,-32
EMPEROR-HFPEF,PE,EMPEROR-HFPEF-SITE003-0009,11,ABDOMEN,ABDOMEN,NORMAL,NORMAL,2.0,RANDOMIZATION,TREATMENT,2024-02-18,1
EMPEROR-HFPEF,PE,EMPEROR-HFPEF-SITE003-0009,12,CARDIOVA,CARDIOVASCULAR,NORMAL,NORMAL,2.0,RANDOMIZATION,TREATMENT,2024-02-18,1
EMPEROR-HFPEF,PE,EMPEROR-HFPEF-SITE003-0009,13,EARSNOSE,"EARS, NOSE, AND THROAT",NORMAL,NORMAL,2.0,RANDOMIZATION,TREATMENT,2024-02-18,1
EMPEROR-HFPEF,PE,EMPEROR-HFPEF-SITE003-0009,14,EYES,EYES,NORMAL,NORMAL,2.0,RANDOMIZATION,TREATMENT,2024-02-18,1
EMPEROR-HFPEF,PE,EMPEROR-HFPEF-SITE003-0009,15,GENERALA,GENERAL APPEARANCE,NORMAL,NORMAL,2.0,RANDOMIZATION,TREATMENT,2024-02-18,1
EMPEROR-HFPEF,PE,EMPEROR-HFPEF-SITE003-0009,16,HEADANDN,HEAD AND NECK,NORMAL,NORMAL,2.0,RANDOMIZATION,TREATMENT,2024-02-18,1
EMPEROR-HFPEF,PE,EMPEROR-HFPEF-SITE003-0009,17,MUSCULOS,MUSCULOSKELETAL,NORMAL,NORMAL,2.0,RANDOMIZATION,TREATMENT,2024-02-18,1
EMPEROR-HFPEF,PE,EMPEROR-HFPEF-SITE003-0009,18,NEUROLOG,NEUROLOGICAL,NORMAL,NORMAL,2.0,RANDOMIZATION,TREATMENT,2024-02-18,1
EMPEROR-HFPEF,PE,EMPEROR-HFPEF-SITE003-0009,19,RESPIRAT,RESPIRATORY,NORMAL,NORMAL,2.0,RANDOMIZATION,TREATMENT,2024-02-18,1
EMPEROR-HFPEF,PE,EMPEROR-HFPEF-SITE003-0009,20,SKIN,SKIN,NORMAL,NORMAL,2.0,RANDOMIZATION,TREATMENT,2024-02-18,1
EMPEROR-HFPEF,PE,EMPEROR-HFPEF-SITE003-0012,1,ABDOMEN,ABDOMEN,HEPATOMEGALY,HEPATOMEGALY,1.0,SCREENING,SCREENING,2024-01-20,-21
EMPEROR-HFPEF,PE,EMPEROR-HFPEF-SITE003-0012,2,CARDIOVA,CARDIOVASCULAR,NORMAL,NORMAL,1.0,SCREENING,SCREENING,2024-01-20,-21
EMPEROR-HFPEF,PE,EMPEROR-HFPEF-SITE003-0012,3,EARSNOSE,"EARS, NOSE, AND THROAT",NORMAL,NORMAL,1.0,SCREENING,SCREENING,2024-01-20,-21
EMPEROR-HFPEF,PE,EMPEROR-HFPEF-SITE003-0012,4,EYES,EYES,NORMAL,NORMAL,1.0,SCREENING,SCREENING,2024-01-20,-21
EMPEROR-HFPEF,PE,EMPEROR-HFPEF-SITE003-0012,5,GENERALA,GENERAL APPEARANCE,NORMAL,NORMAL,1.0,SCREENING,SCREENING,2024-01-20,-21
EMPEROR-HFPEF,PE,EMPEROR-HFPEF-SITE003-0012,6,HEADANDN,HEAD AND NECK,NORMAL,NORMAL,1.0,SCREENING,SCREENING,2024-01-20,-21
EMPEROR-HFPEF,PE,EMPEROR-HFPEF-SITE003-0012,7,MUSCULOS,MUSCULOSKELETAL,NORMAL,NORMAL,1.0,SCREENING,SCREENING,2024-01-20,-21
EMPEROR-HFPEF,PE,EMPEROR-HFPEF-SITE003-0012,8,NEUROLOG,NEUROLOGICAL,NORMAL,NORMAL,1.0,SCREENING,SCREENING,2024-01-20,-21
EMPEROR-HFPEF,PE,EMPEROR-HFPEF-SITE003-0012,9,RESPIRAT,RESPIRATORY,NORMAL,NORMAL,1.0,SCREENING,SCREENING,2024-01-20,-21
EMPEROR-HFPEF,PE,EMPEROR-HFPEF-SITE003-0012,10,SKIN,SKIN,NORMAL,NORMAL,1.0,SCREENING,SCREENING,2024-01-20,-21
EMPEROR-HFPEF,PE,EMPEROR-HFPEF-SITE003-0012,11,ABDOMEN,ABDOMEN,NORMAL,NORMAL,2.0,RANDOMIZATION,TREATMENT,2024-02-10,1
EMPEROR-HFPEF,PE,EMPEROR-HFPEF-SITE003-0012,12,CARDIOVA,CARDIOVASCULAR,NORMAL,NORMAL,2.0,RANDOMIZATION,TREATMENT,2024-02-10,1
EMPEROR-HFPEF,PE,EMPEROR-HFPEF-SITE003-0012,13,EARSNOSE,"EARS, NOSE, AND THROAT",NORMAL,NORMAL,2.0,RANDOMIZATION,TREATMENT,2024-02-10,1
EMPEROR-HFPEF,PE,EMPEROR-HFPEF-SITE003-0012,14,EYES,EYES,NORMAL,NORMAL,2.0,RANDOMIZATION,TREATMENT,2024-02-10,1
EMPEROR-HFPEF,PE,EMPEROR-HFPEF-SITE003-0012,15,GENERALA,GENERAL APPEARANCE,NORMAL,NORMAL,2.0,RANDOMIZATION,TREATMENT,2024-02-10,1
EMPEROR-HFPEF,PE,EMPEROR-HFPEF-SITE003-0012,16,HEADANDN,HEAD AND NECK,NORMAL,NORMAL,2.0,RANDOMIZATION,TREATMENT,2024-02-10,1
EMPEROR-HFPEF,PE,EMPEROR-HFPEF-SITE003-0012,17,MUSCULOS,MUSCULOSKELETAL,NORMAL,NORMAL,2.0,RANDOMIZATION,TREATMENT,2024-02-10,1
EMPEROR-HFPEF,PE,EMPEROR-HFPEF-SITE003-0012,18,NEUROLOG,NEUROLOGICAL,NORMAL,NORMAL,2.0,RANDOMIZATION,TREATMENT,2024-02-10,1
EMPEROR-HFPEF,PE,EMPEROR-HFPEF-SITE003-0012,19,RESPIRAT,RESPIRATORY,NORMAL,NORMAL,2.0,RANDOMIZATION,TREATMENT,2024-02-10,1
EMPEROR-HFPEF,PE,EMPEROR-HFPEF-SITE003-0012,20,SKIN,SKIN,NORMAL,NORMAL,2.0,RANDOMIZATION,TREATMENT,2024-02-10,1
EMPEROR-HFPEF,PE,EMPEROR-HFPEF-SITE003-0015,1,ABDOMEN,ABDOMEN,NORMAL,NORMAL,1.0,SCREENING,SCREENING,2024-03-30,-15
EMPEROR-HFPEF,PE,EMPEROR-HFPEF-SITE003-0015,2,CARDIOVA,CARDIOVASCULAR,NORMAL,NORMAL,1.0,SCREENING,SCREENING,2024-03-30,-15
EMPEROR-HFPEF,PE,EMPEROR-HFPEF-SITE003-0015,3,EARSNOSE,"EARS, NOSE, AND THROAT",NORMAL,NORMAL,1.0,SCREENING,SCREENING,2024-03-30,-15
EMPEROR-HFPEF,PE,EMPEROR-HFPEF-SITE003-0015,4,EYES,EYES,NORMAL,NORMAL,1.0,SCREENING,SCREENING,2024-03-30,-15
EMPEROR-HFPEF,PE,EMPEROR-HFPEF-SITE003-0015,5,GENERALA,GENERAL APPEARANCE,NORMAL,NORMAL,1.0,SCREENING,SCREENING,2024-03-30,-15
EMPEROR-HFPEF,PE,EMPEROR-HFPEF-SITE003-0015,6,HEADANDN,HEAD AND NECK,NORMAL,NORMAL,1.0,SCREENING,SCREENING,2024-03-30,-15
EMPEROR-HFPEF,PE,EMPEROR-HFPEF-SITE003-0015,7,MUSCULOS,MUSCULOSKELETAL,NORMAL,NORMAL,1.0,SCREENING,SCREENING,2024-03-30,-15
EMPEROR-HFPEF,PE,EMPEROR-HFPEF-SITE003-0015,8,NEUROLOG,NEUROLOGICAL,NORMAL,NORMAL,1.0,SCREENING,SCREENING,2024-03-30,-15
EMPEROR-HFPEF,PE,EMPEROR-HFPEF-SITE003-0015,9,RESPIRAT,RESPIRATORY,NORMAL,NORMAL,1.0,SCREENING,SCREENING,2024-03-30,-15
EMPEROR-HFPEF,PE,EMPEROR-HFPEF-SITE003-0015,10,SKIN,SKIN,NORMAL,NORMAL,1.0,SCREENING,SCREENING,2024-03-30,-15
EMPEROR-HFPEF,PE,EMPEROR-HFPEF-SITE003-0015,11,ABDOMEN,ABDOMEN,NORMAL,NORMAL,2.0,RANDOMIZATION,TREATMENT,2024-04-14,1
EMPEROR-HFPEF,PE,EMPEROR-HFPEF-SITE003-0015,12,CARDIOVA,CARDIOVASCULAR,NORMAL,NORMAL,2.0,RANDOMIZATION,TREATMENT,2024-04-14,1
EMPEROR-HFPEF,PE,EMPEROR-HFPEF-SITE003-0015,13,EARSNOSE,"EARS, NOSE, AND THROAT",NORMAL,NORMAL,2.0,RANDOMIZATION,TREATMENT,2024-04-14,1
EMPEROR-HFPEF,PE,EMPEROR-HFPEF-SITE003-0015,14,EYES,EYES,NORMAL,NORMAL,2.0,RANDOMIZATION,TREATMENT,2024-04-14,1
EMPEROR-HFPEF,PE,EMPEROR-HFPEF-SITE003-0015,15,GENERALA,GENERAL APPEARANCE,NORMAL,NORMAL,2.0,RANDOMIZATION,TREATMENT,2024-04-14,1
EMPEROR-HFPEF,PE,EMPEROR-HFPEF-SITE003-0015,16,HEADANDN,HEAD AND NECK,NORMAL,NORMAL,2.0,RANDOMIZATION,TREATMENT,2024-04-14,1
EMPEROR-HFPEF,PE,EMPEROR-HFPEF-SITE003-0015,17,MUSCULOS,MUSCULOSKELETAL,NORMAL,NORMAL,2.0,RANDOMIZATION,TREATMENT,2024-04-14,1
EMPEROR-HFPEF,PE,EMPEROR-HFPEF-SITE003-0015,18,NEUROLOG,NEUROLOGICAL,DECREASED SENSATION,DECREASED SENSATION,2.0,RANDOMIZATION,TREATMENT,2024-04-14,1
EMPEROR-HFPEF,PE,EMPEROR-HFPEF-SITE003-0015,19,RESPIRAT,RESPIRATORY,NORMAL,NORMAL,2.0,RANDOMIZATION,TREATMENT,2024-04-14,1
EMPEROR-HFPEF,PE,EMPEROR-HFPEF-SITE003-0015,20,SKIN,SKIN,NORMAL,NORMAL,2.0,RANDOMIZATION,TREATMENT,2024-04-14,1
EMPEROR-HFPEF,PE,EMPEROR-HFPEF-SITE003-0018,1,ABDOMEN,ABDOMEN,NORMAL,NORMAL,1.0,SCREENING,SCREENING,2024-01-27,-20
EMPEROR-HFPEF,PE,EMPEROR-HFPEF-SITE003-0018,2,CARDIOVA,CARDIOVASCULAR,NORMAL,NORMAL,1.0,SCREENING,SCREENING,2024-01-27,-20
EMPEROR-HFPEF,PE,EMPEROR-HFPEF-SITE003-0018,3,EARSNOSE,"EARS, NOSE, AND THROAT",NORMAL,NORMAL,1.0,SCREENING,SCREENING,2024-01-27,-20
EMPEROR-HFPEF,PE,EMPEROR-HFPEF-SITE003-0018,4,EYES,EYES,NORMAL,NORMAL,1.0,SCREENING,SCREENING,2024-01-27,-20
EMPEROR-HFPEF,PE,EMPEROR-HFPEF-SITE003-0018,5,GENERALA,GENERAL APPEARANCE,NORMAL,NORMAL,1.0,SCREENING,SCREENING,2024-01-27,-20
EMPEROR-HFPEF,PE,EMPEROR-HFPEF-SITE003-0018,6,HEADANDN,HEAD AND NECK,NORMAL,NORMAL,1.0,SCREENING,SCREENING,2024-01-27,-20
EMPEROR-HFPEF,PE,EMPEROR-HFPEF-SITE003-0018,7,MUSCULOS,MUSCULOSKELETAL,NORMAL,NORMAL,1.0,SCREENING,SCREENING,2024-01-27,-20
EMPEROR-HFPEF,PE,EMPEROR-HFPEF-SITE003-0018,8,NEUROLOG,NEUROLOGICAL,NORMAL,NORMAL,1.0,SCREENING,SCREENING,2024-01-27,-20
EMPEROR-HFPEF,PE,EMPEROR-HFPEF-SITE003-0018,9,RESPIRAT,RESPIRATORY,NORMAL,NORMAL,1.0,SCREENING,SCREENING,2024-01-27,-20
EMPEROR-HFPEF,PE,EMPEROR-HFPEF-SITE003-0018,10,SKIN,SKIN,NORMAL,NORMAL,1.0,SCREENING,SCREENING,2024-01-27,-20
EMPEROR-HFPEF,PE,EMPEROR-HFPEF-SITE003-0018,11,ABDOMEN,ABDOMEN,NORMAL,NORMAL,2.0,RANDOMIZATION,TREATMENT,2024-02-16,1
EMPEROR-HFPEF,PE,EMPEROR-HFPEF-SITE003-0018,12,CARDIOVA,CARDIOVASCULAR,NORMAL,NORMAL,2.0,RANDOMIZATION,TREATMENT,2024-02-16,1
EMPEROR-HFPEF,PE,EMPEROR-HFPEF-SITE003-0018,13,EARSNOSE,"EARS, NOSE, AND THROAT",NORMAL,NORMAL,2.0,RANDOMIZATION,TREATMENT,2024-02-16,1
EMPEROR-HFPEF,PE,EMPEROR-HFPEF-SITE003-0018,14,EYES,EYES,NORMAL,NORMAL,2.0,RANDOMIZATION,TREATMENT,2024-02-16,1
EMPEROR-HFPEF,PE,EMPEROR-HFPEF-SITE003-0018,15,GENERALA,GENERAL APPEARANCE,NORMAL,NORMAL,2.0,RANDOMIZATION,TREATMENT,2024-02-16,1
EMPEROR-HFPEF,PE,EMPEROR-HFPEF-SITE003-0018,16,HEADANDN,HEAD AND NECK,NORMAL,NORMAL,2.0,RANDOMIZATION,TREATMENT,2024-02-16,1
EMPEROR-HFPEF,PE,EMPEROR-HFPEF-SITE003-0018,17,MUSCULOS,MUSCULOSKELETAL,NORMAL,NORMAL,2.0,RANDOMIZATION,TREATMENT,2024-02-16,1
EMPEROR-HFPEF,PE,EMPEROR-HFPEF-SITE003-0018,18,NEUROLOG,NEUROLOGICAL,NORMAL,NORMAL,2.0,RANDOMIZATION,TREATMENT,2024-02-16,1
EMPEROR-HFPEF,PE,EMPEROR-HFPEF-SITE003-0018,19,RESPIRAT,RESPIRATORY,NORMAL,NORMAL,2.0,RANDOMIZATION,TREATMENT,2024-02-16,1
EMPEROR-HFPEF,PE,EMPEROR-HFPEF-SITE003-0018,20,SKIN,SKIN,NORMAL,NORMAL,2.0,RANDOMIZATION,TREATMENT,2024-02-16,1
EMPEROR-HFPEF,PE,EMPEROR-HFPEF-SITE003-0021,1,ABDOMEN,ABDOMEN,NORMAL,NORMAL,1.0,SCREENING,SCREENING,2024-02-26,-32
EMPEROR-HFPEF,PE,EMPEROR-HFPEF-SITE003-0021,2,CARDIOVA,CARDIOVASCULAR,NORMAL,NORMAL,1.0,SCREENING,SCREENING,2024-02-26,-32
EMPEROR-HFPEF,PE,EMPEROR-HFPEF-SITE003-0021,3,EARSNOSE,"EARS, NOSE, AND THROAT",NORMAL,NORMAL,1.0,SCREENING,SCREENING,2024-02-26,-32
EMPEROR-HFPEF,PE,EMPEROR-HFPEF-SITE003-0021,4,EYES,EYES,NORMAL,NORMAL,1.0,SCREENING,SCREENING,2024-02-26,-32
EMPEROR-HFPEF,PE,EMPEROR-HFPEF-SITE003-0021,5,GENERALA,GENERAL APPEARANCE,NORMAL,NORMAL,1.0,SCREENING,SCREENING,2024-02-26,-32
EMPEROR-HFPEF,PE,EMPEROR-HFPEF-SITE003-0021,6,HEADANDN,HEAD AND NECK,NORMAL,NORMAL,1.0,SCREENING,SCREENING,2024-02-26,-32
EMPEROR-HFPEF,PE,EMPEROR-HFPEF-SITE003-0021,7,MUSCULOS,MUSCULOSKELETAL,NORMAL,NORMAL,1.0,SCREENING,SCREENING,2024-02-26,-32
EMPEROR-HFPEF,PE,EMPEROR-HFPEF-SITE003-0021,8,NEUROLOG,NEUROLOGICAL,NORMAL,NORMAL,1.0,SCREENING,SCREENING,2024-02-26,-32
EMPEROR-HFPEF,PE,EMPEROR-HFPEF-SITE003-0021,9,RESPIRAT,RESPIRATORY,NORMAL,NORMAL,1.0,SCREENING,SCREENING,2024-02-26,-32
EMPEROR-HFPEF,PE,EMPEROR-HFPEF-SITE003-0021,10,SKIN,SKIN,NORMAL,NORMAL,1.0,SCREENING,SCREENING,2024-02-26,-32
EMPEROR-HFPEF,PE,EMPEROR-HFPEF-SITE003-0021,11,ABDOMEN,ABDOMEN,NORMAL,NORMAL,2.0,RANDOMIZATION,TREATMENT,2024-03-29,1
EMPEROR-HFPEF,PE,EMPEROR-HFPEF-SITE003-0021,12,CARDIOVA,CARDIOVASCULAR,NORMAL,NORMAL,2.0,RANDOMIZATION,TREATMENT,2024-03-29,1
EMPEROR-HFPEF,PE,EMPEROR-HFPEF-SITE003-0021,13,EARSNOSE,"EARS, NOSE, AND THROAT",NORMAL,NORMAL,2.0,RANDOMIZATION,TREATMENT,2024-03-29,1
EMPEROR-HFPEF,PE,EMPEROR-HFPEF-SITE003-0021,14,EYES,EYES,NORMAL,NORMAL,2.0,RANDOMIZATION,TREATMENT,2024-03-29,1
EMPEROR-HFPEF,PE,EMPEROR-HFPEF-SITE003-0021,15,GENERALA,GENERAL APPEARANCE,NORMAL,NORMAL,2.0,RANDOMIZATION,TREATMENT,2024-03-29,1
EMPEROR-HFPEF,PE,EMPEROR-HFPEF-SITE003-0021,16,HEADANDN,HEAD AND NECK,NORMAL,NORMAL,2.0,RANDOMIZATION,TREATMENT,2024-03-29,1
EMPEROR-HFPEF,PE,EMPEROR-HFPEF-SITE003-0021,17,MUSCULOS,MUSCULOSKELETAL,JOINT TENDERNESS,JOINT TENDERNESS,2.0,RANDOMIZATION,TREATMENT,2024-03-29,1
EMPEROR-HFPEF,PE,EMPEROR-HFPEF-SITE003-0021,18,NEUROLOG,NEUROLOGICAL,NORMAL,NORMAL,2.0,RANDOMIZATION,TREATMENT,2024-03-29,1
EMPEROR-HFPEF,PE,EMPEROR-HFPEF-SITE003-0021,19,RESPIRAT,RESPIRATORY,NORMAL,NORMAL,2.0,RANDOMIZATION,TREATMENT,2024-03-29,1
EMPEROR-HFPEF,PE,EMPEROR-HFPEF-SITE003-0021,20,SKIN,SKIN,NORMAL,NORMAL,2.0,RANDOMIZATION,TREATMENT,2024-03-29,1
EMPEROR-HFPEF,PE,EMPEROR-HFPEF-SITE003-0024,1,ABDOMEN,ABDOMEN,NORMAL,NORMAL,1.0,SCREENING,SCREENING,2024-01-30,-18
EMPEROR-HFPEF,PE,EMPEROR-HFPEF-SITE003-0024,2,CARDIOVA,CARDIOVASCULAR,NORMAL,NORMAL,1.0,SCREENING,SCREENING,2024-01-30,-18
EMPEROR-HFPEF,PE,EMPEROR-HFPEF-SITE003-0024,3,EARSNOSE,"EARS, NOSE, AND THROAT",NORMAL,NORMAL,1.0,SCREENING,SCREENING,2024-01-30,-18
EMPEROR-HFPEF,PE,EMPEROR-HFPEF-SITE003-0024,4,EYES,EYES,NORMAL,NORMAL,1.0,SCREENING,SCREENING,2024-01-30,-18
EMPEROR-HFPEF,PE,EMPEROR-HFPEF-SITE003-0024,5,GENERALA,GENERAL APPEARANCE,NORMAL,NORMAL,1.0,SCREENING,SCREENING,2024-01-30,-18
EMPEROR-HFPEF,PE,EMPEROR-HFPEF-SITE003-0024,6,HEADANDN,HEAD AND NECK,NORMAL,NORMAL,1.0,SCREENING,SCREENING,2024-01-30,-18
EMPEROR-HFPEF,PE,EMPEROR-HFPEF-SITE003-0024,7,MUSCULOS,MUSCULOSKELETAL,NORMAL,NORMAL,1.0,SCREENING,SCREENING,2024-01-30,-18
EMPEROR-HFPEF,PE,EMPEROR-HFPEF-SITE003-0024,8,NEUROLOG,NEUROLOGICAL,NORMAL,NORMAL,1.0,SCREENING,SCREENING,2024-01-30,-18
EMPEROR-HFPEF,PE,EMPEROR-HFPEF-SITE003-0024,9,RESPIRAT,RESPIRATORY,NORMAL,NORMAL,1.0,SCREENING,SCREENING,2024-01-30,-18
EMPEROR-HFPEF,PE,EMPEROR-HFPEF-SITE003-0024,10,SKIN,SKIN,NORMAL,NORMAL,1.0,SCREENING,SCREENING,2024-01-30,-18
EMPEROR-HFPEF,PE,EMPEROR-HFPEF-SITE003-0024,11,ABDOMEN,ABDOMEN,NORMAL,NORMAL,2.0,RANDOMIZATION,TREATMENT,2024-02-17,1
EMPEROR-HFPEF,PE,EMPEROR-HFPEF-SITE003-0024,12,CARDIOVA,CARDIOVASCULAR,NORMAL,NORMAL,2.0,RANDOMIZATION,TREATMENT,2024-02-17,1
EMPEROR-HFPEF,PE,EMPEROR-HFPEF-SITE003-0024,13,EARSNOSE,"EARS, NOSE, AND THROAT",NORMAL,NORMAL,2.0,RANDOMIZATION,TREATMENT,2024-02-17,1
EMPEROR-HFPEF,PE,EMPEROR-HFPEF-SITE003-0024,14,EYES,EYES,NORMAL,NORMAL,2.0,RANDOMIZATION,TREATMENT,2024-02-17,1
EMPEROR-HFPEF,PE,EMPEROR-HFPEF-SITE003-0024,15,GENERALA,GENERAL APPEARANCE,NORMAL,NORMAL,2.0,RANDOMIZATION,TREATMENT,2024-02-17,1
EMPEROR-HFPEF,PE,EMPEROR-HFPEF-SITE003-0024,16,HEADANDN,HEAD AND NECK,NORMAL,NORMAL,2.0,RANDOMIZATION,TREATMENT,2024-02-17,1
EMPEROR-HFPEF,PE,EMPEROR-HFPEF-SITE003-0024,17,MUSCULOS,MUSCULOSKELETAL,NORMAL,NORMAL,2.0,RANDOMIZATION,TREATMENT,2024-02-17,1
EMPEROR-HFPEF,PE,EMPEROR-HFPEF-SITE003-0024,18,NEUROLOG,NEUROLOGICAL,NORMAL,NORMAL,2.0,RANDOMIZATION,TREATMENT,2024-02-17,1
EMPEROR-HFPEF,PE,EMPEROR-HFPEF-SITE003-0024,19,RESPIRAT,RESPIRATORY,WHEEZING,WHEEZING,2.0,RANDOMIZATION,TREATMENT,2024-02-17,1
EMPEROR-HFPEF,PE,EMPEROR-HFPEF-SITE003-0024,20,SKIN,SKIN,NORMAL,NORMAL,2.0,RANDOMIZATION,TREATMENT,2024-02-17,1
EMPEROR-HFPEF,PE,EMPEROR-HFPEF-SITE003-0027,1,ABDOMEN,ABDOMEN,NORMAL,NORMAL,1.0,SCREENING,SCREENING,2024-02-28,-8
EMPEROR-HFPEF,PE,EMPEROR-HFPEF-SITE003-0027,2,CARDIOVA,CARDIOVASCULAR,NORMAL,NORMAL,1.0,SCREENING,SCREENING,2024-02-28,-8
EMPEROR-HFPEF,PE,EMPEROR-HFPEF-SITE003-0027,3,EARSNOSE,"EARS, NOSE, AND THROAT",NORMAL,NORMAL,1.0,SCREENING,SCREENING,2024-02-28,-8
EMPEROR-HFPEF,PE,EMPEROR-HFPEF-SITE003-0027,4,EYES,EYES,NORMAL,NORMAL,1.0,SCREENING,SCREENING,2024-02-28,-8
EMPEROR-HFPEF,PE,EMPEROR-HFPEF-SITE003-0027,5,GENERALA,GENERAL APPEARANCE,NORMAL,NORMAL,1.0,SCREENING,SCREENING,2024-02-28,-8
EMPEROR-HFPEF,PE,EMPEROR-HFPEF-SITE003-0027,6,HEADANDN,HEAD AND NECK,NORMAL,NORMAL,1.0,SCREENING,SCREENING,2024-02-28,-8
EMPEROR-HFPEF,PE,EMPEROR-HFPEF-SITE003-0027,7,MUSCULOS,MUSCULOSKELETAL,NORMAL,NORMAL,1.0,SCREENING,SCREENING,2024-02-28,-8
EMPEROR-HFPEF,PE,EMPEROR-HFPEF-SITE003-0027,8,NEUROLOG,NEUROLOGICAL,NORMAL,NORMAL,1.0,SCREENING,SCREENING,2024-02-28,-8
EMPEROR-HFPEF,PE,EMPEROR-HFPEF-SITE003-0027,9,RESPIRAT,RESPIRATORY,NORMAL,NORMAL,1.0,SCREENING,SCREENING,2024-02-28,-8
EMPEROR-HFPEF,PE,EMPEROR-HFPEF-SITE003-0027,10,SKIN,SKIN,NORMAL,NORMAL,1.0,SCREENING,SCREENING,2024-02-28,-8
EMPEROR-HFPEF,PE,EMPEROR-HFPEF-SITE003-0027,11,ABDOMEN,ABDOMEN,NORMAL,NORMAL,2.0,RANDOMIZATION,TREATMENT,2024-03-07,1
EMPEROR-HFPEF,PE,EMPEROR-HFPEF-SITE003-0027,12,CARDIOVA,CARDIOVASCULAR,NORMAL,NORMAL,2.0,RANDOMIZATION,TREATMENT,2024-03-07,1
EMPEROR-HFPEF,PE,EMPEROR-HFPEF-SITE003-0027,13,EARSNOSE,"EARS, NOSE, AND THROAT",NORMAL,NORMAL,2.0,RANDOMIZATION,TREATMENT,2024-03-07,1
EMPEROR-HFPEF,PE,EMPEROR-HFPEF-SITE003-0027,14,EYES,EYES,NORMAL,NORMAL,2.0,RANDOMIZATION,TREATMENT,2024-03-07,1
EMPEROR-HFPEF,PE,EMPEROR-HFPEF-SITE003-0027,15,GENERALA,GENERAL APPEARANCE,NORMAL,NORMAL,2.0,RANDOMIZATION,TREATMENT,2024-03-07,1
EMPEROR-HFPEF,PE,EMPEROR-HFPEF-SITE003-0027,16,HEADANDN,HEAD AND NECK,NORMAL,NORMAL,2.0,RANDOMIZATION,TREATMENT,2024-03-07,1
EMPEROR-HFPEF,PE,EMPEROR-HFPEF-SITE003-0027,17,MUSCULOS,MUSCULOSKELETAL,NORMAL,NORMAL,2.0,RANDOMIZATION,TREATMENT,2024-03-07,1
EMPEROR-HFPEF,PE,EMPEROR-HFPEF-SITE003-0027,18,NEUROLOG,NEUROLOGICAL,NORMAL,NORMAL,2.0,RANDOMIZATION,TREATMENT,2024-03-07,1
EMPEROR-HFPEF,PE,EMPEROR-HFPEF-SITE003-0027,19,RESPIRAT,RESPIRATORY,NORMAL,NORMAL,2.0,RANDOMIZATION,TREATMENT,2024-03-07,1
EMPEROR-HFPEF,PE,EMPEROR-HFPEF-SITE003-0027,20,SKIN,SKIN,DRY SKIN,DRY SKIN,2.0,RANDOMIZATION,TREATMENT,2024-03-07,1
EMPEROR-HFPEF,PE,EMPEROR-HFPEF-SITE003-0030,1,ABDOMEN,ABDOMEN,NORMAL,NORMAL,1.0,SCREENING,SCREENING,2024-02-16,-25
EMPEROR-HFPEF,PE,EMPEROR-HFPEF-SITE003-0030,2,CARDIOVA,CARDIOVASCULAR,NORMAL,NORMAL,1.0,SCREENING,SCREENING,2024-02-16,-25
EMPEROR-HFPEF,PE,EMPEROR-HFPEF-SITE003-0030,3,EARSNOSE,"EARS, NOSE, AND THROAT",NORMAL,NORMAL,1.0,SCREENING,SCREENING,2024-02-16,-25
EMPEROR-HFPEF,PE,EMPEROR-HFPEF-SITE003-0030,4,EYES,EYES,NORMAL,NORMAL,1.0,SCREENING,SCREENING,2024-02-16,-25
EMPEROR-HFPEF,PE,EMPEROR-HFPEF-SITE003-0030,5,GENERALA,GENERAL APPEARANCE,NORMAL,NORMAL,1.0,SCREENING,SCREENING,2024-02-16,-25
EMPEROR-HFPEF,PE,EMPEROR-HFPEF-SITE003-0030,6,HEADANDN,HEAD AND NECK,NORMAL,NORMAL,1.0,SCREENING,SCREENING,2024-02-16,-25
EMPEROR-HFPEF,PE,EMPEROR-HFPEF-SITE003-0030,7,MUSCULOS,MUSCULOSKELETAL,NORMAL,NORMAL,1.0,SCREENING,SCREENING,2024-02-16,-25
EMPEROR-HFPEF,PE,EMPEROR-HFPEF-SITE003-0030,8,NEUROLOG,NEUROLOGICAL,NORMAL,NORMAL,1.0,SCREENING,SCREENING,2024-02-16,-25
EMPEROR-HFPEF,PE,EMPEROR-HFPEF-SITE003-0030,9,RESPIRAT,RESPIRATORY,NORMAL,NORMAL,1.0,SCREENING,SCREENING,2024-02-16,-25
EMPEROR-HFPEF,PE,EMPEROR-HFPEF-SITE003-0030,10,SKIN,SKIN,NORMAL,NORMAL,1.0,SCREENING,SCREENING,2024-02-16,-25
EMPEROR-HFPEF,PE,EMPEROR-HFPEF-SITE003-0030,11,ABDOMEN,ABDOMEN,NORMAL,NORMAL,2.0,RANDOMIZATION,TREATMENT,2024-03-12,1
EMPEROR-HFPEF,PE,EMPEROR-HFPEF-SITE003-0030,12,CARDIOVA,CARDIOVASCULAR,NORMAL,NORMAL,2.0,RANDOMIZATION,TREATMENT,2024-03-12,1
EMPEROR-HFPEF,PE,EMPEROR-HFPEF-SITE003-0030,13,EARSNOSE,"EARS, NOSE, AND THROAT",NORMAL,NORMAL,2.0,RANDOMIZATION,TREATMENT,2024-03-12,1
EMPEROR-HFPEF,PE,EMPEROR-HFPEF-SITE003-0030,14,EYES,EYES,NORMAL,NORMAL,2.0,RANDOMIZATION,TREATMENT,2024-03-12,1
EMPEROR-HFPEF,PE,EMPEROR-HFPEF-SITE003-0030,15,GENERALA,GENERAL APPEARANCE,NORMAL,NORMAL,2.0,RANDOMIZATION,TREATMENT,2024-03-12,1
EMPEROR-HFPEF,PE,EMPEROR-HFPEF-SITE003-0030,16,HEADANDN,HEAD AND NECK,NORMAL,NORMAL,2.0,RANDOMIZATION,TREATMENT,2024-03-12,1
EMPEROR-HFPEF,PE,EMPEROR-HFPEF-SITE003-0030,17,MUSCULOS,MUSCULOSKELETAL,NORMAL,NORMAL,2.0,RANDOMIZATION,TREATMENT,2024-03-12,1
EMPEROR-HFPEF,PE,EMPEROR-HFPEF-SITE003-0030,18,NEUROLOG,NEUROLOGICAL,NORMAL,NORMAL,2.0,RANDOMIZATION,TREATMENT,2024-03-12,1
EMPEROR-HFPEF,PE,EMPEROR-HFPEF-SITE003-0030,19,RESPIRAT,RESPIRATORY,WHEEZING,WHEEZING,2.0,RANDOMIZATION,TREATMENT,2024-03-12,1
EMPEROR-HFPEF,PE,EMPEROR-HFPEF-SITE003-0030,20,SKIN,SKIN,NORMAL,NORMAL,2.0,RANDOMIZATION,TREATMENT,2024-03-12,1
EMPEROR-HFPEF,PE,EMPEROR-HFPEF-SITE003-0033,1,ABDOMEN,ABDOMEN,NORMAL,NORMAL,1.0,SCREENING,SCREENING,2024-02-08,-7
EMPEROR-HFPEF,PE,EMPEROR-HFPEF-SITE003-0033,2,CARDIOVA,CARDIOVASCULAR,NORMAL,NORMAL,1.0,SCREENING,SCREENING,2024-02-08,-7
EMPEROR-HFPEF,PE,EMPEROR-HFPEF-SITE003-0033,3,EARSNOSE,"EARS, NOSE, AND THROAT",NORMAL,NORMAL,1.0,SCREENING,SCREENING,2024-02-08,-7
EMPEROR-HFPEF,PE,EMPEROR-HFPEF-SITE003-0033,4,EYES,EYES,NORMAL,NORMAL,1.0,SCREENING,SCREENING,2024-02-08,-7
EMPEROR-HFPEF,PE,EMPEROR-HFPEF-SITE003-0033,5,GENERALA,GENERAL APPEARANCE,NORMAL,NORMAL,1.0,SCREENING,SCREENING,2024-02-08,-7
EMPEROR-HFPEF,PE,EMPEROR-HFPEF-SITE003-0033,6,HEADANDN,HEAD AND NECK,NORMAL,NORMAL,1.0,SCREENING,SCREENING,2024-02-08,-7
EMPEROR-HFPEF,PE,EMPEROR-HFPEF-SITE003-0033,7,MUSCULOS,MUSCULOSKELETAL,NORMAL,NORMAL,1.0,SCREENING,SCREENING,2024-02-08,-7
EMPEROR-HFPEF,PE,EMPEROR-HFPEF-SITE003-0033,8,NEUROLOG,NEUROLOGICAL,NORMAL,NORMAL,1.0,SCREENING,SCREENING,2024-02-08,-7
EMPEROR-HFPEF,PE,EMPEROR-HFPEF-SITE003-0033,9,RESPIRAT,RESPIRATORY,NORMAL,NORMAL,1.0,SCREENING,SCREENING,2024-02-08,-7
EMPEROR-HFPEF,PE,EMPEROR-HFPEF-SITE003-0033,10,SKIN,SKIN,NORMAL,NORMAL,1.0,SCREENING,SCREENING,2024-02-08,-7
EMPEROR-HFPEF,PE,EMPEROR-HFPEF-SITE003-0033,11,ABDOMEN,ABDOMEN,NORMAL,NORMAL,2.0,RANDOMIZATION,TREATMENT,2024-02-15,1
EMPEROR-HFPEF,PE,EMPEROR-HFPEF-SITE003-0033,12,CARDIOVA,CARDIOVASCULAR,NORMAL,NORMAL,2.0,RANDOMIZATION,TREATMENT,2024-02-15,1
EMPEROR-HFPEF,PE,EMPEROR-HFPEF-SITE003-0033,13,EARSNOSE,"EARS, NOSE, AND THROAT",NORMAL,NORMAL,2.0,RANDOMIZATION,TREATMENT,2024-02-15,1
EMPEROR-HFPEF,PE,EMPEROR-HFPEF-SITE003-0033,14,EYES,EYES,NORMAL,NORMAL,2.0,RANDOMIZATION,TREATMENT,2024-02-15,1
EMPEROR-HFPEF,PE,EMPEROR-HFPEF-SITE003-0033,15,GENERALA,GENERAL APPEARANCE,NORMAL,NORMAL,2.0,RANDOMIZATION,TREATMENT,2024-02-15,1
EMPEROR-HFPEF,PE,EMPEROR-HFPEF-SITE003-0033,16,HEADANDN,HEAD AND NECK,NORMAL,NORMAL,2.0,RANDOMIZATION,TREATMENT,2024-02-15,1
EMPEROR-HFPEF,PE,EMPEROR-HFPEF-SITE003-0033,17,MUSCULOS,MUSCULOSKELETAL,NORMAL,NORMAL,2.0,RANDOMIZATION,TREATMENT,2024-02-15,1
EMPEROR-HFPEF,PE,EMPEROR-HFPEF-SITE003-0033,18,NEUROLOG,NEUROLOGICAL,NORMAL,NORMAL,2.0,RANDOMIZATION,TREATMENT,2024-02-15,1
EMPEROR-HFPEF,PE,EMPEROR-HFPEF-SITE003-0033,19,RESPIRAT,RESPIRATORY,NORMAL,NORMAL,2.0,RANDOMIZATION,TREATMENT,2024-02-15,1
EMPEROR-HFPEF,PE,EMPEROR-HFPEF-SITE003-0033,20,SKIN,SKIN,NORMAL,NORMAL,2.0,RANDOMIZATION,TREATMENT,2024-02-15,1
EMPEROR-HFPEF,PE,EMPEROR-HFPEF-SITE003-0036,1,ABDOMEN,ABDOMEN,NORMAL,NORMAL,1.0,SCREENING,SCREENING,2024-02-14,-7
EMPEROR-HFPEF,PE,EMPEROR-HFPEF-SITE003-0036,2,CARDIOVA,CARDIOVASCULAR,NORMAL,NORMAL,1.0,SCREENING,SCREENING,2024-02-14,-7
EMPEROR-HFPEF,PE,EMPEROR-HFPEF-SITE003-0036,3,EARSNOSE,"EARS, NOSE, AND THROAT",NORMAL,NORMAL,1.0,SCREENING,SCREENING,2024-02-14,-7
EMPEROR-HFPEF,PE,EMPEROR-HFPEF-SITE003-0036,4,EYES,EYES,NORMAL,NORMAL,1.0,SCREENING,SCREENING,2024-02-14,-7
EMPEROR-HFPEF,PE,EMPEROR-HFPEF-SITE003-0036,5,GENERALA,GENERAL APPEARANCE,NORMAL,NORMAL,1.0,SCREENING,SCREENING,2024-02-14,-7
EMPEROR-HFPEF,PE,EMPEROR-HFPEF-SITE003-0036,6,HEADANDN,HEAD AND NECK,NORMAL,NORMAL,1.0,SCREENING,SCREENING,2024-02-14,-7
EMPEROR-HFPEF,PE,EMPEROR-HFPEF-SITE003-0036,7,MUSCULOS,MUSCULOSKELETAL,NORMAL,NORMAL,1.0,SCREENING,SCREENING,2024-02-14,-7
EMPEROR-HFPEF,PE,EMPEROR-HFPEF-SITE003-0036,8,NEUROLOG,NEUROLOGICAL,NORMAL,NORMAL,1.0,SCREENING,SCREENING,2024-02-14,-7
EMPEROR-HFPEF,PE,EMPEROR-HFPEF-SITE003-0036,9,RESPIRAT,RESPIRATORY,NORMAL,NORMAL,1.0,SCREENING,SCREENING,2024-02-14,-7
EMPEROR-HFPEF,PE,EMPEROR-HFPEF-SITE003-0036,10,SKIN,SKIN,NORMAL,NORMAL,1.0,SCREENING,SCREENING,2024-02-14,-7
EMPEROR-HFPEF,PE,EMPEROR-HFPEF-SITE003-0036,11,ABDOMEN,ABDOMEN,NORMAL,NORMAL,2.0,RANDOMIZATION,TREATMENT,2024-02-21,1
EMPEROR-HFPEF,PE,EMPEROR-HFPEF-SITE003-0036,12,CARDIOVA,CARDIOVASCULAR,NORMAL,NORMAL,2.0,RANDOMIZATION,TREATMENT,2024-02-21,1
EMPEROR-HFPEF,PE,EMPEROR-HFPEF-SITE003-0036,13,EARSNOSE,"EARS, NOSE, AND THROAT",NORMAL,NORMAL,2.0,RANDOMIZATION,TREATMENT,2024-02-21,1
EMPEROR-HFPEF,PE,EMPEROR-HFPEF-SITE003-0036,14,EYES,EYES,NORMAL,NORMAL,2.0,RANDOMIZATION,TREATMENT,2024-02-21,1
EMPEROR-HFPEF,PE,EMPEROR-HFPEF-SITE003-0036,15,GENERALA,GENERAL APPEARANCE,NORMAL,NORMAL,2.0,RANDOMIZATION,TREATMENT,2024-02-21,1
EMPEROR-HFPEF,PE,EMPEROR-HFPEF-SITE003-0036,16,HEADANDN,HEAD AND NECK,NORMAL,NORMAL,2.0,RANDOMIZATION,TREATMENT,2024-02-21,1
EMPEROR-HFPEF,PE,EMPEROR-HFPEF-SITE003-0036,17,MUSCULOS,MUSCULOSKELETAL,NORMAL,NORMAL,2.0,RANDOMIZATION,TREATMENT,2024-02-21,1
EMPEROR-HFPEF,PE,EMPEROR-HFPEF-SITE003-0036,18,NEUROLOG,NEUROLOGICAL,NORMAL,NORMAL,2.0,RANDOMIZATION,TREATMENT,2024-02-21,1
EMPEROR-HFPEF,PE,EMPEROR-HFPEF-SITE003-0036,19,RESPIRAT,RESPIRATORY,NORMAL,NORMAL,2.0,RANDOMIZATION,TREATMENT,2024-02-21,1
EMPEROR-HFPEF,PE,EMPEROR-HFPEF-SITE003-0036,20,SKIN,SKIN,NORMAL,NORMAL,2.0,RANDOMIZATION,TREATMENT,2024-02-21,1
EMPEROR-HFPEF,PE,EMPEROR-HFPEF-SITE003-0039,1,ABDOMEN,ABDOMEN,NORMAL,NORMAL,1.0,SCREENING,SCREENING,2024-03-16,-31
EMPEROR-HFPEF,PE,EMPEROR-HFPEF-SITE003-0039,2,CARDIOVA,CARDIOVASCULAR,NORMAL,NORMAL,1.0,SCREENING,SCREENING,2024-03-16,-31
EMPEROR-HFPEF,PE,EMPEROR-HFPEF-SITE003-0039,3,EARSNOSE,"EARS, NOSE, AND THROAT",NORMAL,NORMAL,1.0,SCREENING,SCREENING,2024-03-16,-31
EMPEROR-HFPEF,PE,EMPEROR-HFPEF-SITE003-0039,4,EYES,EYES,NORMAL,NORMAL,1.0,SCREENING,SCREENING,2024-03-16,-31
EMPEROR-HFPEF,PE,EMPEROR-HFPEF-SITE003-0039,5,GENERALA,GENERAL APPEARANCE,NORMAL,NORMAL,1.0,SCREENING,SCREENING,2024-03-16,-31
EMPEROR-HFPEF,PE,EMPEROR-HFPEF-SITE003-0039,6,HEADANDN,HEAD AND NECK,NORMAL,NORMAL,1.0,SCREENING,SCREENING,2024-03-16,-31
EMPEROR-HFPEF,PE,EMPEROR-HFPEF-SITE003-0039,7,MUSCULOS,MUSCULOSKELETAL,NORMAL,NORMAL,1.0,SCREENING,SCREENING,2024-03-16,-31
EMPEROR-HFPEF,PE,EMPEROR-HFPEF-SITE003-0039,8,NEUROLOG,NEUROLOGICAL,NORMAL,NORMAL,1.0,SCREENING,SCREENING,2024-03-16,-31
EMPEROR-HFPEF,PE,EMPEROR-HFPEF-SITE003-0039,9,RESPIRAT,RESPIRATORY,NORMAL,NORMAL,1.0,SCREENING,SCREENING,2024-03-16,-31
EMPEROR-HFPEF,PE,EMPEROR-HFPEF-SITE003-0039,10,SKIN,SKIN,NORMAL,NORMAL,1.0,SCREENING,SCREENING,2024-03-16,-31
EMPEROR-HFPEF,PE,EMPEROR-HFPEF-SITE003-0039,11,ABDOMEN,ABDOMEN,NORMAL,NORMAL,2.0,RANDOMIZATION,TREATMENT,2024-04-16,1
EMPEROR-HFPEF,PE,EMPEROR-HFPEF-SITE003-0039,12,CARDIOVA,CARDIOVASCULAR,NORMAL,NORMAL,2.0,RANDOMIZATION,TREATMENT,2024-04-16,1
EMPEROR-HFPEF,PE,EMPEROR-HFPEF-SITE003-0039,13,EARSNOSE,"EARS, NOSE, AND THROAT",NORMAL,NORMAL,2.0,RANDOMIZATION,TREATMENT,2024-04-16,1
EMPEROR-HFPEF,PE,EMPEROR-HFPEF-SITE003-0039,14,EYES,EYES,NORMAL,NORMAL,2.0,RANDOMIZATION,TREATMENT,2024-04-16,1
EMPEROR-HFPEF,PE,EMPEROR-HFPEF-SITE003-0039,15,GENERALA,GENERAL APPEARANCE,NORMAL,NORMAL,2.0,RANDOMIZATION,TREATMENT,2024-04-16,1
EMPEROR-HFPEF,PE,EMPEROR-HFPEF-SITE003-0039,16,HEADANDN,HEAD AND NECK,NORMAL,NORMAL,2.0,RANDOMIZATION,TREATMENT,2024-04-16,1
EMPEROR-HFPEF,PE,EMPEROR-HFPEF-SITE003-0039,17,MUSCULOS,MUSCULOSKELETAL,NORMAL,NORMAL,2.0,RANDOMIZATION,TREATMENT,2024-04-16,1
EMPEROR-HFPEF,PE,EMPEROR-HFPEF-SITE003-0039,18,NEUROLOG,NEUROLOGICAL,NORMAL,NORMAL,2.0,RANDOMIZATION,TREATMENT,2024-04-16,1
EMPEROR-HFPEF,PE,EMPEROR-HFPEF-SITE003-0039,19,RESPIRAT,RESPIRATORY,NORMAL,NORMAL,2.0,RANDOMIZATION,TREATMENT,2024-04-16,1
EMPEROR-HFPEF,PE,EMPEROR-HFPEF-SITE003-0039,20,SKIN,SKIN,NORMAL,NORMAL,2.0,RANDOMIZATION,TREATMENT,2024-04-16,1
EMPEROR-HFPEF,PE,EMPEROR-HFPEF-SITE003-0042,1,ABDOMEN,ABDOMEN,NORMAL,NORMAL,1.0,SCREENING,SCREENING,2024-04-01,-9
EMPEROR-HFPEF,PE,EMPEROR-HFPEF-SITE003-0042,2,CARDIOVA,CARDIOVASCULAR,NORMAL,NORMAL,1.0,SCREENING,SCREENING,2024-04-01,-9
EMPEROR-HFPEF,PE,EMPEROR-HFPEF-SITE003-0042,3,EARSNOSE,"EARS, NOSE, AND THROAT",NORMAL,NORMAL,1.0,SCREENING,SCREENING,2024-04-01,-9
EMPEROR-HFPEF,PE,EMPEROR-HFPEF-SITE003-0042,4,EYES,EYES,NORMAL,NORMAL,1.0,SCREENING,SCREENING,2024-04-01,-9
EMPEROR-HFPEF,PE,EMPEROR-HFPEF-SITE003-0042,5,GENERALA,GENERAL APPEARANCE,NORMAL,NORMAL,1.0,SCREENING,SCREENING,2024-04-01,-9
EMPEROR-HFPEF,PE,EMPEROR-HFPEF-SITE003-0042,6,HEADANDN,HEAD AND NECK,NORMAL,NORMAL,1.0,SCREENING,SCREENING,2024-04-01,-9
EMPEROR-HFPEF,PE,EMPEROR-HFPEF-SITE003-0042,7,MUSCULOS,MUSCULOSKELETAL,NORMAL,NORMAL,1.0,SCREENING,SCREENING,2024-04-01,-9
EMPEROR-HFPEF,PE,EMPEROR-HFPEF-SITE003-0042,8,NEUROLOG,NEUROLOGICAL,NORMAL,NORMAL,1.0,SCREENING,SCREENING,2024-04-01,-9
EMPEROR-HFPEF,PE,EMPEROR-HFPEF-SITE003-0042,9,RESPIRAT,RESPIRATORY,NORMAL,NORMAL,1.0,SCREENING,SCREENING,2024-04-01,-9
EMPEROR-HFPEF,PE,EMPEROR-HFPEF-SITE003-0042,10,SKIN,SKIN,NORMAL,NORMAL,1.0,SCREENING,SCREENING,2024-04-01,-9
EMPEROR-HFPEF,PE,EMPEROR-HFPEF-SITE003-0042,11,ABDOMEN,ABDOMEN,NORMAL,NORMAL,2.0,RANDOMIZATION,TREATMENT,2024-04-10,1
EMPEROR-HFPEF,PE,EMPEROR-HFPEF-SITE003-0042,12,CARDIOVA,CARDIOVASCULAR,NORMAL,NORMAL,2.0,RANDOMIZATION,TREATMENT,2024-04-10,1
EMPEROR-HFPEF,PE,EMPEROR-HFPEF-SITE003-0042,13,EARSNOSE,"EARS, NOSE, AND THROAT",NORMAL,NORMAL,2.0,RANDOMIZATION,TREATMENT,2024-04-10,1
EMPEROR-HFPEF,PE,EMPEROR-HFPEF-SITE003-0042,14,EYES,EYES,NORMAL,NORMAL,2.0,RANDOMIZATION,TREATMENT,2024-04-10,1
EMPEROR-HFPEF,PE,EMPEROR-HFPEF-SITE003-0042,15,GENERALA,GENERAL APPEARANCE,NORMAL,NORMAL,2.0,RANDOMIZATION,TREATMENT,2024-04-10,1
EMPEROR-HFPEF,PE,EMPEROR-HFPEF-SITE003-0042,16,HEADANDN,HEAD AND NECK,NORMAL,NORMAL,2.0,RANDOMIZATION,TREATMENT,2024-04-10,1
EMPEROR-HFPEF,PE,EMPEROR-HFPEF-SITE003-0042,17,MUSCULOS,MUSCULOSKELETAL,NORMAL,NORMAL,2.0,RANDOMIZATION,TREATMENT,2024-04-10,1
EMPEROR-HFPEF,PE,EMPEROR-HFPEF-SITE003-0042,18,NEUROLOG,NEUROLOGICAL,NORMAL,NORMAL,2.0,RANDOMIZATION,TREATMENT,2024-04-10,1
EMPEROR-HFPEF,PE,EMPEROR-HFPEF-SITE003-0042,19,RESPIRAT,RESPIRATORY,NORMAL,NORMAL,2.0,RANDOMIZATION,TREATMENT,2024-04-10,1
EMPEROR-HFPEF,PE,EMPEROR-HFPEF-SITE003-0042,20,SKIN,SKIN,NORMAL,NORMAL,2.0,RANDOMIZATION,TREATMENT,2024-04-10,1
EMPEROR-HFPEF,PE,EMPEROR-HFPEF-SITE003-0045,1,ABDOMEN,ABDOMEN,NORMAL,NORMAL,1.0,SCREENING,SCREENING,2024-04-01,-19
EMPEROR-HFPEF,PE,EMPEROR-HFPEF-SITE003-0045,2,CARDIOVA,CARDIOVASCULAR,NORMAL,NORMAL,1.0,SCREENING,SCREENING,2024-04-01,-19
EMPEROR-HFPEF,PE,EMPEROR-HFPEF-SITE003-0045,3,EARSNOSE,"EARS, NOSE, AND THROAT",NORMAL,NORMAL,1.0,SCREENING,SCREENING,2024-04-01,-19
EMPEROR-HFPEF,PE,EMPEROR-HFPEF-SITE003-0045,4,EYES,EYES,NORMAL,NORMAL,1.0,SCREENING,SCREENING,2024-04-01,-19
EMPEROR-HFPEF,PE,EMPEROR-HFPEF-SITE003-0045,5,GENERALA,GENERAL APPEARANCE,NORMAL,NORMAL,1.0,SCREENING,SCREENING,2024-04-01,-19
EMPEROR-HFPEF,PE,EMPEROR-HFPEF-SITE003-0045,6,HEADANDN,HEAD AND NECK,NORMAL,NORMAL,1.0,SCREENING,SCREENING,2024-04-01,-19
EMPEROR-HFPEF,PE,EMPEROR-HFPEF-SITE003-0045,7,MUSCULOS,MUSCULOSKELETAL,NORMAL,NORMAL,1.0,SCREENING,SCREENING,2024-04-01,-19
EMPEROR-HFPEF,PE,EMPEROR-HFPEF-SITE003-0045,8,NEUROLOG,NEUROLOGICAL,NORMAL,NORMAL,1.0,SCREENING,SCREENING,2024-04-01,-19
EMPEROR-HFPEF,PE,EMPEROR-HFPEF-SITE003-0045,9,RESPIRAT,RESPIRATORY,NORMAL,NORMAL,1.0,SCREENING,SCREENING,2024-04-01,-19
EMPEROR-HFPEF,PE,EMPEROR-HFPEF-SITE003-0045,10,SKIN,SKIN,NORMAL,NORMAL,1.0,SCREENING,SCREENING,2024-04-01,-19
EMPEROR-HFPEF,PE,EMPEROR-HFPEF-SITE003-0045,11,ABDOMEN,ABDOMEN,NORMAL,NORMAL,2.0,RANDOMIZATION,TREATMENT,2024-04-20,1
EMPEROR-HFPEF,PE,EMPEROR-HFPEF-SITE003-0045,12,CARDIOVA,CARDIOVASCULAR,NORMAL,NORMAL,2.0,RANDOMIZATION,TREATMENT,2024-04-20,1
EMPEROR-HFPEF,PE,EMPEROR-HFPEF-SITE003-0045,13,EARSNOSE,"EARS, NOSE, AND THROAT",NORMAL,NORMAL,2.0,RANDOMIZATION,TREATMENT,2024-04-20,1
EMPEROR-HFPEF,PE,EMPEROR-HFPEF-SITE003-0045,14,EYES,EYES,NORMAL,NORMAL,2.0,RANDOMIZATION,TREATMENT,2024-04-20,1
EMPEROR-HFPEF,PE,EMPEROR-HFPEF-SITE003-0045,15,GENERALA,GENERAL APPEARANCE,NORMAL,NORMAL,2.0,RANDOMIZATION,TREATMENT,2024-04-20,1
EMPEROR-HFPEF,PE,EMPEROR-HFPEF-SITE003-0045,16,HEADANDN,HEAD AND NECK,NORMAL,NORMAL,2.0,RANDOMIZATION,TREATMENT,2024-04-20,1
EMPEROR-HFPEF,PE,EMPEROR-HFPEF-SITE003-0045,17,MUSCULOS,MUSCULOSKELETAL,NORMAL,NORMAL,2.0,RANDOMIZATION,TREATMENT,2024-04-20,1
EMPEROR-HFPEF,PE,EMPEROR-HFPEF-SITE003-0045,18,NEUROLOG,NEUROLOGICAL,TREMOR,TREMOR,2.0,RANDOMIZATION,TREATMENT,2024-04-20,1
EMPEROR-HFPEF,PE,EMPEROR-HFPEF-SITE003-0045,19,RESPIRAT,RESPIRATORY,NORMAL,NORMAL,2.0,RANDOMIZATION,TREATMENT,2024-04-20,1
EMPEROR-HFPEF,PE,EMPEROR-HFPEF-SITE003-0045,20,SKIN,SKIN,NORMAL,NORMAL,2.0,RANDOMIZATION,TREATMENT,2024-04-20,1
EMPEROR-HFPEF,PE,EMPEROR-HFPEF-SITE003-0048,1,ABDOMEN,ABDOMEN,NORMAL,NORMAL,1.0,SCREENING,SCREENING,2024-01-17,-8
EMPEROR-HFPEF,PE,EMPEROR-HFPEF-SITE003-0048,2,CARDIOVA,CARDIOVASCULAR,NORMAL,NORMAL,1.0,SCREENING,SCREENING,2024-01-17,-8
EMPEROR-HFPEF,PE,EMPEROR-HFPEF-SITE003-0048,3,EARSNOSE,"EARS, NOSE, AND THROAT",NORMAL,NORMAL,1.0,SCREENING,SCREENING,2024-01-17,-8
EMPEROR-HFPEF,PE,EMPEROR-HFPEF-SITE003-0048,4,EYES,EYES,NORMAL,NORMAL,1.0,SCREENING,SCREENING,2024-01-17,-8
EMPEROR-HFPEF,PE,EMPEROR-HFPEF-SITE003-0048,5,GENERALA,GENERAL APPEARANCE,NORMAL,NORMAL,1.0,SCREENING,SCREENING,2024-01-17,-8
EMPEROR-HFPEF,PE,EMPEROR-HFPEF-SITE003-0048,6,HEADANDN,HEAD AND NECK,NORMAL,NORMAL,1.0,SCREENING,SCREENING,2024-01-17,-8
EMPEROR-HFPEF,PE,EMPEROR-HFPEF-SITE003-0048,7,MUSCULOS,MUSCULOSKELETAL,NORMAL,NORMAL,1.0,SCREENING,SCREENING,2024-01-17,-8
EMPEROR-HFPEF,PE,EMPEROR-HFPEF-SITE003-0048,8,NEUROLOG,NEUROLOGICAL,NORMAL,NORMAL,1.0,SCREENING,SCREENING,2024-01-17,-8
EMPEROR-HFPEF,PE,EMPEROR-HFPEF-SITE003-0048,9,RESPIRAT,RESPIRATORY,NORMAL,NORMAL,1.0,SCREENING,SCREENING,2024-01-17,-8
EMPEROR-HFPEF,PE,EMPEROR-HFPEF-SITE003-0048,10,SKIN,SKIN,NORMAL,NORMAL,1.0,SCREENING,SCREENING,2024-01-17,-8
EMPEROR-HFPEF,PE,EMPEROR-HFPEF-SITE003-0048,11,ABDOMEN,ABDOMEN,NORMAL,NORMAL,2.0,RANDOMIZATION,TREATMENT,2024-01-25,1
EMPEROR-HFPEF,PE,EMPEROR-HFPEF-SITE003-0048,12,CARDIOVA,CARDIOVASCULAR,NORMAL,NORMAL,2.0,RANDOMIZATION,TREATMENT,2024-01-25,1
EMPEROR-HFPEF,PE,EMPEROR-HFPEF-SITE003-0048,13,EARSNOSE,"EARS, NOSE, AND THROAT",NORMAL,NORMAL,2.0,RANDOMIZATION,TREATMENT,2024-01-25,1
EMPEROR-HFPEF,PE,EMPEROR-HFPEF-SITE003-0048,14,EYES,EYES,NORMAL,NORMAL,2.0,RANDOMIZATION,TREATMENT,2024-01-25,1
EMPEROR-HFPEF,PE,EMPEROR-HFPEF-SITE003-0048,15,GENERALA,GENERAL APPEARANCE,NORMAL,NORMAL,2.0,RANDOMIZATION,TREATMENT,2024-01-25,1
EMPEROR-HFPEF,PE,EMPEROR-HFPEF-SITE003-0048,16,HEADANDN,HEAD AND NECK,NORMAL,NORMAL,2.0,RANDOMIZATION,TREATMENT,2024-01-25,1
EMPEROR-HFPEF,PE,EMPEROR-HFPEF-SITE003-0048,17,MUSCULOS,MUSCULOSKELETAL,NORMAL,NORMAL,2.0,RANDOMIZATION,TREATMENT,2024-01-25,1
EMPEROR-HFPEF,PE,EMPEROR-HFPEF-SITE003-0048,18,NEUROLOG,NEUROLOGICAL,NORMAL,NORMAL,2.0,RANDOMIZATION,TREATMENT,2024-01-25,1
EMPEROR-HFPEF,PE,EMPEROR-HFPEF-SITE003-0048,19,RESPIRAT,RESPIRATORY,NORMAL,NORMAL,2.0,RANDOMIZATION,TREATMENT,2024-01-25,1
EMPEROR-HFPEF,PE,EMPEROR-HFPEF-SITE003-0048,20,SKIN,SKIN,NORMAL,NORMAL,2.0,RANDOMIZATION,TREATMENT,2024-01-25,1
