{"subject_id":"VISION-NSCLC-SITE002-0041","study_id":"VISION-NSCLC","generated_at":"2026-06-16T10:08:22.585553+00:00","sdtmig_version":"3.4","flags":{"has_serious_ae":true,"has_fatal_ae":false,"has_protocol_deviation":true,"n_protocol_deviations":10,"n_adverse_events":13,"n_concomitant_meds":7,"max_ae_severity":"SEVERE","screen_failure":false,"discontinued_early":true,"discontinuation_reason":"ADVERSE EVENT","death":false,"exposure_days":79},"timeline":[{"dtc":"2023-12-20","dy":"-52","event":"VISIT: SCREENING","domain":"SV","category":"visit"},{"dtc":"2024-01-27","dy":"-14","event":"INFORMED CONSENT OBTAINED","domain":"DS","category":"milestone"},{"dtc":"2024-02-10","dy":"1","event":"RANDOMIZED","domain":"DS","category":"milestone"},{"dtc":"2024-02-10","dy":"1","event":"FIRST DOSE: TEPOTINIB","domain":"EX","category":"exposure"},{"dtc":"2024-02-10","dy":"1","event":"DEVIATION: MISSED DOSE","domain":"DV","category":"deviation"},{"dtc":"2024-02-10","dy":"1","event":"VISIT: C1D1","domain":"SV","category":"visit"},{"dtc":"2024-02-11","dy":"2","event":"DEVIATION: MISSED DOSE","domain":"DV","category":"deviation"},{"dtc":"2024-02-16","dy":"7","event":"DEVIATION: MISSED DOSE","domain":"DV","category":"deviation"},{"dtc":"2024-02-24","dy":"15","event":"VISIT: C1D15","domain":"SV","category":"visit"},{"dtc":"2024-02-26","dy":"17","event":"AE: Fatigue (MODERATE)","domain":"AE","category":"adverse_event"},{"dtc":"2024-03-12","dy":"32","event":"VISIT: C2D1","domain":"SV","category":"visit"},{"dtc":"2024-03-13","dy":"33","event":"DEVIATION: MISSED DOSE","domain":"DV","category":"deviation"},{"dtc":"2024-03-16","dy":"36","event":"AE: Vomiting (MODERATE)","domain":"AE","category":"adverse_event"},{"dtc":"2024-03-16","dy":"36","event":"CM START: ONDANSETRON","domain":"CM","category":"concomitant_med"},{"dtc":"2024-03-19","dy":"39","event":"DEVIATION: MISSED DOSE","domain":"DV","category":"deviation"},{"dtc":"2024-03-21","dy":"41","event":"DEVIATION: MISSED DOSE","domain":"DV","category":"deviation"},{"dtc":"2024-03-24","dy":"44","event":"DEVIATION: MISSED DOSE","domain":"DV","category":"deviation"},{"dtc":"2024-03-29","dy":"49","event":"AE: Fatigue (MODERATE)","domain":"AE","category":"adverse_event"},{"dtc":"2024-03-31","dy":"51","event":"AE: Nausea (MODERATE)","domain":"AE","category":"adverse_event"},{"dtc":"2024-03-31","dy":"51","event":"CM START: METOCLOPRAMIDE","domain":"CM","category":"concomitant_med"},{"dtc":"2024-04-01","dy":"52","event":"AE: Fatigue (MILD)","domain":"AE","category":"adverse_event"},{"dtc":"2024-04-06","dy":"57","event":"DEVIATION: MISSED DOSE","domain":"DV","category":"deviation"},{"dtc":"2024-04-07","dy":"58","event":"DEVIATION: VISIT OCCURRED OUTSIDE VISIT WINDOW","domain":"DV","category":"deviation"},{"dtc":"2024-04-07","dy":"58","event":"VISIT: C3D1","domain":"SV","category":"visit"},{"dtc":"2024-05-02","dy":"83","event":"VISIT: C4D1","domain":"SV","category":"visit"},{"dtc":"2024-05-11","dy":"92","event":"AE: Oedema peripheral (MODERATE)","domain":"AE","category":"adverse_event"},{"dtc":"2024-05-11","dy":"92","event":"CM START: FUROSEMIDE","domain":"CM","category":"concomitant_med"},{"dtc":"2024-05-19","dy":"100","event":"AE: Blood creatinine increased (MILD)","domain":"AE","category":"adverse_event"},{"dtc":"2024-05-21","dy":"102","event":"AE: Oedema peripheral (MILD)","domain":"AE","category":"adverse_event"},{"dtc":"2024-05-22","dy":"103","event":"AE: Nausea (SEVERE) [SERIOUS]","domain":"AE","category":"adverse_event"},{"dtc":"2024-05-22","dy":"103","event":"CM START: ONDANSETRON","domain":"CM","category":"concomitant_med"},{"dtc":"2024-06-27","dy":"139","event":"DEVIATION: VISIT OCCURRED OUTSIDE VISIT WINDOW","domain":"DV","category":"deviation"},{"dtc":"2024-06-27","dy":"139","event":"VISIT: C6D1","domain":"SV","category":"visit"},{"dtc":"2024-07-01","dy":"143","event":"AE: Fatigue (MODERATE)","domain":"AE","category":"adverse_event"},{"dtc":"2024-07-08","dy":"150","event":"AE: Oedema peripheral (SEVERE) [SERIOUS]","domain":"AE","category":"adverse_event"},{"dtc":"2024-07-08","dy":"150","event":"CM START: FUROSEMIDE","domain":"CM","category":"concomitant_med"},{"dtc":"2024-07-24","dy":"166","event":"ADVERSE EVENT","domain":"DS","category":"milestone"},{"dtc":"2024-07-24","dy":"166","event":"AE: Oedema peripheral (MODERATE)","domain":"AE","category":"adverse_event"},{"dtc":"2024-07-24","dy":"166","event":"AE: Dyspnoea (SEVERE) [SERIOUS]","domain":"AE","category":"adverse_event"},{"dtc":"2024-07-24","dy":"166","event":"CM START: FUROSEMIDE","domain":"CM","category":"concomitant_med"},{"dtc":"2024-07-24","dy":"166","event":"CM START: SALBUTAMOL","domain":"CM","category":"concomitant_med"}],"section_1_demographics":{"usubjid":"VISION-NSCLC-SITE002-0041","subjid":"0041","siteid":"SITE002","age":"52","ageu":"YEARS","sex":"M","race":"WHITE","ethnicity":"NOT HISPANIC OR LATINO","country":"USA","arm":"Tepotinib 500mg QD","armcd":"TEP500","actarm":"Tepotinib 500mg QD","actarmcd":"TEP500","randomization_date":null,"informed_consent_date":"2024-01-27","reference_start_date":"2024-02-10","reference_end_date":"2024-07-24","screen_failure":false,"death_flag":null,"death_date":null,"subject_characteristics":[{"testcd":"ALCUSE","test":"Alcohol Use","orres":"CURRENT DRINKER","stresc":"CURRENT DRINKER","visit":null,"dtc":"2024-01-27"},{"testcd":"BMI","test":"Body Mass Index","orres":"24.6","stresc":"24.6","visit":null,"dtc":"2024-01-27"},{"testcd":"DURDIS","test":"Duration of Disease","orres":"85 months","stresc":"85","visit":null,"dtc":"2024-01-27"},{"testcd":"TOBUSE","test":"Tobacco Use","orres":"NEVER SMOKED","stresc":"NEVER SMOKED","visit":null,"dtc":"2024-01-27"}]},"section_2_medical_history":{"items":[{"seq":"1","term":"DEPRESSION","decod":"DEPRESSION","cat":"PSYCHIATRIC","scat":null,"presp":null,"occur":null,"status":null,"onset_dtc":"2017-01","end_dtc":null,"visit":null},{"seq":"2","term":"GASTROESOPHAGEAL REFLUX DISEASE","decod":"GASTROESOPHAGEAL REFLUX DISEASE","cat":"GASTROINTESTINAL","scat":null,"presp":null,"occur":null,"status":null,"onset_dtc":"2022-01-27","end_dtc":"2023-09-26","visit":null}]},"section_3_inclusion_exclusion":{"criteria":[]},"section_4_trial_participation":{"visits":[{"visitnum":"1.0","visit":"SCREENING","start_dtc":"2023-12-20","end_dtc":"2023-12-20","updes":null},{"visitnum":"2.0","visit":"C1D1","start_dtc":"2024-02-10","end_dtc":"2024-02-10","updes":null},{"visitnum":"3.0","visit":"C1D15","start_dtc":"2024-02-24","end_dtc":"2024-02-24","updes":null},{"visitnum":"4.0","visit":"C2D1","start_dtc":"2024-03-12","end_dtc":"2024-03-12","updes":null},{"visitnum":"5.0","visit":"C3D1","start_dtc":"2024-04-07","end_dtc":"2024-04-07","updes":null},{"visitnum":"6.0","visit":"C4D1","start_dtc":"2024-05-02","end_dtc":"2024-05-02","updes":null},{"visitnum":"7.0","visit":"C6D1","start_dtc":"2024-06-27","end_dtc":"2024-06-27","updes":null}],"epochs":[{"seq":"1","etcd":"SCRN","element":"Screening","start_dtc":"2024-01-13","end_dtc":"2024-02-10","updes":null},{"seq":"2","etcd":"TRT","element":"Treatment","start_dtc":"2024-02-10","end_dtc":"2024-07-24","updes":null}],"visit_count":7},"section_5_concomitant_medications":{"medications":[{"seq":"1","trt":"ONDANSETRON","decod":"ONDANSETRON","cat":"CONCOMITANT","dose":"8","doseu":null,"dosef":"BID","route":"ORAL","indication":"VOMITING","start_dtc":"2024-03-16","end_dtc":"2024-03-19","ongoing":null,"visit":null},{"seq":"2","trt":"METOCLOPRAMIDE","decod":"METOCLOPRAMIDE","cat":"CONCOMITANT","dose":"10","doseu":null,"dosef":"TID","route":"ORAL","indication":"NAUSEA","start_dtc":"2024-03-31","end_dtc":"2024-04-24","ongoing":null,"visit":null},{"seq":"3","trt":"FUROSEMIDE","decod":"FUROSEMIDE","cat":"CONCOMITANT","dose":"20.0","doseu":null,"dosef":"QD","route":"ORAL","indication":"OEDEMA PERIPHERAL","start_dtc":"2024-05-11","end_dtc":"2024-05-18","ongoing":null,"visit":null},{"seq":"4","trt":"ONDANSETRON","decod":"ONDANSETRON","cat":"CONCOMITANT","dose":"4","doseu":null,"dosef":"PRN","route":"ORAL","indication":"NAUSEA","start_dtc":"2024-05-22","end_dtc":"2024-06-08","ongoing":null,"visit":null},{"seq":"5","trt":"FUROSEMIDE","decod":"FUROSEMIDE","cat":"CONCOMITANT","dose":"20.0","doseu":null,"dosef":"QD","route":"ORAL","indication":"OEDEMA PERIPHERAL","start_dtc":"2024-07-08","end_dtc":"2024-07-24","ongoing":null,"visit":null},{"seq":"6","trt":"FUROSEMIDE","decod":"FUROSEMIDE","cat":"CONCOMITANT","dose":"20.0","doseu":null,"dosef":"QD","route":"ORAL","indication":"OEDEMA PERIPHERAL","start_dtc":"2024-07-24","end_dtc":"2024-07-24","ongoing":null,"visit":null},{"seq":"7","trt":"SALBUTAMOL","decod":"SALBUTAMOL","cat":"CONCOMITANT","dose":"100.0","doseu":null,"dosef":"PRN","route":"RESPIRATORY (INHALATION)","indication":"DYSPNOEA","start_dtc":"2024-07-24","end_dtc":"2024-07-24","ongoing":null,"visit":null}]},"section_6_exposure":{"exposure_as_administered":[{"seq":"1","trt":"TEPOTINIB","dose":"500.0","doseu":null,"dosef":"QD","route":"ORAL","lot":null,"start_dtc":"2024-02-10","end_dtc":"2024-04-29","start_dy":"1","end_dy":"80","epoch":"TREATMENT","visit":null}],"exposure_as_collected":[{"seq":"1","trt":"TEPOTINIB","dose":null,"doseu":null,"dosef":"QD","route":"ORAL","start_dtc":"2024-02-10","end_dtc":"2024-02-10","visit":"C1D1"},{"seq":"2","trt":"TEPOTINIB","dose":null,"doseu":null,"dosef":"QD","route":"ORAL","start_dtc":"2024-02-11","end_dtc":"2024-02-11","visit":"C1D1"},{"seq":"3","trt":"TEPOTINIB","dose":"500.0","doseu":null,"dosef":"QD","route":"ORAL","start_dtc":"2024-02-12","end_dtc":"2024-02-12","visit":"C1D1"},{"seq":"4","trt":"TEPOTINIB","dose":"500.0","doseu":null,"dosef":"QD","route":"ORAL","start_dtc":"2024-02-13","end_dtc":"2024-02-13","visit":"C1D1"},{"seq":"5","trt":"TEPOTINIB","dose":"500.0","doseu":null,"dosef":"QD","route":"ORAL","start_dtc":"2024-02-14","end_dtc":"2024-02-14","visit":null},{"seq":"6","trt":"TEPOTINIB","dose":"500.0","doseu":null,"dosef":"QD","route":"ORAL","start_dtc":"2024-02-15","end_dtc":"2024-02-15","visit":null},{"seq":"7","trt":"TEPOTINIB","dose":null,"doseu":null,"dosef":"QD","route":"ORAL","start_dtc":"2024-02-16","end_dtc":"2024-02-16","visit":null},{"seq":"8","trt":"TEPOTINIB","dose":"500.0","doseu":null,"dosef":"QD","route":"ORAL","start_dtc":"2024-02-17","end_dtc":"2024-02-17","visit":null},{"seq":"9","trt":"TEPOTINIB","dose":"500.0","doseu":null,"dosef":"QD","route":"ORAL","start_dtc":"2024-02-18","end_dtc":"2024-02-18","visit":null},{"seq":"10","trt":"TEPOTINIB","dose":"500.0","doseu":null,"dosef":"QD","route":"ORAL","start_dtc":"2024-02-19","end_dtc":"2024-02-19","visit":null},{"seq":"11","trt":"TEPOTINIB","dose":"500.0","doseu":null,"dosef":"QD","route":"ORAL","start_dtc":"2024-02-20","end_dtc":"2024-02-20","visit":null},{"seq":"12","trt":"TEPOTINIB","dose":"500.0","doseu":null,"dosef":"QD","route":"ORAL","start_dtc":"2024-02-21","end_dtc":"2024-02-21","visit":"C1D15"},{"seq":"13","trt":"TEPOTINIB","dose":"500.0","doseu":null,"dosef":"QD","route":"ORAL","start_dtc":"2024-02-22","end_dtc":"2024-02-22","visit":"C1D15"},{"seq":"14","trt":"TEPOTINIB","dose":"500.0","doseu":null,"dosef":"QD","route":"ORAL","start_dtc":"2024-02-23","end_dtc":"2024-02-23","visit":"C1D15"},{"seq":"15","trt":"TEPOTINIB","dose":"500.0","doseu":null,"dosef":"QD","route":"ORAL","start_dtc":"2024-02-24","end_dtc":"2024-02-24","visit":"C1D15"},{"seq":"16","trt":"TEPOTINIB","dose":"500.0","doseu":null,"dosef":"QD","route":"ORAL","start_dtc":"2024-02-25","end_dtc":"2024-02-25","visit":"C1D15"},{"seq":"17","trt":"TEPOTINIB","dose":"500.0","doseu":null,"dosef":"QD","route":"ORAL","start_dtc":"2024-02-26","end_dtc":"2024-02-26","visit":"C1D15"},{"seq":"18","trt":"TEPOTINIB","dose":"500.0","doseu":null,"dosef":"QD","route":"ORAL","start_dtc":"2024-02-27","end_dtc":"2024-02-27","visit":"C1D15"},{"seq":"19","trt":"TEPOTINIB","dose":"500.0","doseu":null,"dosef":"QD","route":"ORAL","start_dtc":"2024-02-28","end_dtc":"2024-02-28","visit":null},{"seq":"20","trt":"TEPOTINIB","dose":"500.0","doseu":null,"dosef":"QD","route":"ORAL","start_dtc":"2024-02-29","end_dtc":"2024-02-29","visit":null},{"seq":"21","trt":"TEPOTINIB","dose":"500.0","doseu":null,"dosef":"QD","route":"ORAL","start_dtc":"2024-03-01","end_dtc":"2024-03-01","visit":null},{"seq":"22","trt":"TEPOTINIB","dose":"500.0","doseu":null,"dosef":"QD","route":"ORAL","start_dtc":"2024-03-02","end_dtc":"2024-03-02","visit":null},{"seq":"23","trt":"TEPOTINIB","dose":"500.0","doseu":null,"dosef":"QD","route":"ORAL","start_dtc":"2024-03-03","end_dtc":"2024-03-03","visit":null},{"seq":"24","trt":"TEPOTINIB","dose":"500.0","doseu":null,"dosef":"QD","route":"ORAL","start_dtc":"2024-03-04","end_dtc":"2024-03-04","visit":null},{"seq":"25","trt":"TEPOTINIB","dose":"500.0","doseu":null,"dosef":"QD","route":"ORAL","start_dtc":"2024-03-05","end_dtc":"2024-03-05","visit":null},{"seq":"26","trt":"TEPOTINIB","dose":"500.0","doseu":null,"dosef":"QD","route":"ORAL","start_dtc":"2024-03-06","end_dtc":"2024-03-06","visit":"C2D1"},{"seq":"27","trt":"TEPOTINIB","dose":"500.0","doseu":null,"dosef":"QD","route":"ORAL","start_dtc":"2024-03-07","end_dtc":"2024-03-07","visit":"C2D1"},{"seq":"28","trt":"TEPOTINIB","dose":"500.0","doseu":null,"dosef":"QD","route":"ORAL","start_dtc":"2024-03-08","end_dtc":"2024-03-08","visit":"C2D1"},{"seq":"29","trt":"TEPOTINIB","dose":"500.0","doseu":null,"dosef":"QD","route":"ORAL","start_dtc":"2024-03-09","end_dtc":"2024-03-09","visit":"C2D1"},{"seq":"30","trt":"TEPOTINIB","dose":"500.0","doseu":null,"dosef":"QD","route":"ORAL","start_dtc":"2024-03-10","end_dtc":"2024-03-10","visit":"C2D1"},{"seq":"31","trt":"TEPOTINIB","dose":"500.0","doseu":null,"dosef":"QD","route":"ORAL","start_dtc":"2024-03-11","end_dtc":"2024-03-11","visit":"C2D1"},{"seq":"32","trt":"TEPOTINIB","dose":"500.0","doseu":null,"dosef":"QD","route":"ORAL","start_dtc":"2024-03-12","end_dtc":"2024-03-12","visit":"C2D1"},{"seq":"33","trt":"TEPOTINIB","dose":null,"doseu":null,"dosef":"QD","route":"ORAL","start_dtc":"2024-03-13","end_dtc":"2024-03-13","visit":null},{"seq":"34","trt":"TEPOTINIB","dose":"500.0","doseu":null,"dosef":"QD","route":"ORAL","start_dtc":"2024-03-14","end_dtc":"2024-03-14","visit":null},{"seq":"35","trt":"TEPOTINIB","dose":"500.0","doseu":null,"dosef":"QD","route":"ORAL","start_dtc":"2024-03-15","end_dtc":"2024-03-15","visit":null},{"seq":"36","trt":"TEPOTINIB","dose":"500.0","doseu":null,"dosef":"QD","route":"ORAL","start_dtc":"2024-03-16","end_dtc":"2024-03-16","visit":null},{"seq":"37","trt":"TEPOTINIB","dose":"500.0","doseu":null,"dosef":"QD","route":"ORAL","start_dtc":"2024-03-17","end_dtc":"2024-03-17","visit":null},{"seq":"38","trt":"TEPOTINIB","dose":"500.0","doseu":null,"dosef":"QD","route":"ORAL","start_dtc":"2024-03-18","end_dtc":"2024-03-18","visit":null},{"seq":"39","trt":"TEPOTINIB","dose":null,"doseu":null,"dosef":"QD","route":"ORAL","start_dtc":"2024-03-19","end_dtc":"2024-03-19","visit":null},{"seq":"40","trt":"TEPOTINIB","dose":"500.0","doseu":null,"dosef":"QD","route":"ORAL","start_dtc":"2024-03-20","end_dtc":"2024-03-20","visit":null},{"seq":"41","trt":"TEPOTINIB","dose":null,"doseu":null,"dosef":"QD","route":"ORAL","start_dtc":"2024-03-21","end_dtc":"2024-03-21","visit":null},{"seq":"42","trt":"TEPOTINIB","dose":"500.0","doseu":null,"dosef":"QD","route":"ORAL","start_dtc":"2024-03-22","end_dtc":"2024-03-22","visit":null},{"seq":"43","trt":"TEPOTINIB","dose":"500.0","doseu":null,"dosef":"QD","route":"ORAL","start_dtc":"2024-03-23","end_dtc":"2024-03-23","visit":null},{"seq":"44","trt":"TEPOTINIB","dose":null,"doseu":null,"dosef":"QD","route":"ORAL","start_dtc":"2024-03-24","end_dtc":"2024-03-24","visit":null},{"seq":"45","trt":"TEPOTINIB","dose":"500.0","doseu":null,"dosef":"QD","route":"ORAL","start_dtc":"2024-03-25","end_dtc":"2024-03-25","visit":null},{"seq":"46","trt":"TEPOTINIB","dose":"500.0","doseu":null,"dosef":"QD","route":"ORAL","start_dtc":"2024-03-26","end_dtc":"2024-03-26","visit":null},{"seq":"47","trt":"TEPOTINIB","dose":"500.0","doseu":null,"dosef":"QD","route":"ORAL","start_dtc":"2024-03-27","end_dtc":"2024-03-27","visit":null},{"seq":"48","trt":"TEPOTINIB","dose":"500.0","doseu":null,"dosef":"QD","route":"ORAL","start_dtc":"2024-03-28","end_dtc":"2024-03-28","visit":null},{"seq":"49","trt":"TEPOTINIB","dose":"500.0","doseu":null,"dosef":"QD","route":"ORAL","start_dtc":"2024-03-29","end_dtc":"2024-03-29","visit":null},{"seq":"50","trt":"TEPOTINIB","dose":"500.0","doseu":null,"dosef":"QD","route":"ORAL","start_dtc":"2024-03-30","end_dtc":"2024-03-30","visit":null},{"seq":"51","trt":"TEPOTINIB","dose":"500.0","doseu":null,"dosef":"QD","route":"ORAL","start_dtc":"2024-03-31","end_dtc":"2024-03-31","visit":null},{"seq":"52","trt":"TEPOTINIB","dose":"500.0","doseu":null,"dosef":"QD","route":"ORAL","start_dtc":"2024-04-01","end_dtc":"2024-04-01","visit":null},{"seq":"53","trt":"TEPOTINIB","dose":"500.0","doseu":null,"dosef":"QD","route":"ORAL","start_dtc":"2024-04-02","end_dtc":"2024-04-02","visit":null},{"seq":"54","trt":"TEPOTINIB","dose":"500.0","doseu":null,"dosef":"QD","route":"ORAL","start_dtc":"2024-04-03","end_dtc":"2024-04-03","visit":"C3D1"},{"seq":"55","trt":"TEPOTINIB","dose":"500.0","doseu":null,"dosef":"QD","route":"ORAL","start_dtc":"2024-04-04","end_dtc":"2024-04-04","visit":"C3D1"},{"seq":"56","trt":"TEPOTINIB","dose":"500.0","doseu":null,"dosef":"QD","route":"ORAL","start_dtc":"2024-04-05","end_dtc":"2024-04-05","visit":"C3D1"},{"seq":"57","trt":"TEPOTINIB","dose":null,"doseu":null,"dosef":"QD","route":"ORAL","start_dtc":"2024-04-06","end_dtc":"2024-04-06","visit":"C3D1"},{"seq":"58","trt":"TEPOTINIB","dose":"500.0","doseu":null,"dosef":"QD","route":"ORAL","start_dtc":"2024-04-07","end_dtc":"2024-04-07","visit":"C3D1"},{"seq":"59","trt":"TEPOTINIB","dose":"500.0","doseu":null,"dosef":"QD","route":"ORAL","start_dtc":"2024-04-08","end_dtc":"2024-04-08","visit":"C3D1"},{"seq":"60","trt":"TEPOTINIB","dose":"500.0","doseu":null,"dosef":"QD","route":"ORAL","start_dtc":"2024-04-09","end_dtc":"2024-04-09","visit":"C3D1"},{"seq":"61","trt":"TEPOTINIB","dose":"500.0","doseu":null,"dosef":"QD","route":"ORAL","start_dtc":"2024-04-10","end_dtc":"2024-04-10","visit":null},{"seq":"62","trt":"TEPOTINIB","dose":"500.0","doseu":null,"dosef":"QD","route":"ORAL","start_dtc":"2024-04-11","end_dtc":"2024-04-11","visit":null},{"seq":"63","trt":"TEPOTINIB","dose":"500.0","doseu":null,"dosef":"QD","route":"ORAL","start_dtc":"2024-04-12","end_dtc":"2024-04-12","visit":null},{"seq":"64","trt":"TEPOTINIB","dose":"500.0","doseu":null,"dosef":"QD","route":"ORAL","start_dtc":"2024-04-13","end_dtc":"2024-04-13","visit":null},{"seq":"65","trt":"TEPOTINIB","dose":"500.0","doseu":null,"dosef":"QD","route":"ORAL","start_dtc":"2024-04-14","end_dtc":"2024-04-14","visit":null},{"seq":"66","trt":"TEPOTINIB","dose":"500.0","doseu":null,"dosef":"QD","route":"ORAL","start_dtc":"2024-04-15","end_dtc":"2024-04-15","visit":null},{"seq":"67","trt":"TEPOTINIB","dose":"500.0","doseu":null,"dosef":"QD","route":"ORAL","start_dtc":"2024-04-16","end_dtc":"2024-04-16","visit":null},{"seq":"68","trt":"TEPOTINIB","dose":"500.0","doseu":null,"dosef":"QD","route":"ORAL","start_dtc":"2024-04-17","end_dtc":"2024-04-17","visit":null},{"seq":"69","trt":"TEPOTINIB","dose":null,"doseu":null,"dosef":"QD","route":"ORAL","start_dtc":"2024-04-18","end_dtc":"2024-04-18","visit":null},{"seq":"70","trt":"TEPOTINIB","dose":"500.0","doseu":null,"dosef":"QD","route":"ORAL","start_dtc":"2024-04-19","end_dtc":"2024-04-19","visit":null},{"seq":"71","trt":"TEPOTINIB","dose":"500.0","doseu":null,"dosef":"QD","route":"ORAL","start_dtc":"2024-04-20","end_dtc":"2024-04-20","visit":null},{"seq":"72","trt":"TEPOTINIB","dose":"500.0","doseu":null,"dosef":"QD","route":"ORAL","start_dtc":"2024-04-21","end_dtc":"2024-04-21","visit":null},{"seq":"73","trt":"TEPOTINIB","dose":"500.0","doseu":null,"dosef":"QD","route":"ORAL","start_dtc":"2024-04-22","end_dtc":"2024-04-22","visit":null},{"seq":"74","trt":"TEPOTINIB","dose":"500.0","doseu":null,"dosef":"QD","route":"ORAL","start_dtc":"2024-04-23","end_dtc":"2024-04-23","visit":null},{"seq":"75","trt":"TEPOTINIB","dose":"500.0","doseu":null,"dosef":"QD","route":"ORAL","start_dtc":"2024-04-24","end_dtc":"2024-04-24","visit":null},{"seq":"76","trt":"TEPOTINIB","dose":"500.0","doseu":null,"dosef":"QD","route":"ORAL","start_dtc":"2024-04-25","end_dtc":"2024-04-25","visit":null},{"seq":"77","trt":"TEPOTINIB","dose":"500.0","doseu":null,"dosef":"QD","route":"ORAL","start_dtc":"2024-04-26","end_dtc":"2024-04-26","visit":null},{"seq":"78","trt":"TEPOTINIB","dose":"500.0","doseu":null,"dosef":"QD","route":"ORAL","start_dtc":"2024-04-27","end_dtc":"2024-04-27","visit":null},{"seq":"79","trt":"TEPOTINIB","dose":"500.0","doseu":null,"dosef":"QD","route":"ORAL","start_dtc":"2024-04-28","end_dtc":"2024-04-28","visit":null},{"seq":"80","trt":"TEPOTINIB","dose":"500.0","doseu":null,"dosef":"QD","route":"ORAL","start_dtc":"2024-04-29","end_dtc":"2024-04-29","visit":null}]},"section_7_adverse_events":{"summary":{"total_aes":13,"serious_aes":3,"fatal_aes":0,"by_severity":{"MODERATE":7,"MILD":3,"SEVERE":3},"by_soc":{"General disorders and administration site conditions":8,"Gastrointestinal disorders":3,"Investigations":1,"Respiratory, thoracic and mediastinal disorders":1}},"events":[{"seq":"1","term":"FATIGUE","decod":"Fatigue","llt":"Fatigue","hlt":"Asthenic conditions","hlgt":"General system disorders NEC","soc":"General disorders and administration site conditions","bodsys":"General disorders and administration site conditions","severity":"MODERATE","serious":"N","causality":"UNLIKELY RELATED","action_taken":"DOSE NOT CHANGED","outcome":"RECOVERED/RESOLVED","fatal":"N","hospitalization":"N","life_threatening":"N","onset_dtc":"2024-02-26","end_dtc":"2024-03-21","onset_dy":"17","end_dy":"41","duration":null,"epoch":"TREATMENT","visit":null,"supplemental":{}},{"seq":"2","term":"VOMITING","decod":"Vomiting","llt":"Vomiting","hlt":"Nausea and vomiting symptoms","hlgt":"Gastrointestinal signs and symptoms","soc":"Gastrointestinal disorders","bodsys":"Gastrointestinal disorders","severity":"MODERATE","serious":"N","causality":"NOT RELATED","action_taken":"DOSE NOT CHANGED","outcome":"RECOVERED/RESOLVED","fatal":"N","hospitalization":"N","life_threatening":"N","onset_dtc":"2024-03-16","end_dtc":"2024-03-18","onset_dy":"36","end_dy":"38","duration":null,"epoch":"TREATMENT","visit":null,"supplemental":{}},{"seq":"3","term":"FATIGUE","decod":"Fatigue","llt":"Fatigue","hlt":"Asthenic conditions","hlgt":"General system disorders NEC","soc":"General disorders and administration site conditions","bodsys":"General disorders and administration site conditions","severity":"MODERATE","serious":"N","causality":"NOT RELATED","action_taken":"DOSE NOT CHANGED","outcome":"RECOVERED/RESOLVED","fatal":"N","hospitalization":"N","life_threatening":"N","onset_dtc":"2024-03-29","end_dtc":"2024-04-17","onset_dy":"49","end_dy":"68","duration":null,"epoch":"TREATMENT","visit":null,"supplemental":{}},{"seq":"4","term":"NAUSEA","decod":"Nausea","llt":"Nausea","hlt":"Nausea and vomiting symptoms","hlgt":"Gastrointestinal signs and symptoms","soc":"Gastrointestinal disorders","bodsys":"Gastrointestinal disorders","severity":"MODERATE","serious":"N","causality":"NOT RELATED","action_taken":"DOSE NOT CHANGED","outcome":"RECOVERED/RESOLVED","fatal":"N","hospitalization":"N","life_threatening":"N","onset_dtc":"2024-03-31","end_dtc":"2024-04-06","onset_dy":"51","end_dy":"57","duration":null,"epoch":"TREATMENT","visit":null,"supplemental":{}},{"seq":"5","term":"FATIGUE","decod":"Fatigue","llt":"Fatigue","hlt":"Asthenic conditions","hlgt":"General system disorders NEC","soc":"General disorders and administration site conditions","bodsys":"General disorders and administration site conditions","severity":"MILD","serious":"N","causality":"POSSIBLY RELATED","action_taken":"DOSE NOT CHANGED","outcome":"UNKNOWN","fatal":"N","hospitalization":"N","life_threatening":"N","onset_dtc":"2024-04-01","end_dtc":"2024-04-09","onset_dy":"52","end_dy":"60","duration":null,"epoch":"TREATMENT","visit":null,"supplemental":{}},{"seq":"6","term":"OEDEMA PERIPHERAL","decod":"Oedema peripheral","llt":"Oedema peripheral","hlt":"Oedema NEC","hlgt":"Oedema NEC","soc":"General disorders and administration site conditions","bodsys":"General disorders and administration site conditions","severity":"MODERATE","serious":"N","causality":"POSSIBLY RELATED","action_taken":"DOSE NOT CHANGED","outcome":"RECOVERED/RESOLVED","fatal":"N","hospitalization":"N","life_threatening":"N","onset_dtc":"2024-05-11","end_dtc":"2024-05-28","onset_dy":"92","end_dy":"109","duration":null,"epoch":"TREATMENT","visit":null,"supplemental":{}},{"seq":"7","term":"BLOOD CREATININE INCREASED","decod":"Blood creatinine increased","llt":"Blood creatinine increased","hlt":"Renal function analyses","hlgt":"Renal and urinary tract investigations and urinalyses","soc":"Investigations","bodsys":"Investigations","severity":"MILD","serious":"N","causality":"NOT RELATED","action_taken":"DOSE NOT CHANGED","outcome":"RECOVERED/RESOLVED","fatal":"N","hospitalization":"N","life_threatening":"N","onset_dtc":"2024-05-19","end_dtc":"2024-05-25","onset_dy":"100","end_dy":"106","duration":null,"epoch":"TREATMENT","visit":null,"supplemental":{}},{"seq":"8","term":"OEDEMA PERIPHERAL","decod":"Oedema peripheral","llt":"Oedema peripheral","hlt":"Oedema NEC","hlgt":"Oedema NEC","soc":"General disorders and administration site conditions","bodsys":"General disorders and administration site conditions","severity":"MILD","serious":"N","causality":"NOT RELATED","action_taken":"DOSE NOT CHANGED","outcome":"NOT RECOVERED/NOT RESOLVED","fatal":"N","hospitalization":"N","life_threatening":"N","onset_dtc":"2024-05-21","end_dtc":null,"onset_dy":"102","end_dy":null,"duration":null,"epoch":"TREATMENT","visit":null,"supplemental":{}},{"seq":"9","term":"NAUSEA","decod":"Nausea","llt":"Nausea","hlt":"Nausea and vomiting symptoms","hlgt":"Gastrointestinal signs and symptoms","soc":"Gastrointestinal disorders","bodsys":"Gastrointestinal disorders","severity":"SEVERE","serious":"Y","causality":"UNLIKELY RELATED","action_taken":"DOSE NOT CHANGED","outcome":"RECOVERED/RESOLVED","fatal":"N","hospitalization":"Y","life_threatening":"N","onset_dtc":"2024-05-22","end_dtc":"2024-06-03","onset_dy":"103","end_dy":"115","duration":null,"epoch":"TREATMENT","visit":null,"supplemental":{}},{"seq":"10","term":"FATIGUE","decod":"Fatigue","llt":"Fatigue","hlt":"Asthenic conditions","hlgt":"General system disorders NEC","soc":"General disorders and administration site conditions","bodsys":"General disorders and administration site conditions","severity":"MODERATE","serious":"N","causality":"UNLIKELY RELATED","action_taken":"DOSE NOT CHANGED","outcome":"RECOVERED/RESOLVED","fatal":"N","hospitalization":"N","life_threatening":"N","onset_dtc":"2024-07-01","end_dtc":"2024-07-24","onset_dy":"143","end_dy":"166","duration":null,"epoch":"TREATMENT","visit":null,"supplemental":{}},{"seq":"11","term":"OEDEMA PERIPHERAL","decod":"Oedema peripheral","llt":"Oedema peripheral","hlt":"Oedema NEC","hlgt":"Oedema NEC","soc":"General disorders and administration site conditions","bodsys":"General disorders and administration site conditions","severity":"SEVERE","serious":"Y","causality":"PROBABLY RELATED","action_taken":"DRUG INTERRUPTED","outcome":"RECOVERED/RESOLVED","fatal":"N","hospitalization":"Y","life_threatening":"N","onset_dtc":"2024-07-08","end_dtc":"2024-07-24","onset_dy":"150","end_dy":"166","duration":null,"epoch":"TREATMENT","visit":null,"supplemental":{}},{"seq":"12","term":"OEDEMA PERIPHERAL","decod":"Oedema peripheral","llt":"Oedema peripheral","hlt":"Oedema NEC","hlgt":"Oedema NEC","soc":"General disorders and administration site conditions","bodsys":"General disorders and administration site conditions","severity":"MODERATE","serious":"N","causality":"NOT RELATED","action_taken":"DOSE NOT CHANGED","outcome":"RECOVERED/RESOLVED","fatal":"N","hospitalization":"N","life_threatening":"N","onset_dtc":"2024-07-24","end_dtc":"2024-07-24","onset_dy":"166","end_dy":"166","duration":null,"epoch":"TREATMENT","visit":null,"supplemental":{}},{"seq":"13","term":"DYSPNOEA","decod":"Dyspnoea","llt":"Dyspnoea","hlt":"Breathing abnormalities","hlgt":"Respiratory tract signs and symptoms","soc":"Respiratory, thoracic and mediastinal disorders","bodsys":"Respiratory, thoracic and mediastinal disorders","severity":"SEVERE","serious":"Y","causality":"PROBABLY RELATED","action_taken":"DRUG WITHDRAWN","outcome":"RECOVERED/RESOLVED","fatal":"N","hospitalization":"Y","life_threatening":"N","onset_dtc":"2024-07-24","end_dtc":"2024-07-24","onset_dy":"166","end_dy":"166","duration":null,"epoch":"TREATMENT","visit":null,"supplemental":{}}]},"section_8_laboratory_results":{"summary":{"total_records":42,"abnormal_count":0,"abnormal_pct":0.0},"shift_summary":[{"testcd":"ALT","baseline_value":33.41,"baseline_nrind":"NORMAL","worst_post_baseline_value":33.59,"worst_post_baseline_nrind":"NORMAL","worst_visit":"C1D15"},{"testcd":"AST","baseline_value":24.85,"baseline_nrind":"NORMAL","worst_post_baseline_value":25.79,"worst_post_baseline_nrind":"NORMAL","worst_visit":"C6D1"},{"testcd":"CREAT","baseline_value":62.82,"baseline_nrind":"NORMAL","worst_post_baseline_value":64.66,"worst_post_baseline_nrind":"NORMAL","worst_visit":"C4D1"},{"testcd":"GLUC","baseline_value":4.51,"baseline_nrind":"NORMAL","worst_post_baseline_value":4.58,"worst_post_baseline_nrind":"NORMAL","worst_visit":"C1D1"},{"testcd":"HGB","baseline_value":141.57,"baseline_nrind":"NORMAL","worst_post_baseline_value":142.05,"worst_post_baseline_nrind":"NORMAL","worst_visit":"C2D1"},{"testcd":"PLAT","baseline_value":290.11,"baseline_nrind":"NORMAL","worst_post_baseline_value":297.12,"worst_post_baseline_nrind":"NORMAL","worst_visit":"C4D1"},{"testcd":"WBC","baseline_value":8.12,"baseline_nrind":"NORMAL","worst_post_baseline_value":7.91,"worst_post_baseline_nrind":"NORMAL","worst_visit":"C6D1"}],"results":[{"seq":"1","testcd":"ALT","test":"Alanine Aminotransferase","cat":"CHEMISTRY","orres":"33.41","orresu":"U/L","stresc":"33.41","stresn":"33.41","stresu":"U/L","stnrlo":"7","stnrhi":"56","nrind":"NORMAL","fast":null,"dtc":"2023-12-20","dy":"-52","visit":"SCREENING","visitnum":"1.0","epoch":"SCREENING","spec":null,"method":null},{"seq":"2","testcd":"AST","test":"Aspartate Aminotransferase","cat":"CHEMISTRY","orres":"24.85","orresu":"U/L","stresc":"24.85","stresn":"24.85","stresu":"U/L","stnrlo":"10","stnrhi":"40","nrind":"NORMAL","fast":null,"dtc":"2023-12-20","dy":"-52","visit":"SCREENING","visitnum":"1.0","epoch":"SCREENING","spec":null,"method":null},{"seq":"3","testcd":"CREAT","test":"Creatinine","cat":"CHEMISTRY","orres":null,"orresu":null,"stresc":null,"stresn":null,"stresu":null,"stnrlo":null,"stnrhi":null,"nrind":null,"fast":null,"dtc":"2023-12-20","dy":"-52","visit":"SCREENING","visitnum":"1.0","epoch":"SCREENING","spec":null,"method":null},{"seq":"4","testcd":"GLUC","test":"Glucose","cat":"CHEMISTRY","orres":"4.51","orresu":"mmol/L","stresc":"4.51","stresn":"4.51","stresu":"mmol/L","stnrlo":"3.9","stnrhi":"5.6","nrind":"NORMAL","fast":null,"dtc":"2023-12-20","dy":"-52","visit":"SCREENING","visitnum":"1.0","epoch":"SCREENING","spec":null,"method":null},{"seq":"5","testcd":"HGB","test":"Hemoglobin","cat":"HEMATOLOGY","orres":"141.57","orresu":"g/L","stresc":"141.57","stresn":"141.57","stresu":"g/L","stnrlo":"130","stnrhi":"175","nrind":"NORMAL","fast":null,"dtc":"2023-12-20","dy":"-52","visit":"SCREENING","visitnum":"1.0","epoch":"SCREENING","spec":null,"method":null},{"seq":"6","testcd":"PLAT","test":"Platelets","cat":"HEMATOLOGY","orres":"290.11","orresu":"10^9/L","stresc":"290.11","stresn":"290.11","stresu":"10^9/L","stnrlo":"150","stnrhi":"400","nrind":"NORMAL","fast":null,"dtc":"2023-12-20","dy":"-52","visit":"SCREENING","visitnum":"1.0","epoch":"SCREENING","spec":null,"method":null},{"seq":"7","testcd":"WBC","test":"Leukocytes","cat":"HEMATOLOGY","orres":"8.12","orresu":"10^9/L","stresc":"8.12","stresn":"8.12","stresu":"10^9/L","stnrlo":"4.0","stnrhi":"11.0","nrind":"NORMAL","fast":null,"dtc":"2023-12-20","dy":"-52","visit":"SCREENING","visitnum":"1.0","epoch":"SCREENING","spec":null,"method":null},{"seq":"8","testcd":"ALT","test":"Alanine Aminotransferase","cat":"CHEMISTRY","orres":"33.21","orresu":"U/L","stresc":"33.21","stresn":"33.21","stresu":"U/L","stnrlo":"7","stnrhi":"56","nrind":"NORMAL","fast":null,"dtc":"2024-02-10","dy":"1","visit":"C1D1","visitnum":"2.0","epoch":"TREATMENT","spec":null,"method":null},{"seq":"9","testcd":"AST","test":"Aspartate Aminotransferase","cat":"CHEMISTRY","orres":"25.22","orresu":"U/L","stresc":"25.22","stresn":"25.22","stresu":"U/L","stnrlo":"10","stnrhi":"40","nrind":"NORMAL","fast":null,"dtc":"2024-02-10","dy":"1","visit":"C1D1","visitnum":"2.0","epoch":"TREATMENT","spec":null,"method":null},{"seq":"10","testcd":"CREAT","test":"Creatinine","cat":"CHEMISTRY","orres":"62.82","orresu":"umol/L","stresc":"62.82","stresn":"62.82","stresu":"umol/L","stnrlo":"62","stnrhi":"106","nrind":"NORMAL","fast":null,"dtc":"2024-02-10","dy":"1","visit":"C1D1","visitnum":"2.0","epoch":"TREATMENT","spec":null,"method":null},{"seq":"11","testcd":"GLUC","test":"Glucose","cat":"CHEMISTRY","orres":"4.58","orresu":"mmol/L","stresc":"4.58","stresn":"4.58","stresu":"mmol/L","stnrlo":"3.9","stnrhi":"5.6","nrind":"NORMAL","fast":null,"dtc":"2024-02-10","dy":"1","visit":"C1D1","visitnum":"2.0","epoch":"TREATMENT","spec":null,"method":null},{"seq":"12","testcd":"HGB","test":"Hemoglobin","cat":"HEMATOLOGY","orres":"143.41","orresu":"g/L","stresc":"143.41","stresn":"143.41","stresu":"g/L","stnrlo":"130","stnrhi":"175","nrind":"NORMAL","fast":null,"dtc":"2024-02-10","dy":"1","visit":"C1D1","visitnum":"2.0","epoch":"TREATMENT","spec":null,"method":null},{"seq":"13","testcd":"PLAT","test":"Platelets","cat":"HEMATOLOGY","orres":null,"orresu":null,"stresc":null,"stresn":null,"stresu":null,"stnrlo":null,"stnrhi":null,"nrind":null,"fast":null,"dtc":"2024-02-10","dy":"1","visit":"C1D1","visitnum":"2.0","epoch":"TREATMENT","spec":null,"method":null},{"seq":"14","testcd":"WBC","test":"Leukocytes","cat":"HEMATOLOGY","orres":"7.13","orresu":"10^9/L","stresc":"7.13","stresn":"7.13","stresu":"10^9/L","stnrlo":"4.0","stnrhi":"11.0","nrind":"NORMAL","fast":null,"dtc":"2024-02-10","dy":"1","visit":"C1D1","visitnum":"2.0","epoch":"TREATMENT","spec":null,"method":null},{"seq":"15","testcd":"ALT","test":"Alanine Aminotransferase","cat":"CHEMISTRY","orres":"33.59","orresu":"U/L","stresc":"33.59","stresn":"33.59","stresu":"U/L","stnrlo":"7","stnrhi":"56","nrind":"NORMAL","fast":null,"dtc":"2024-02-24","dy":"15","visit":"C1D15","visitnum":"3.0","epoch":"TREATMENT","spec":null,"method":null},{"seq":"16","testcd":"AST","test":"Aspartate Aminotransferase","cat":"CHEMISTRY","orres":"24.79","orresu":"U/L","stresc":"24.79","stresn":"24.79","stresu":"U/L","stnrlo":"10","stnrhi":"40","nrind":"NORMAL","fast":null,"dtc":"2024-02-24","dy":"15","visit":"C1D15","visitnum":"3.0","epoch":"TREATMENT","spec":null,"method":null},{"seq":"17","testcd":"CREAT","test":"Creatinine","cat":"CHEMISTRY","orres":"62.22","orresu":"umol/L","stresc":"62.22","stresn":"62.22","stresu":"umol/L","stnrlo":"62","stnrhi":"106","nrind":"NORMAL","fast":null,"dtc":"2024-02-24","dy":"15","visit":"C1D15","visitnum":"3.0","epoch":"TREATMENT","spec":null,"method":null},{"seq":"18","testcd":"GLUC","test":"Glucose","cat":"CHEMISTRY","orres":"4.46","orresu":"mmol/L","stresc":"4.46","stresn":"4.46","stresu":"mmol/L","stnrlo":"3.9","stnrhi":"5.6","nrind":"NORMAL","fast":null,"dtc":"2024-02-24","dy":"15","visit":"C1D15","visitnum":"3.0","epoch":"TREATMENT","spec":null,"method":null},{"seq":"19","testcd":"HGB","test":"Hemoglobin","cat":"HEMATOLOGY","orres":"142.74","orresu":"g/L","stresc":"142.74","stresn":"142.74","stresu":"g/L","stnrlo":"130","stnrhi":"175","nrind":"NORMAL","fast":null,"dtc":"2024-02-24","dy":"15","visit":"C1D15","visitnum":"3.0","epoch":"TREATMENT","spec":null,"method":null},{"seq":"20","testcd":"PLAT","test":"Platelets","cat":"HEMATOLOGY","orres":"286.66","orresu":"10^9/L","stresc":"286.66","stresn":"286.66","stresu":"10^9/L","stnrlo":"150","stnrhi":"400","nrind":"NORMAL","fast":null,"dtc":"2024-02-24","dy":"15","visit":"C1D15","visitnum":"3.0","epoch":"TREATMENT","spec":null,"method":null},{"seq":"21","testcd":"WBC","test":"Leukocytes","cat":"HEMATOLOGY","orres":"7.66","orresu":"10^9/L","stresc":"7.66","stresn":"7.66","stresu":"10^9/L","stnrlo":"4.0","stnrhi":"11.0","nrind":"NORMAL","fast":null,"dtc":"2024-02-24","dy":"15","visit":"C1D15","visitnum":"3.0","epoch":"TREATMENT","spec":null,"method":null},{"seq":"22","testcd":"ALT","test":"Alanine Aminotransferase","cat":"CHEMISTRY","orres":"32.14","orresu":"U/L","stresc":"32.14","stresn":"32.14","stresu":"U/L","stnrlo":"7","stnrhi":"56","nrind":"NORMAL","fast":null,"dtc":"2024-03-12","dy":"32","visit":"C2D1","visitnum":"4.0","epoch":"TREATMENT","spec":null,"method":null},{"seq":"23","testcd":"AST","test":"Aspartate Aminotransferase","cat":"CHEMISTRY","orres":"24.29","orresu":"U/L","stresc":"24.29","stresn":"24.29","stresu":"U/L","stnrlo":"10","stnrhi":"40","nrind":"NORMAL","fast":null,"dtc":"2024-03-12","dy":"32","visit":"C2D1","visitnum":"4.0","epoch":"TREATMENT","spec":null,"method":null},{"seq":"24","testcd":"CREAT","test":"Creatinine","cat":"CHEMISTRY","orres":"63.87","orresu":"umol/L","stresc":"63.87","stresn":"63.87","stresu":"umol/L","stnrlo":"62","stnrhi":"106","nrind":"NORMAL","fast":null,"dtc":"2024-03-12","dy":"32","visit":"C2D1","visitnum":"4.0","epoch":"TREATMENT","spec":null,"method":null},{"seq":"25","testcd":"GLUC","test":"Glucose","cat":"CHEMISTRY","orres":"4.47","orresu":"mmol/L","stresc":"4.47","stresn":"4.47","stresu":"mmol/L","stnrlo":"3.9","stnrhi":"5.6","nrind":"NORMAL","fast":null,"dtc":"2024-03-12","dy":"32","visit":"C2D1","visitnum":"4.0","epoch":"TREATMENT","spec":null,"method":null},{"seq":"26","testcd":"HGB","test":"Hemoglobin","cat":"HEMATOLOGY","orres":"142.05","orresu":"g/L","stresc":"142.05","stresn":"142.05","stresu":"g/L","stnrlo":"130","stnrhi":"175","nrind":"NORMAL","fast":null,"dtc":"2024-03-12","dy":"32","visit":"C2D1","visitnum":"4.0","epoch":"TREATMENT","spec":null,"method":null},{"seq":"27","testcd":"PLAT","test":"Platelets","cat":"HEMATOLOGY","orres":"270.9","orresu":"10^9/L","stresc":"270.9","stresn":"270.9","stresu":"10^9/L","stnrlo":"150","stnrhi":"400","nrind":"NORMAL","fast":null,"dtc":"2024-03-12","dy":"32","visit":"C2D1","visitnum":"4.0","epoch":"TREATMENT","spec":null,"method":null},{"seq":"28","testcd":"WBC","test":"Leukocytes","cat":"HEMATOLOGY","orres":"7.53","orresu":"10^9/L","stresc":"7.53","stresn":"7.53","stresu":"10^9/L","stnrlo":"4.0","stnrhi":"11.0","nrind":"NORMAL","fast":null,"dtc":"2024-03-12","dy":"32","visit":"C2D1","visitnum":"4.0","epoch":"TREATMENT","spec":null,"method":null},{"seq":"29","testcd":"ALT","test":"Alanine Aminotransferase","cat":"CHEMISTRY","orres":"31.92","orresu":"U/L","stresc":"31.92","stresn":"31.92","stresu":"U/L","stnrlo":"7","stnrhi":"56","nrind":"NORMAL","fast":null,"dtc":"2024-05-02","dy":"83","visit":"C4D1","visitnum":"6.0","epoch":"TREATMENT","spec":null,"method":null},{"seq":"30","testcd":"AST","test":"Aspartate Aminotransferase","cat":"CHEMISTRY","orres":"24.82","orresu":"U/L","stresc":"24.82","stresn":"24.82","stresu":"U/L","stnrlo":"10","stnrhi":"40","nrind":"NORMAL","fast":null,"dtc":"2024-05-02","dy":"83","visit":"C4D1","visitnum":"6.0","epoch":"TREATMENT","spec":null,"method":null},{"seq":"31","testcd":"CREAT","test":"Creatinine","cat":"CHEMISTRY","orres":"64.66","orresu":"umol/L","stresc":"64.66","stresn":"64.66","stresu":"umol/L","stnrlo":"62","stnrhi":"106","nrind":"NORMAL","fast":null,"dtc":"2024-05-02","dy":"83","visit":"C4D1","visitnum":"6.0","epoch":"TREATMENT","spec":null,"method":null},{"seq":"32","testcd":"GLUC","test":"Glucose","cat":"CHEMISTRY","orres":"4.5","orresu":"mmol/L","stresc":"4.5","stresn":"4.5","stresu":"mmol/L","stnrlo":"3.9","stnrhi":"5.6","nrind":"NORMAL","fast":null,"dtc":"2024-05-02","dy":"83","visit":"C4D1","visitnum":"6.0","epoch":"TREATMENT","spec":null,"method":null},{"seq":"33","testcd":"HGB","test":"Hemoglobin","cat":"HEMATOLOGY","orres":"145.16","orresu":"g/L","stresc":"145.16","stresn":"145.16","stresu":"g/L","stnrlo":"130","stnrhi":"175","nrind":"NORMAL","fast":null,"dtc":"2024-05-02","dy":"83","visit":"C4D1","visitnum":"6.0","epoch":"TREATMENT","spec":null,"method":null},{"seq":"34","testcd":"PLAT","test":"Platelets","cat":"HEMATOLOGY","orres":"297.12","orresu":"10^9/L","stresc":"297.12","stresn":"297.12","stresu":"10^9/L","stnrlo":"150","stnrhi":"400","nrind":"NORMAL","fast":null,"dtc":"2024-05-02","dy":"83","visit":"C4D1","visitnum":"6.0","epoch":"TREATMENT","spec":null,"method":null},{"seq":"35","testcd":"WBC","test":"Leukocytes","cat":"HEMATOLOGY","orres":"7.21","orresu":"10^9/L","stresc":"7.21","stresn":"7.21","stresu":"10^9/L","stnrlo":"4.0","stnrhi":"11.0","nrind":"NORMAL","fast":null,"dtc":"2024-05-02","dy":"83","visit":"C4D1","visitnum":"6.0","epoch":"TREATMENT","spec":null,"method":null},{"seq":"36","testcd":"ALT","test":"Alanine Aminotransferase","cat":"CHEMISTRY","orres":"30.03","orresu":"U/L","stresc":"30.03","stresn":"30.03","stresu":"U/L","stnrlo":"7","stnrhi":"56","nrind":"NORMAL","fast":null,"dtc":"2024-06-27","dy":"139","visit":"C6D1","visitnum":"7.0","epoch":"TREATMENT","spec":null,"method":null},{"seq":"37","testcd":"AST","test":"Aspartate Aminotransferase","cat":"CHEMISTRY","orres":"25.79","orresu":"U/L","stresc":"25.79","stresn":"25.79","stresu":"U/L","stnrlo":"10","stnrhi":"40","nrind":"NORMAL","fast":null,"dtc":"2024-06-27","dy":"139","visit":"C6D1","visitnum":"7.0","epoch":"TREATMENT","spec":null,"method":null},{"seq":"38","testcd":"CREAT","test":"Creatinine","cat":"CHEMISTRY","orres":"64.1","orresu":"umol/L","stresc":"64.1","stresn":"64.1","stresu":"umol/L","stnrlo":"62","stnrhi":"106","nrind":"NORMAL","fast":null,"dtc":"2024-06-27","dy":"139","visit":"C6D1","visitnum":"7.0","epoch":"TREATMENT","spec":null,"method":null},{"seq":"39","testcd":"GLUC","test":"Glucose","cat":"CHEMISTRY","orres":"4.55","orresu":"mmol/L","stresc":"4.55","stresn":"4.55","stresu":"mmol/L","stnrlo":"3.9","stnrhi":"5.6","nrind":"NORMAL","fast":null,"dtc":"2024-06-27","dy":"139","visit":"C6D1","visitnum":"7.0","epoch":"TREATMENT","spec":null,"method":null},{"seq":"40","testcd":"HGB","test":"Hemoglobin","cat":"HEMATOLOGY","orres":null,"orresu":null,"stresc":null,"stresn":null,"stresu":null,"stnrlo":null,"stnrhi":null,"nrind":null,"fast":null,"dtc":"2024-06-27","dy":"139","visit":"C6D1","visitnum":"7.0","epoch":"TREATMENT","spec":null,"method":null},{"seq":"41","testcd":"PLAT","test":"Platelets","cat":"HEMATOLOGY","orres":"278.39","orresu":"10^9/L","stresc":"278.39","stresn":"278.39","stresu":"10^9/L","stnrlo":"150","stnrhi":"400","nrind":"NORMAL","fast":null,"dtc":"2024-06-27","dy":"139","visit":"C6D1","visitnum":"7.0","epoch":"TREATMENT","spec":null,"method":null},{"seq":"42","testcd":"WBC","test":"Leukocytes","cat":"HEMATOLOGY","orres":"7.91","orresu":"10^9/L","stresc":"7.91","stresn":"7.91","stresu":"10^9/L","stnrlo":"4.0","stnrhi":"11.0","nrind":"NORMAL","fast":null,"dtc":"2024-06-27","dy":"139","visit":"C6D1","visitnum":"7.0","epoch":"TREATMENT","spec":null,"method":null}]},"section_9_vital_signs":{"summary":{"total_records":48},"trends":{"BMI":[{"visit":"SCREENING","visitnum":"1.0","dtc":"2023-12-20","value":"24.6","unit":"kg/m2"},{"visit":"C1D1","visitnum":"2.0","dtc":"2024-02-10","value":"24.1","unit":"kg/m2"},{"visit":"C1D15","visitnum":"3.0","dtc":"2024-02-24","value":"24.1","unit":"kg/m2"},{"visit":"C2D1","visitnum":"4.0","dtc":"2024-03-12","value":"24.1","unit":"kg/m2"},{"visit":"C3D1","visitnum":"5.0","dtc":"2024-04-07","value":"23.8","unit":"kg/m2"},{"visit":"C6D1","visitnum":"7.0","dtc":"2024-06-27","value":"24.2","unit":"kg/m2"}],"DIABP":[{"visit":"SCREENING","visitnum":"1.0","dtc":"2023-12-20","value":"66.9","unit":"mmHg"},{"visit":"C1D1","visitnum":"2.0","dtc":"2024-02-10","value":"67.7","unit":"mmHg"},{"visit":"C1D15","visitnum":"3.0","dtc":"2024-02-24","value":"64.6","unit":"mmHg"},{"visit":"C2D1","visitnum":"4.0","dtc":"2024-03-12","value":"66.1","unit":"mmHg"},{"visit":"C3D1","visitnum":"5.0","dtc":"2024-04-07","value":"66.1","unit":"mmHg"},{"visit":"C6D1","visitnum":"7.0","dtc":"2024-06-27","value":"65.0","unit":"mmHg"}],"HEIGHT":[{"visit":"SCREENING","visitnum":"1.0","dtc":"2023-12-20","value":"176.4","unit":"cm"},{"visit":"C1D1","visitnum":"2.0","dtc":"2024-02-10","value":"177.2","unit":"cm"},{"visit":"C1D15","visitnum":"3.0","dtc":"2024-02-24","value":"177.2","unit":"cm"},{"visit":"C2D1","visitnum":"4.0","dtc":"2024-03-12","value":"177.4","unit":"cm"},{"visit":"C3D1","visitnum":"5.0","dtc":"2024-04-07","value":"177.2","unit":"cm"},{"visit":"C6D1","visitnum":"7.0","dtc":"2024-06-27","value":"176.8","unit":"cm"}],"PULSE":[{"visit":"SCREENING","visitnum":"1.0","dtc":"2023-12-20","value":"63.9","unit":"beats/min"},{"visit":"C1D1","visitnum":"2.0","dtc":"2024-02-10","value":"64.2","unit":"beats/min"},{"visit":"C1D15","visitnum":"3.0","dtc":"2024-02-24","value":"61.9","unit":"beats/min"},{"visit":"C2D1","visitnum":"4.0","dtc":"2024-03-12","value":"63.0","unit":"beats/min"},{"visit":"C3D1","visitnum":"5.0","dtc":"2024-04-07","value":"71.3","unit":"beats/min"},{"visit":"C6D1","visitnum":"7.0","dtc":"2024-06-27","value":"68.7","unit":"beats/min"}],"RESP":[{"visit":"SCREENING","visitnum":"1.0","dtc":"2023-12-20","value":"14.3","unit":"breaths/min"},{"visit":"C1D1","visitnum":"2.0","dtc":"2024-02-10","value":"15.5","unit":"breaths/min"},{"visit":"C1D15","visitnum":"3.0","dtc":"2024-02-24","value":"14.6","unit":"breaths/min"},{"visit":"C2D1","visitnum":"4.0","dtc":"2024-03-12","value":"13.9","unit":"breaths/min"},{"visit":"C3D1","visitnum":"5.0","dtc":"2024-04-07","value":"12.4","unit":"breaths/min"},{"visit":"C6D1","visitnum":"7.0","dtc":"2024-06-27","value":"11.4","unit":"breaths/min"}],"SYSBP":[{"visit":"SCREENING","visitnum":"1.0","dtc":"2023-12-20","value":"140.9","unit":"mmHg"},{"visit":"C1D1","visitnum":"2.0","dtc":"2024-02-10","value":"142.0","unit":"mmHg"},{"visit":"C1D15","visitnum":"3.0","dtc":"2024-02-24","value":"137.6","unit":"mmHg"},{"visit":"C2D1","visitnum":"4.0","dtc":"2024-03-12","value":"137.1","unit":"mmHg"},{"visit":"C3D1","visitnum":"5.0","dtc":"2024-04-07","value":"138.7","unit":"mmHg"},{"visit":"C6D1","visitnum":"7.0","dtc":"2024-06-27","value":"138.1","unit":"mmHg"}],"TEMP":[{"visit":"SCREENING","visitnum":"1.0","dtc":"2023-12-20","value":"37.3","unit":"C"},{"visit":"C1D1","visitnum":"2.0","dtc":"2024-02-10","value":"37.3","unit":"C"},{"visit":"C1D15","visitnum":"3.0","dtc":"2024-02-24","value":"37.2","unit":"C"},{"visit":"C2D1","visitnum":"4.0","dtc":"2024-03-12","value":"37.1","unit":"C"},{"visit":"C3D1","visitnum":"5.0","dtc":"2024-04-07","value":"37.1","unit":"C"},{"visit":"C6D1","visitnum":"7.0","dtc":"2024-06-27","value":"37.2","unit":"C"}],"WEIGHT":[{"visit":"SCREENING","visitnum":"1.0","dtc":"2023-12-20","value":"76.4","unit":"kg"},{"visit":"C1D1","visitnum":"2.0","dtc":"2024-02-10","value":"75.7","unit":"kg"},{"visit":"C1D15","visitnum":"3.0","dtc":"2024-02-24","value":"75.7","unit":"kg"},{"visit":"C2D1","visitnum":"4.0","dtc":"2024-03-12","value":"75.7","unit":"kg"},{"visit":"C3D1","visitnum":"5.0","dtc":"2024-04-07","value":"74.6","unit":"kg"},{"visit":"C6D1","visitnum":"7.0","dtc":"2024-06-27","value":"75.7","unit":"kg"}]},"results":[{"seq":"1","testcd":"BMI","test":"BMI","cat":null,"orres":"24.6","orresu":"kg/m2","stresc":"24.6","stresn":"24.6","stresu":"kg/m2","stnrlo":null,"stnrhi":null,"nrind":null,"pos":null,"loc":null,"dtc":"2023-12-20","dy":"-52","visit":"SCREENING","visitnum":"1.0","epoch":"SCREENING"},{"seq":"2","testcd":"DIABP","test":"Diastolic Blood Pressure","cat":null,"orres":"66.9","orresu":"mmHg","stresc":"66.9","stresn":"66.9","stresu":"mmHg","stnrlo":null,"stnrhi":null,"nrind":null,"pos":null,"loc":null,"dtc":"2023-12-20","dy":"-52","visit":"SCREENING","visitnum":"1.0","epoch":"SCREENING"},{"seq":"3","testcd":"HEIGHT","test":"Height","cat":null,"orres":"176.4","orresu":"cm","stresc":"176.4","stresn":"176.4","stresu":"cm","stnrlo":null,"stnrhi":null,"nrind":null,"pos":null,"loc":null,"dtc":"2023-12-20","dy":"-52","visit":"SCREENING","visitnum":"1.0","epoch":"SCREENING"},{"seq":"4","testcd":"PULSE","test":"Pulse Rate","cat":null,"orres":"63.9","orresu":"beats/min","stresc":"63.9","stresn":"63.9","stresu":"beats/min","stnrlo":null,"stnrhi":null,"nrind":null,"pos":null,"loc":null,"dtc":"2023-12-20","dy":"-52","visit":"SCREENING","visitnum":"1.0","epoch":"SCREENING"},{"seq":"5","testcd":"RESP","test":"Respiratory Rate","cat":null,"orres":"14.3","orresu":"breaths/min","stresc":"14.3","stresn":"14.3","stresu":"breaths/min","stnrlo":null,"stnrhi":null,"nrind":null,"pos":null,"loc":null,"dtc":"2023-12-20","dy":"-52","visit":"SCREENING","visitnum":"1.0","epoch":"SCREENING"},{"seq":"6","testcd":"SYSBP","test":"Systolic Blood Pressure","cat":null,"orres":"140.9","orresu":"mmHg","stresc":"140.9","stresn":"140.9","stresu":"mmHg","stnrlo":null,"stnrhi":null,"nrind":null,"pos":null,"loc":null,"dtc":"2023-12-20","dy":"-52","visit":"SCREENING","visitnum":"1.0","epoch":"SCREENING"},{"seq":"7","testcd":"TEMP","test":"Temperature","cat":null,"orres":"37.3","orresu":"C","stresc":"37.3","stresn":"37.3","stresu":"C","stnrlo":null,"stnrhi":null,"nrind":null,"pos":null,"loc":null,"dtc":"2023-12-20","dy":"-52","visit":"SCREENING","visitnum":"1.0","epoch":"SCREENING"},{"seq":"8","testcd":"WEIGHT","test":"Weight","cat":null,"orres":"76.4","orresu":"kg","stresc":"76.4","stresn":"76.4","stresu":"kg","stnrlo":null,"stnrhi":null,"nrind":null,"pos":null,"loc":null,"dtc":"2023-12-20","dy":"-52","visit":"SCREENING","visitnum":"1.0","epoch":"SCREENING"},{"seq":"9","testcd":"BMI","test":"BMI","cat":null,"orres":"24.1","orresu":"kg/m2","stresc":"24.1","stresn":"24.1","stresu":"kg/m2","stnrlo":null,"stnrhi":null,"nrind":null,"pos":null,"loc":null,"dtc":"2024-02-10","dy":"1","visit":"C1D1","visitnum":"2.0","epoch":"TREATMENT"},{"seq":"10","testcd":"DIABP","test":"Diastolic Blood Pressure","cat":null,"orres":"67.7","orresu":"mmHg","stresc":"67.7","stresn":"67.7","stresu":"mmHg","stnrlo":null,"stnrhi":null,"nrind":null,"pos":null,"loc":null,"dtc":"2024-02-10","dy":"1","visit":"C1D1","visitnum":"2.0","epoch":"TREATMENT"},{"seq":"11","testcd":"HEIGHT","test":"Height","cat":null,"orres":"177.2","orresu":"cm","stresc":"177.2","stresn":"177.2","stresu":"cm","stnrlo":null,"stnrhi":null,"nrind":null,"pos":null,"loc":null,"dtc":"2024-02-10","dy":"1","visit":"C1D1","visitnum":"2.0","epoch":"TREATMENT"},{"seq":"12","testcd":"PULSE","test":"Pulse Rate","cat":null,"orres":"64.2","orresu":"beats/min","stresc":"64.2","stresn":"64.2","stresu":"beats/min","stnrlo":null,"stnrhi":null,"nrind":null,"pos":null,"loc":null,"dtc":"2024-02-10","dy":"1","visit":"C1D1","visitnum":"2.0","epoch":"TREATMENT"},{"seq":"13","testcd":"RESP","test":"Respiratory Rate","cat":null,"orres":"15.5","orresu":"breaths/min","stresc":"15.5","stresn":"15.5","stresu":"breaths/min","stnrlo":null,"stnrhi":null,"nrind":null,"pos":null,"loc":null,"dtc":"2024-02-10","dy":"1","visit":"C1D1","visitnum":"2.0","epoch":"TREATMENT"},{"seq":"14","testcd":"SYSBP","test":"Systolic Blood Pressure","cat":null,"orres":"142.0","orresu":"mmHg","stresc":"142.0","stresn":"142.0","stresu":"mmHg","stnrlo":null,"stnrhi":null,"nrind":null,"pos":null,"loc":null,"dtc":"2024-02-10","dy":"1","visit":"C1D1","visitnum":"2.0","epoch":"TREATMENT"},{"seq":"15","testcd":"TEMP","test":"Temperature","cat":null,"orres":"37.3","orresu":"C","stresc":"37.3","stresn":"37.3","stresu":"C","stnrlo":null,"stnrhi":null,"nrind":null,"pos":null,"loc":null,"dtc":"2024-02-10","dy":"1","visit":"C1D1","visitnum":"2.0","epoch":"TREATMENT"},{"seq":"16","testcd":"WEIGHT","test":"Weight","cat":null,"orres":"75.7","orresu":"kg","stresc":"75.7","stresn":"75.7","stresu":"kg","stnrlo":null,"stnrhi":null,"nrind":null,"pos":null,"loc":null,"dtc":"2024-02-10","dy":"1","visit":"C1D1","visitnum":"2.0","epoch":"TREATMENT"},{"seq":"17","testcd":"BMI","test":"BMI","cat":null,"orres":"24.1","orresu":"kg/m2","stresc":"24.1","stresn":"24.1","stresu":"kg/m2","stnrlo":null,"stnrhi":null,"nrind":null,"pos":null,"loc":null,"dtc":"2024-02-24","dy":"15","visit":"C1D15","visitnum":"3.0","epoch":"TREATMENT"},{"seq":"18","testcd":"DIABP","test":"Diastolic Blood Pressure","cat":null,"orres":"64.6","orresu":"mmHg","stresc":"64.6","stresn":"64.6","stresu":"mmHg","stnrlo":null,"stnrhi":null,"nrind":null,"pos":null,"loc":null,"dtc":"2024-02-24","dy":"15","visit":"C1D15","visitnum":"3.0","epoch":"TREATMENT"},{"seq":"19","testcd":"HEIGHT","test":"Height","cat":null,"orres":"177.2","orresu":"cm","stresc":"177.2","stresn":"177.2","stresu":"cm","stnrlo":null,"stnrhi":null,"nrind":null,"pos":null,"loc":null,"dtc":"2024-02-24","dy":"15","visit":"C1D15","visitnum":"3.0","epoch":"TREATMENT"},{"seq":"20","testcd":"PULSE","test":"Pulse Rate","cat":null,"orres":"61.9","orresu":"beats/min","stresc":"61.9","stresn":"61.9","stresu":"beats/min","stnrlo":null,"stnrhi":null,"nrind":null,"pos":null,"loc":null,"dtc":"2024-02-24","dy":"15","visit":"C1D15","visitnum":"3.0","epoch":"TREATMENT"},{"seq":"21","testcd":"RESP","test":"Respiratory Rate","cat":null,"orres":"14.6","orresu":"breaths/min","stresc":"14.6","stresn":"14.6","stresu":"breaths/min","stnrlo":null,"stnrhi":null,"nrind":null,"pos":null,"loc":null,"dtc":"2024-02-24","dy":"15","visit":"C1D15","visitnum":"3.0","epoch":"TREATMENT"},{"seq":"22","testcd":"SYSBP","test":"Systolic Blood Pressure","cat":null,"orres":"137.6","orresu":"mmHg","stresc":"137.6","stresn":"137.6","stresu":"mmHg","stnrlo":null,"stnrhi":null,"nrind":null,"pos":null,"loc":null,"dtc":"2024-02-24","dy":"15","visit":"C1D15","visitnum":"3.0","epoch":"TREATMENT"},{"seq":"23","testcd":"TEMP","test":"Temperature","cat":null,"orres":"37.2","orresu":"C","stresc":"37.2","stresn":"37.2","stresu":"C","stnrlo":null,"stnrhi":null,"nrind":null,"pos":null,"loc":null,"dtc":"2024-02-24","dy":"15","visit":"C1D15","visitnum":"3.0","epoch":"TREATMENT"},{"seq":"24","testcd":"WEIGHT","test":"Weight","cat":null,"orres":"75.7","orresu":"kg","stresc":"75.7","stresn":"75.7","stresu":"kg","stnrlo":null,"stnrhi":null,"nrind":null,"pos":null,"loc":null,"dtc":"2024-02-24","dy":"15","visit":"C1D15","visitnum":"3.0","epoch":"TREATMENT"},{"seq":"25","testcd":"BMI","test":"BMI","cat":null,"orres":"24.1","orresu":"kg/m2","stresc":"24.1","stresn":"24.1","stresu":"kg/m2","stnrlo":null,"stnrhi":null,"nrind":null,"pos":null,"loc":null,"dtc":"2024-03-12","dy":"32","visit":"C2D1","visitnum":"4.0","epoch":"TREATMENT"},{"seq":"26","testcd":"DIABP","test":"Diastolic Blood Pressure","cat":null,"orres":"66.1","orresu":"mmHg","stresc":"66.1","stresn":"66.1","stresu":"mmHg","stnrlo":null,"stnrhi":null,"nrind":null,"pos":null,"loc":null,"dtc":"2024-03-12","dy":"32","visit":"C2D1","visitnum":"4.0","epoch":"TREATMENT"},{"seq":"27","testcd":"HEIGHT","test":"Height","cat":null,"orres":"177.4","orresu":"cm","stresc":"177.4","stresn":"177.4","stresu":"cm","stnrlo":null,"stnrhi":null,"nrind":null,"pos":null,"loc":null,"dtc":"2024-03-12","dy":"32","visit":"C2D1","visitnum":"4.0","epoch":"TREATMENT"},{"seq":"28","testcd":"PULSE","test":"Pulse Rate","cat":null,"orres":"63.0","orresu":"beats/min","stresc":"63.0","stresn":"63.0","stresu":"beats/min","stnrlo":null,"stnrhi":null,"nrind":null,"pos":null,"loc":null,"dtc":"2024-03-12","dy":"32","visit":"C2D1","visitnum":"4.0","epoch":"TREATMENT"},{"seq":"29","testcd":"RESP","test":"Respiratory Rate","cat":null,"orres":"13.9","orresu":"breaths/min","stresc":"13.9","stresn":"13.9","stresu":"breaths/min","stnrlo":null,"stnrhi":null,"nrind":null,"pos":null,"loc":null,"dtc":"2024-03-12","dy":"32","visit":"C2D1","visitnum":"4.0","epoch":"TREATMENT"},{"seq":"30","testcd":"SYSBP","test":"Systolic Blood Pressure","cat":null,"orres":"137.1","orresu":"mmHg","stresc":"137.1","stresn":"137.1","stresu":"mmHg","stnrlo":null,"stnrhi":null,"nrind":null,"pos":null,"loc":null,"dtc":"2024-03-12","dy":"32","visit":"C2D1","visitnum":"4.0","epoch":"TREATMENT"},{"seq":"31","testcd":"TEMP","test":"Temperature","cat":null,"orres":"37.1","orresu":"C","stresc":"37.1","stresn":"37.1","stresu":"C","stnrlo":null,"stnrhi":null,"nrind":null,"pos":null,"loc":null,"dtc":"2024-03-12","dy":"32","visit":"C2D1","visitnum":"4.0","epoch":"TREATMENT"},{"seq":"32","testcd":"WEIGHT","test":"Weight","cat":null,"orres":"75.7","orresu":"kg","stresc":"75.7","stresn":"75.7","stresu":"kg","stnrlo":null,"stnrhi":null,"nrind":null,"pos":null,"loc":null,"dtc":"2024-03-12","dy":"32","visit":"C2D1","visitnum":"4.0","epoch":"TREATMENT"},{"seq":"33","testcd":"BMI","test":"BMI","cat":null,"orres":"23.8","orresu":"kg/m2","stresc":"23.8","stresn":"23.8","stresu":"kg/m2","stnrlo":null,"stnrhi":null,"nrind":null,"pos":null,"loc":null,"dtc":"2024-04-07","dy":"58","visit":"C3D1","visitnum":"5.0","epoch":"TREATMENT"},{"seq":"34","testcd":"DIABP","test":"Diastolic Blood Pressure","cat":null,"orres":"66.1","orresu":"mmHg","stresc":"66.1","stresn":"66.1","stresu":"mmHg","stnrlo":null,"stnrhi":null,"nrind":null,"pos":null,"loc":null,"dtc":"2024-04-07","dy":"58","visit":"C3D1","visitnum":"5.0","epoch":"TREATMENT"},{"seq":"35","testcd":"HEIGHT","test":"Height","cat":null,"orres":"177.2","orresu":"cm","stresc":"177.2","stresn":"177.2","stresu":"cm","stnrlo":null,"stnrhi":null,"nrind":null,"pos":null,"loc":null,"dtc":"2024-04-07","dy":"58","visit":"C3D1","visitnum":"5.0","epoch":"TREATMENT"},{"seq":"36","testcd":"PULSE","test":"Pulse Rate","cat":null,"orres":"71.3","orresu":"beats/min","stresc":"71.3","stresn":"71.3","stresu":"beats/min","stnrlo":null,"stnrhi":null,"nrind":null,"pos":null,"loc":null,"dtc":"2024-04-07","dy":"58","visit":"C3D1","visitnum":"5.0","epoch":"TREATMENT"},{"seq":"37","testcd":"RESP","test":"Respiratory Rate","cat":null,"orres":"12.4","orresu":"breaths/min","stresc":"12.4","stresn":"12.4","stresu":"breaths/min","stnrlo":null,"stnrhi":null,"nrind":null,"pos":null,"loc":null,"dtc":"2024-04-07","dy":"58","visit":"C3D1","visitnum":"5.0","epoch":"TREATMENT"},{"seq":"38","testcd":"SYSBP","test":"Systolic Blood Pressure","cat":null,"orres":"138.7","orresu":"mmHg","stresc":"138.7","stresn":"138.7","stresu":"mmHg","stnrlo":null,"stnrhi":null,"nrind":null,"pos":null,"loc":null,"dtc":"2024-04-07","dy":"58","visit":"C3D1","visitnum":"5.0","epoch":"TREATMENT"},{"seq":"39","testcd":"TEMP","test":"Temperature","cat":null,"orres":"37.1","orresu":"C","stresc":"37.1","stresn":"37.1","stresu":"C","stnrlo":null,"stnrhi":null,"nrind":null,"pos":null,"loc":null,"dtc":"2024-04-07","dy":"58","visit":"C3D1","visitnum":"5.0","epoch":"TREATMENT"},{"seq":"40","testcd":"WEIGHT","test":"Weight","cat":null,"orres":"74.6","orresu":"kg","stresc":"74.6","stresn":"74.6","stresu":"kg","stnrlo":null,"stnrhi":null,"nrind":null,"pos":null,"loc":null,"dtc":"2024-04-07","dy":"58","visit":"C3D1","visitnum":"5.0","epoch":"TREATMENT"},{"seq":"41","testcd":"BMI","test":"BMI","cat":null,"orres":"24.2","orresu":"kg/m2","stresc":"24.2","stresn":"24.2","stresu":"kg/m2","stnrlo":null,"stnrhi":null,"nrind":null,"pos":null,"loc":null,"dtc":"2024-06-27","dy":"139","visit":"C6D1","visitnum":"7.0","epoch":"TREATMENT"},{"seq":"42","testcd":"DIABP","test":"Diastolic Blood Pressure","cat":null,"orres":"65.0","orresu":"mmHg","stresc":"65.0","stresn":"65.0","stresu":"mmHg","stnrlo":null,"stnrhi":null,"nrind":null,"pos":null,"loc":null,"dtc":"2024-06-27","dy":"139","visit":"C6D1","visitnum":"7.0","epoch":"TREATMENT"},{"seq":"43","testcd":"HEIGHT","test":"Height","cat":null,"orres":"176.8","orresu":"cm","stresc":"176.8","stresn":"176.8","stresu":"cm","stnrlo":null,"stnrhi":null,"nrind":null,"pos":null,"loc":null,"dtc":"2024-06-27","dy":"139","visit":"C6D1","visitnum":"7.0","epoch":"TREATMENT"},{"seq":"44","testcd":"PULSE","test":"Pulse Rate","cat":null,"orres":"68.7","orresu":"beats/min","stresc":"68.7","stresn":"68.7","stresu":"beats/min","stnrlo":null,"stnrhi":null,"nrind":null,"pos":null,"loc":null,"dtc":"2024-06-27","dy":"139","visit":"C6D1","visitnum":"7.0","epoch":"TREATMENT"},{"seq":"45","testcd":"RESP","test":"Respiratory Rate","cat":null,"orres":"11.4","orresu":"breaths/min","stresc":"11.4","stresn":"11.4","stresu":"breaths/min","stnrlo":null,"stnrhi":null,"nrind":null,"pos":null,"loc":null,"dtc":"2024-06-27","dy":"139","visit":"C6D1","visitnum":"7.0","epoch":"TREATMENT"},{"seq":"46","testcd":"SYSBP","test":"Systolic Blood Pressure","cat":null,"orres":"138.1","orresu":"mmHg","stresc":"138.1","stresn":"138.1","stresu":"mmHg","stnrlo":null,"stnrhi":null,"nrind":null,"pos":null,"loc":null,"dtc":"2024-06-27","dy":"139","visit":"C6D1","visitnum":"7.0","epoch":"TREATMENT"},{"seq":"47","testcd":"TEMP","test":"Temperature","cat":null,"orres":"37.2","orresu":"C","stresc":"37.2","stresn":"37.2","stresu":"C","stnrlo":null,"stnrhi":null,"nrind":null,"pos":null,"loc":null,"dtc":"2024-06-27","dy":"139","visit":"C6D1","visitnum":"7.0","epoch":"TREATMENT"},{"seq":"48","testcd":"WEIGHT","test":"Weight","cat":null,"orres":"75.7","orresu":"kg","stresc":"75.7","stresn":"75.7","stresu":"kg","stnrlo":null,"stnrhi":null,"nrind":null,"pos":null,"loc":null,"dtc":"2024-06-27","dy":"139","visit":"C6D1","visitnum":"7.0","epoch":"TREATMENT"}]},"section_10_questionnaires_and_scores":{"questionnaires":[],"findings_about":[{"seq":"1","testcd":"LDIAM","test":"Longest Diameter","cat":"TUMOR ASSESSMENT","orres":"9.5","stresc":"9.5","stresn":"9.5","dtc":"2024-01-27","visit":"SCREENING"},{"seq":"2","testcd":"SAXIS","test":"Short Axis","cat":"TUMOR ASSESSMENT","orres":"10.8","stresc":"10.8","stresn":"10.8","dtc":"2024-01-27","visit":"SCREENING"},{"seq":"3","testcd":"LDIAM","test":"Longest Diameter","cat":"TUMOR ASSESSMENT","orres":"50.7","stresc":"50.7","stresn":"50.7","dtc":"2024-01-27","visit":"SCREENING"},{"seq":"4","testcd":"SAXIS","test":"Short Axis","cat":"TUMOR ASSESSMENT","orres":"12.0","stresc":"12.0","stresn":"12.0","dtc":"2024-01-27","visit":"SCREENING"},{"seq":"5","testcd":"LDIAM","test":"Longest Diameter","cat":"TUMOR ASSESSMENT","orres":"37.4","stresc":"37.4","stresn":"37.4","dtc":"2024-01-27","visit":"SCREENING"},{"seq":"6","testcd":"SAXIS","test":"Short Axis","cat":"TUMOR ASSESSMENT","orres":"16.2","stresc":"16.2","stresn":"16.2","dtc":"2024-01-27","visit":"SCREENING"},{"seq":"7","testcd":"LDIAM","test":"Longest Diameter","cat":"TUMOR ASSESSMENT","orres":"20.5","stresc":"20.5","stresn":"20.5","dtc":"2024-01-27","visit":"SCREENING"},{"seq":"8","testcd":"SAXIS","test":"Short Axis","cat":"TUMOR ASSESSMENT","orres":"5.3","stresc":"5.3","stresn":"5.3","dtc":"2024-01-27","visit":"SCREENING"},{"seq":"9","testcd":"LDIAM","test":"Longest Diameter","cat":"TUMOR ASSESSMENT","orres":"8.6","stresc":"8.6","stresn":"8.6","dtc":"2024-02-10","visit":"C1D1"},{"seq":"10","testcd":"SAXIS","test":"Short Axis","cat":"TUMOR ASSESSMENT","orres":"11.6","stresc":"11.6","stresn":"11.6","dtc":"2024-02-10","visit":"C1D1"},{"seq":"11","testcd":"LDIAM","test":"Longest Diameter","cat":"TUMOR ASSESSMENT","orres":"50.9","stresc":"50.9","stresn":"50.9","dtc":"2024-02-10","visit":"C1D1"},{"seq":"12","testcd":"SAXIS","test":"Short Axis","cat":"TUMOR ASSESSMENT","orres":"12.1","stresc":"12.1","stresn":"12.1","dtc":"2024-02-10","visit":"C1D1"},{"seq":"13","testcd":"LDIAM","test":"Longest Diameter","cat":"TUMOR ASSESSMENT","orres":"35.3","stresc":"35.3","stresn":"35.3","dtc":"2024-02-10","visit":"C1D1"},{"seq":"14","testcd":"SAXIS","test":"Short Axis","cat":"TUMOR ASSESSMENT","orres":"14.9","stresc":"14.9","stresn":"14.9","dtc":"2024-02-10","visit":"C1D1"},{"seq":"15","testcd":"LDIAM","test":"Longest Diameter","cat":"TUMOR ASSESSMENT","orres":"22.0","stresc":"22.0","stresn":"22.0","dtc":"2024-02-10","visit":"C1D1"},{"seq":"16","testcd":"SAXIS","test":"Short Axis","cat":"TUMOR ASSESSMENT","orres":"5.2","stresc":"5.2","stresn":"5.2","dtc":"2024-02-10","visit":"C1D1"},{"seq":"17","testcd":"LDIAM","test":"Longest Diameter","cat":"TUMOR ASSESSMENT","orres":"5.2","stresc":"5.2","stresn":"5.2","dtc":"2024-02-24","visit":"C1D15"},{"seq":"18","testcd":"SAXIS","test":"Short Axis","cat":"TUMOR ASSESSMENT","orres":"9.8","stresc":"9.8","stresn":"9.8","dtc":"2024-02-24","visit":"C1D15"},{"seq":"19","testcd":"LDIAM","test":"Longest Diameter","cat":"TUMOR ASSESSMENT","orres":"50.4","stresc":"50.4","stresn":"50.4","dtc":"2024-02-24","visit":"C1D15"},{"seq":"20","testcd":"SAXIS","test":"Short Axis","cat":"TUMOR ASSESSMENT","orres":"11.9","stresc":"11.9","stresn":"11.9","dtc":"2024-02-24","visit":"C1D15"},{"seq":"21","testcd":"LDIAM","test":"Longest Diameter","cat":"TUMOR ASSESSMENT","orres":"35.7","stresc":"35.7","stresn":"35.7","dtc":"2024-02-24","visit":"C1D15"},{"seq":"22","testcd":"SAXIS","test":"Short Axis","cat":"TUMOR ASSESSMENT","orres":"15.6","stresc":"15.6","stresn":"15.6","dtc":"2024-02-24","visit":"C1D15"},{"seq":"23","testcd":"LDIAM","test":"Longest Diameter","cat":"TUMOR ASSESSMENT","orres":"20.0","stresc":"20.0","stresn":"20.0","dtc":"2024-02-24","visit":"C1D15"},{"seq":"24","testcd":"SAXIS","test":"Short Axis","cat":"TUMOR ASSESSMENT","orres":"5.5","stresc":"5.5","stresn":"5.5","dtc":"2024-02-24","visit":"C1D15"},{"seq":"25","testcd":"LDIAM","test":"Longest Diameter","cat":"TUMOR ASSESSMENT","orres":"10.2","stresc":"10.2","stresn":"10.2","dtc":"2024-03-09","visit":"C2D1"},{"seq":"26","testcd":"SAXIS","test":"Short Axis","cat":"TUMOR ASSESSMENT","orres":"10.0","stresc":"10.0","stresn":"10.0","dtc":"2024-03-09","visit":"C2D1"},{"seq":"27","testcd":"LDIAM","test":"Longest Diameter","cat":"TUMOR ASSESSMENT","orres":"51.7","stresc":"51.7","stresn":"51.7","dtc":"2024-03-09","visit":"C2D1"},{"seq":"28","testcd":"SAXIS","test":"Short Axis","cat":"TUMOR ASSESSMENT","orres":"11.1","stresc":"11.1","stresn":"11.1","dtc":"2024-03-09","visit":"C2D1"},{"seq":"29","testcd":"LDIAM","test":"Longest Diameter","cat":"TUMOR ASSESSMENT","orres":"34.7","stresc":"34.7","stresn":"34.7","dtc":"2024-03-09","visit":"C2D1"},{"seq":"30","testcd":"SAXIS","test":"Short Axis","cat":"TUMOR ASSESSMENT","orres":"15.9","stresc":"15.9","stresn":"15.9","dtc":"2024-03-09","visit":"C2D1"},{"seq":"31","testcd":"LDIAM","test":"Longest Diameter","cat":"TUMOR ASSESSMENT","orres":"18.3","stresc":"18.3","stresn":"18.3","dtc":"2024-03-09","visit":"C2D1"},{"seq":"32","testcd":"SAXIS","test":"Short Axis","cat":"TUMOR ASSESSMENT","orres":"5.7","stresc":"5.7","stresn":"5.7","dtc":"2024-03-09","visit":"C2D1"},{"seq":"33","testcd":"LDIAM","test":"Longest Diameter","cat":"TUMOR ASSESSMENT","orres":"8.3","stresc":"8.3","stresn":"8.3","dtc":"2024-04-06","visit":"C3D1"},{"seq":"34","testcd":"SAXIS","test":"Short Axis","cat":"TUMOR ASSESSMENT","orres":"10.5","stresc":"10.5","stresn":"10.5","dtc":"2024-04-06","visit":"C3D1"},{"seq":"35","testcd":"LDIAM","test":"Longest Diameter","cat":"TUMOR ASSESSMENT","orres":"48.3","stresc":"48.3","stresn":"48.3","dtc":"2024-04-06","visit":"C3D1"},{"seq":"36","testcd":"SAXIS","test":"Short Axis","cat":"TUMOR ASSESSMENT","orres":"12.5","stresc":"12.5","stresn":"12.5","dtc":"2024-04-06","visit":"C3D1"},{"seq":"37","testcd":"LDIAM","test":"Longest Diameter","cat":"TUMOR ASSESSMENT","orres":"32.0","stresc":"32.0","stresn":"32.0","dtc":"2024-04-06","visit":"C3D1"},{"seq":"38","testcd":"SAXIS","test":"Short Axis","cat":"TUMOR ASSESSMENT","orres":"15.6","stresc":"15.6","stresn":"15.6","dtc":"2024-04-06","visit":"C3D1"},{"seq":"39","testcd":"LDIAM","test":"Longest Diameter","cat":"TUMOR ASSESSMENT","orres":"19.3","stresc":"19.3","stresn":"19.3","dtc":"2024-04-06","visit":"C3D1"},{"seq":"40","testcd":"SAXIS","test":"Short Axis","cat":"TUMOR ASSESSMENT","orres":"4.3","stresc":"4.3","stresn":"4.3","dtc":"2024-04-06","visit":"C3D1"},{"seq":"41","testcd":"LDIAM","test":"Longest Diameter","cat":"TUMOR ASSESSMENT","orres":"9.0","stresc":"9.0","stresn":"9.0","dtc":"2024-05-04","visit":"C4D1"},{"seq":"42","testcd":"SAXIS","test":"Short Axis","cat":"TUMOR ASSESSMENT","orres":"9.8","stresc":"9.8","stresn":"9.8","dtc":"2024-05-04","visit":"C4D1"},{"seq":"43","testcd":"LDIAM","test":"Longest Diameter","cat":"TUMOR ASSESSMENT","orres":"49.8","stresc":"49.8","stresn":"49.8","dtc":"2024-05-04","visit":"C4D1"},{"seq":"44","testcd":"SAXIS","test":"Short Axis","cat":"TUMOR ASSESSMENT","orres":"11.4","stresc":"11.4","stresn":"11.4","dtc":"2024-05-04","visit":"C4D1"},{"seq":"45","testcd":"LDIAM","test":"Longest Diameter","cat":"TUMOR ASSESSMENT","orres":"36.6","stresc":"36.6","stresn":"36.6","dtc":"2024-05-04","visit":"C4D1"},{"seq":"46","testcd":"SAXIS","test":"Short Axis","cat":"TUMOR ASSESSMENT","orres":"15.9","stresc":"15.9","stresn":"15.9","dtc":"2024-05-04","visit":"C4D1"},{"seq":"47","testcd":"LDIAM","test":"Longest Diameter","cat":"TUMOR ASSESSMENT","orres":"19.2","stresc":"19.2","stresn":"19.2","dtc":"2024-05-04","visit":"C4D1"},{"seq":"48","testcd":"SAXIS","test":"Short Axis","cat":"TUMOR ASSESSMENT","orres":"5.4","stresc":"5.4","stresn":"5.4","dtc":"2024-05-04","visit":"C4D1"},{"seq":"49","testcd":"LDIAM","test":"Longest Diameter","cat":"TUMOR ASSESSMENT","orres":"6.6","stresc":"6.6","stresn":"6.6","dtc":"2024-06-29","visit":"C6D1"},{"seq":"50","testcd":"SAXIS","test":"Short Axis","cat":"TUMOR ASSESSMENT","orres":"10.5","stresc":"10.5","stresn":"10.5","dtc":"2024-06-29","visit":"C6D1"},{"seq":"51","testcd":"LDIAM","test":"Longest Diameter","cat":"TUMOR ASSESSMENT","orres":"45.0","stresc":"45.0","stresn":"45.0","dtc":"2024-06-29","visit":"C6D1"},{"seq":"52","testcd":"SAXIS","test":"Short Axis","cat":"TUMOR ASSESSMENT","orres":"11.8","stresc":"11.8","stresn":"11.8","dtc":"2024-06-29","visit":"C6D1"},{"seq":"53","testcd":"LDIAM","test":"Longest Diameter","cat":"TUMOR ASSESSMENT","orres":"38.4","stresc":"38.4","stresn":"38.4","dtc":"2024-06-29","visit":"C6D1"},{"seq":"54","testcd":"SAXIS","test":"Short Axis","cat":"TUMOR ASSESSMENT","orres":"15.9","stresc":"15.9","stresn":"15.9","dtc":"2024-06-29","visit":"C6D1"},{"seq":"55","testcd":"LDIAM","test":"Longest Diameter","cat":"TUMOR ASSESSMENT","orres":"20.6","stresc":"20.6","stresn":"20.6","dtc":"2024-06-29","visit":"C6D1"},{"seq":"56","testcd":"SAXIS","test":"Short Axis","cat":"TUMOR ASSESSMENT","orres":"4.6","stresc":"4.6","stresn":"4.6","dtc":"2024-06-29","visit":"C6D1"}]},"section_11_protocol_deviations":{"deviations":[{"seq":"1","term":"Missed TEPOTINIB dose on 2024-02-10","decod":"MISSED DOSE","cat":"MINOR","scat":"DOSING","start_dtc":"2024-02-10","end_dtc":null,"visit":null},{"seq":"2","term":"Missed TEPOTINIB dose on 2024-02-11","decod":"MISSED DOSE","cat":"MINOR","scat":"DOSING","start_dtc":"2024-02-11","end_dtc":null,"visit":null},{"seq":"3","term":"Missed TEPOTINIB dose on 2024-02-16","decod":"MISSED DOSE","cat":"MINOR","scat":"DOSING","start_dtc":"2024-02-16","end_dtc":null,"visit":null},{"seq":"4","term":"Missed TEPOTINIB dose on 2024-03-13","decod":"MISSED DOSE","cat":"MINOR","scat":"DOSING","start_dtc":"2024-03-13","end_dtc":null,"visit":null},{"seq":"5","term":"Missed TEPOTINIB dose on 2024-03-19","decod":"MISSED DOSE","cat":"MINOR","scat":"DOSING","start_dtc":"2024-03-19","end_dtc":null,"visit":null},{"seq":"6","term":"Missed TEPOTINIB dose on 2024-03-21","decod":"MISSED DOSE","cat":"MINOR","scat":"DOSING","start_dtc":"2024-03-21","end_dtc":null,"visit":null},{"seq":"7","term":"Missed TEPOTINIB dose on 2024-03-24","decod":"MISSED DOSE","cat":"MINOR","scat":"DOSING","start_dtc":"2024-03-24","end_dtc":null,"visit":null},{"seq":"8","term":"Missed TEPOTINIB dose on 2024-04-06","decod":"MISSED DOSE","cat":"MINOR","scat":"DOSING","start_dtc":"2024-04-06","end_dtc":null,"visit":null},{"seq":"9","term":"Visit C3D1 occurred 1 days late (Day 58 vs planned Day 57)","decod":"VISIT OCCURRED OUTSIDE VISIT WINDOW","cat":"MINOR","scat":"VISIT WINDOW","start_dtc":"2024-04-07","end_dtc":null,"visit":null},{"seq":"10","term":"Visit C6D1 occurred 2 days early (Day 139 vs planned Day 141)","decod":"VISIT OCCURRED OUTSIDE VISIT WINDOW","cat":"MINOR","scat":"VISIT WINDOW","start_dtc":"2024-06-27","end_dtc":null,"visit":null}],"total":10},"section_12_disposition":{"completion_status":"INFORMED CONSENT OBTAINED","disposition_records":[{"seq":"1","term":"INFORMED CONSENT OBTAINED","decod":"INFORMED CONSENT OBTAINED","cat":"PROTOCOL MILESTONE","scat":null,"dtc":"2024-01-27","dy":null,"visit":null,"epoch":"SCREENING"},{"seq":"2","term":"RANDOMIZED","decod":"RANDOMIZED","cat":"PROTOCOL MILESTONE","scat":null,"dtc":"2024-02-10","dy":null,"visit":null,"epoch":"TREATMENT"},{"seq":"3","term":"ADVERSE EVENT","decod":"ADVERSE EVENT","cat":"DISPOSITION EVENT","scat":null,"dtc":"2024-07-24","dy":null,"visit":null,"epoch":"TREATMENT"}],"death":null},"section_13_hospitalizations":{"items":[{"seq":"1","term":"Nausea","decod":"Nausea","cat":"HOSPITALIZATION","start_dtc":"2024-05-22","end_dtc":"2024-06-01","epoch":"TREATMENT"},{"seq":"2","term":"Oedema peripheral","decod":"Oedema peripheral","cat":"EMERGENCY ROOM VISIT","start_dtc":"2024-07-08","end_dtc":"2024-07-21","epoch":"TREATMENT"},{"seq":"3","term":"Dyspnoea","decod":"Dyspnoea","cat":"HOSPITALIZATION","start_dtc":"2024-07-24","end_dtc":"2024-07-24","epoch":"TREATMENT"}],"total":3},"section_14_substance_use":{"items":[{"seq":"1","substance":"ALCOHOL","decod":"ALCOHOL","cat":"ALCOHOL","scat":null,"usage":"Y","dose":null,"dosu":null,"freq":null,"start_dtc":"1995-02-03","end_dtc":"2020-01-28"},{"seq":"2","substance":"COFFEE","decod":"COFFEE","cat":"CAFFEINE","scat":null,"usage":"Y","dose":"1.0","dosu":"CUPS/DAY","freq":"QD","start_dtc":"2022-01-27","end_dtc":null},{"seq":"3","substance":"CIGARETTES","decod":"CIGARETTES","cat":"TOBACCO","scat":"CIGARETTES","usage":"N","dose":null,"dosu":null,"freq":null,"start_dtc":null,"end_dtc":null}],"total":3},"section_15_subject_status":{"items":[],"total":0}}