STUDYID,DOMAIN,USUBJID,SCSEQ,SCTESTCD,SCTEST,SCCAT,SCORRES,SCSTRESC,SCSTRESN,SCSTRESU,SCDTC,SCDY
VISION-NSCLC,SC,VISION-NSCLC-SITE001-0001,1,ALCUSE,Alcohol Use,LIFESTYLE,NON-DRINKER,NON-DRINKER,,,2024-03-07,-20
VISION-NSCLC,SC,VISION-NSCLC-SITE001-0001,2,BMI,Body Mass Index,PHYSICAL CHARACTERISTIC,24.6,24.6,24.6,kg/m2,2024-03-07,-20
VISION-NSCLC,SC,VISION-NSCLC-SITE001-0001,3,DURDIS,Duration of Disease,DISEASE HISTORY,97 months,97,97.0,MONTHS,2024-03-07,-20
VISION-NSCLC,SC,VISION-NSCLC-SITE001-0001,4,TOBUSE,Tobacco Use,LIFESTYLE,NEVER SMOKED,NEVER SMOKED,,,2024-03-07,-20
VISION-NSCLC,SC,VISION-NSCLC-SITE001-0007,1,ALCUSE,Alcohol Use,LIFESTYLE,CURRENT DRINKER,CURRENT DRINKER,,,2024-01-15,-29
VISION-NSCLC,SC,VISION-NSCLC-SITE001-0007,2,BMI,Body Mass Index,PHYSICAL CHARACTERISTIC,20.6,20.6,20.6,kg/m2,2024-01-15,-29
VISION-NSCLC,SC,VISION-NSCLC-SITE001-0007,3,DURDIS,Duration of Disease,DISEASE HISTORY,97 months,97,97.0,MONTHS,2024-01-15,-29
VISION-NSCLC,SC,VISION-NSCLC-SITE001-0007,4,TOBPKYR,Tobacco Pack-Years,LIFESTYLE,27,27,27.0,PACK-YEARS,2024-01-15,-29
VISION-NSCLC,SC,VISION-NSCLC-SITE001-0007,5,TOBUSE,Tobacco Use,LIFESTYLE,FORMER SMOKER,FORMER SMOKER,,,2024-01-15,-29
VISION-NSCLC,SC,VISION-NSCLC-SITE001-0010,1,ALCUSE,Alcohol Use,LIFESTYLE,CURRENT DRINKER,CURRENT DRINKER,,,2024-01-28,-8
VISION-NSCLC,SC,VISION-NSCLC-SITE001-0010,2,BMI,Body Mass Index,PHYSICAL CHARACTERISTIC,27.5,27.5,27.5,kg/m2,2024-01-28,-8
VISION-NSCLC,SC,VISION-NSCLC-SITE001-0010,3,DURDIS,Duration of Disease,DISEASE HISTORY,60 months,60,60.0,MONTHS,2024-01-28,-8
VISION-NSCLC,SC,VISION-NSCLC-SITE001-0010,4,TOBPKYR,Tobacco Pack-Years,LIFESTYLE,14,14,14.0,PACK-YEARS,2024-01-28,-8
VISION-NSCLC,SC,VISION-NSCLC-SITE001-0010,5,TOBUSE,Tobacco Use,LIFESTYLE,CURRENT SMOKER,CURRENT SMOKER,,,2024-01-28,-8
VISION-NSCLC,SC,VISION-NSCLC-SITE001-0016,1,ALCUSE,Alcohol Use,LIFESTYLE,CURRENT DRINKER,CURRENT DRINKER,,,2024-03-31,-11
VISION-NSCLC,SC,VISION-NSCLC-SITE001-0016,2,BMI,Body Mass Index,PHYSICAL CHARACTERISTIC,20.6,20.6,20.6,kg/m2,2024-03-31,-11
VISION-NSCLC,SC,VISION-NSCLC-SITE001-0016,3,DURDIS,Duration of Disease,DISEASE HISTORY,48 months,48,48.0,MONTHS,2024-03-31,-11
VISION-NSCLC,SC,VISION-NSCLC-SITE001-0016,4,TOBPKYR,Tobacco Pack-Years,LIFESTYLE,30,30,30.0,PACK-YEARS,2024-03-31,-11
VISION-NSCLC,SC,VISION-NSCLC-SITE001-0016,5,TOBUSE,Tobacco Use,LIFESTYLE,CURRENT SMOKER,CURRENT SMOKER,,,2024-03-31,-11
VISION-NSCLC,SC,VISION-NSCLC-SITE001-0019,1,ALCUSE,Alcohol Use,LIFESTYLE,NON-DRINKER,NON-DRINKER,,,2024-02-21,-34
VISION-NSCLC,SC,VISION-NSCLC-SITE001-0019,2,BMI,Body Mass Index,PHYSICAL CHARACTERISTIC,32.9,32.9,32.9,kg/m2,2024-02-21,-34
VISION-NSCLC,SC,VISION-NSCLC-SITE001-0019,3,DURDIS,Duration of Disease,DISEASE HISTORY,73 months,73,73.0,MONTHS,2024-02-21,-34
VISION-NSCLC,SC,VISION-NSCLC-SITE001-0019,4,TOBUSE,Tobacco Use,LIFESTYLE,NEVER SMOKED,NEVER SMOKED,,,2024-02-21,-34
VISION-NSCLC,SC,VISION-NSCLC-SITE001-0022,1,ALCUSE,Alcohol Use,LIFESTYLE,CURRENT DRINKER,CURRENT DRINKER,,,2024-01-25,-34
VISION-NSCLC,SC,VISION-NSCLC-SITE001-0022,2,BMI,Body Mass Index,PHYSICAL CHARACTERISTIC,27.6,27.6,27.6,kg/m2,2024-01-25,-34
VISION-NSCLC,SC,VISION-NSCLC-SITE001-0022,3,DURDIS,Duration of Disease,DISEASE HISTORY,73 months,73,73.0,MONTHS,2024-01-25,-34
VISION-NSCLC,SC,VISION-NSCLC-SITE001-0022,4,TOBUSE,Tobacco Use,LIFESTYLE,NEVER SMOKED,NEVER SMOKED,,,2024-01-25,-34
VISION-NSCLC,SC,VISION-NSCLC-SITE001-0025,1,ALCUSE,Alcohol Use,LIFESTYLE,NON-DRINKER,NON-DRINKER,,,2024-03-04,-10
VISION-NSCLC,SC,VISION-NSCLC-SITE001-0025,2,BMI,Body Mass Index,PHYSICAL CHARACTERISTIC,27.5,27.5,27.5,kg/m2,2024-03-04,-10
VISION-NSCLC,SC,VISION-NSCLC-SITE001-0025,3,DURDIS,Duration of Disease,DISEASE HISTORY,97 months,97,97.0,MONTHS,2024-03-04,-10
VISION-NSCLC,SC,VISION-NSCLC-SITE001-0025,4,TOBPKYR,Tobacco Pack-Years,LIFESTYLE,23,23,23.0,PACK-YEARS,2024-03-04,-10
VISION-NSCLC,SC,VISION-NSCLC-SITE001-0025,5,TOBUSE,Tobacco Use,LIFESTYLE,FORMER SMOKER,FORMER SMOKER,,,2024-03-04,-10
VISION-NSCLC,SC,VISION-NSCLC-SITE001-0028,1,ALCUSE,Alcohol Use,LIFESTYLE,CURRENT DRINKER,CURRENT DRINKER,,,2024-02-11,-10
VISION-NSCLC,SC,VISION-NSCLC-SITE001-0028,2,BMI,Body Mass Index,PHYSICAL CHARACTERISTIC,22.0,22.0,22.0,kg/m2,2024-02-11,-10
VISION-NSCLC,SC,VISION-NSCLC-SITE001-0028,3,DURDIS,Duration of Disease,DISEASE HISTORY,97 months,97,97.0,MONTHS,2024-02-11,-10
VISION-NSCLC,SC,VISION-NSCLC-SITE001-0028,4,TOBUSE,Tobacco Use,LIFESTYLE,NEVER SMOKED,NEVER SMOKED,,,2024-02-11,-10
VISION-NSCLC,SC,VISION-NSCLC-SITE001-0031,1,ALCUSE,Alcohol Use,LIFESTYLE,HEAVY DRINKER,HEAVY DRINKER,,,2024-02-02,-33
VISION-NSCLC,SC,VISION-NSCLC-SITE001-0031,2,BMI,Body Mass Index,PHYSICAL CHARACTERISTIC,18.8,18.8,18.8,kg/m2,2024-02-02,-33
VISION-NSCLC,SC,VISION-NSCLC-SITE001-0031,3,DURDIS,Duration of Disease,DISEASE HISTORY,97 months,97,97.0,MONTHS,2024-02-02,-33
VISION-NSCLC,SC,VISION-NSCLC-SITE001-0031,4,TOBUSE,Tobacco Use,LIFESTYLE,NEVER SMOKED,NEVER SMOKED,,,2024-02-02,-33
VISION-NSCLC,SC,VISION-NSCLC-SITE001-0034,1,ALCUSE,Alcohol Use,LIFESTYLE,NON-DRINKER,NON-DRINKER,,,2024-02-18,-14
VISION-NSCLC,SC,VISION-NSCLC-SITE001-0034,2,BMI,Body Mass Index,PHYSICAL CHARACTERISTIC,23.0,23.0,23.0,kg/m2,2024-02-18,-14
VISION-NSCLC,SC,VISION-NSCLC-SITE001-0034,3,DURDIS,Duration of Disease,DISEASE HISTORY,121 months,121,121.0,MONTHS,2024-02-18,-14
VISION-NSCLC,SC,VISION-NSCLC-SITE001-0034,4,TOBUSE,Tobacco Use,LIFESTYLE,NEVER SMOKED,NEVER SMOKED,,,2024-02-18,-14
VISION-NSCLC,SC,VISION-NSCLC-SITE001-0037,1,ALCUSE,Alcohol Use,LIFESTYLE,CURRENT DRINKER,CURRENT DRINKER,,,2024-03-11,-13
VISION-NSCLC,SC,VISION-NSCLC-SITE001-0037,2,BMI,Body Mass Index,PHYSICAL CHARACTERISTIC,22.4,22.4,22.4,kg/m2,2024-03-11,-13
VISION-NSCLC,SC,VISION-NSCLC-SITE001-0037,3,DURDIS,Duration of Disease,DISEASE HISTORY,121 months,121,121.0,MONTHS,2024-03-11,-13
VISION-NSCLC,SC,VISION-NSCLC-SITE001-0037,4,TOBUSE,Tobacco Use,LIFESTYLE,NEVER SMOKED,NEVER SMOKED,,,2024-03-11,-13
VISION-NSCLC,SC,VISION-NSCLC-SITE001-0040,1,ALCUSE,Alcohol Use,LIFESTYLE,HEAVY DRINKER,HEAVY DRINKER,,,2024-03-14,-19
VISION-NSCLC,SC,VISION-NSCLC-SITE001-0040,2,BMI,Body Mass Index,PHYSICAL CHARACTERISTIC,32.1,32.1,32.1,kg/m2,2024-03-14,-19
VISION-NSCLC,SC,VISION-NSCLC-SITE001-0040,3,DURDIS,Duration of Disease,DISEASE HISTORY,85 months,85,85.0,MONTHS,2024-03-14,-19
VISION-NSCLC,SC,VISION-NSCLC-SITE001-0040,4,TOBPKYR,Tobacco Pack-Years,LIFESTYLE,30,30,30.0,PACK-YEARS,2024-03-14,-19
VISION-NSCLC,SC,VISION-NSCLC-SITE001-0040,5,TOBUSE,Tobacco Use,LIFESTYLE,FORMER SMOKER,FORMER SMOKER,,,2024-03-14,-19
VISION-NSCLC,SC,VISION-NSCLC-SITE001-0043,1,ALCUSE,Alcohol Use,LIFESTYLE,CURRENT DRINKER,CURRENT DRINKER,,,2024-03-14,-12
VISION-NSCLC,SC,VISION-NSCLC-SITE001-0043,2,BMI,Body Mass Index,PHYSICAL CHARACTERISTIC,25.5,25.5,25.5,kg/m2,2024-03-14,-12
VISION-NSCLC,SC,VISION-NSCLC-SITE001-0043,3,TOBPKYR,Tobacco Pack-Years,LIFESTYLE,35,35,35.0,PACK-YEARS,2024-03-14,-12
VISION-NSCLC,SC,VISION-NSCLC-SITE001-0043,4,TOBUSE,Tobacco Use,LIFESTYLE,FORMER SMOKER,FORMER SMOKER,,,2024-03-14,-12
VISION-NSCLC,SC,VISION-NSCLC-SITE001-0046,1,ALCUSE,Alcohol Use,LIFESTYLE,NON-DRINKER,NON-DRINKER,,,2024-03-22,-7
VISION-NSCLC,SC,VISION-NSCLC-SITE001-0046,2,BMI,Body Mass Index,PHYSICAL CHARACTERISTIC,28.3,28.3,28.3,kg/m2,2024-03-22,-7
VISION-NSCLC,SC,VISION-NSCLC-SITE001-0046,3,DURDIS,Duration of Disease,DISEASE HISTORY,97 months,97,97.0,MONTHS,2024-03-22,-7
VISION-NSCLC,SC,VISION-NSCLC-SITE001-0046,4,TOBPKYR,Tobacco Pack-Years,LIFESTYLE,33,33,33.0,PACK-YEARS,2024-03-22,-7
VISION-NSCLC,SC,VISION-NSCLC-SITE001-0046,5,TOBUSE,Tobacco Use,LIFESTYLE,FORMER SMOKER,FORMER SMOKER,,,2024-03-22,-7
VISION-NSCLC,SC,VISION-NSCLC-SITE001-0049,1,ALCUSE,Alcohol Use,LIFESTYLE,NON-DRINKER,NON-DRINKER,,,2024-02-14,-21
VISION-NSCLC,SC,VISION-NSCLC-SITE001-0049,2,BMI,Body Mass Index,PHYSICAL CHARACTERISTIC,18.4,18.4,18.4,kg/m2,2024-02-14,-21
VISION-NSCLC,SC,VISION-NSCLC-SITE001-0049,3,DURDIS,Duration of Disease,DISEASE HISTORY,109 months,109,109.0,MONTHS,2024-02-14,-21
VISION-NSCLC,SC,VISION-NSCLC-SITE001-0049,4,TOBPKYR,Tobacco Pack-Years,LIFESTYLE,8,8,8.0,PACK-YEARS,2024-02-14,-21
VISION-NSCLC,SC,VISION-NSCLC-SITE001-0049,5,TOBUSE,Tobacco Use,LIFESTYLE,FORMER SMOKER,FORMER SMOKER,,,2024-02-14,-21
VISION-NSCLC,SC,VISION-NSCLC-SITE001-0052,1,ALCUSE,Alcohol Use,LIFESTYLE,CURRENT DRINKER,CURRENT DRINKER,,,2024-02-12,-19
VISION-NSCLC,SC,VISION-NSCLC-SITE001-0052,2,BMI,Body Mass Index,PHYSICAL CHARACTERISTIC,24.7,24.7,24.7,kg/m2,2024-02-12,-19
VISION-NSCLC,SC,VISION-NSCLC-SITE001-0052,3,DURDIS,Duration of Disease,DISEASE HISTORY,97 months,97,97.0,MONTHS,2024-02-12,-19
VISION-NSCLC,SC,VISION-NSCLC-SITE001-0052,4,TOBPKYR,Tobacco Pack-Years,LIFESTYLE,26,26,26.0,PACK-YEARS,2024-02-12,-19
VISION-NSCLC,SC,VISION-NSCLC-SITE001-0052,5,TOBUSE,Tobacco Use,LIFESTYLE,FORMER SMOKER,FORMER SMOKER,,,2024-02-12,-19
VISION-NSCLC,SC,VISION-NSCLC-SITE001-0055,1,ALCUSE,Alcohol Use,LIFESTYLE,NON-DRINKER,NON-DRINKER,,,2024-01-27,-30
VISION-NSCLC,SC,VISION-NSCLC-SITE001-0055,2,BMI,Body Mass Index,PHYSICAL CHARACTERISTIC,29.7,29.7,29.7,kg/m2,2024-01-27,-30
VISION-NSCLC,SC,VISION-NSCLC-SITE001-0055,3,DURDIS,Duration of Disease,DISEASE HISTORY,85 months,85,85.0,MONTHS,2024-01-27,-30
VISION-NSCLC,SC,VISION-NSCLC-SITE001-0055,4,TOBUSE,Tobacco Use,LIFESTYLE,NEVER SMOKED,NEVER SMOKED,,,2024-01-27,-30
VISION-NSCLC,SC,VISION-NSCLC-SITE001-0058,1,ALCUSE,Alcohol Use,LIFESTYLE,NON-DRINKER,NON-DRINKER,,,2024-03-03,-32
VISION-NSCLC,SC,VISION-NSCLC-SITE001-0058,2,BMI,Body Mass Index,PHYSICAL CHARACTERISTIC,16.8,16.8,16.8,kg/m2,2024-03-03,-32
VISION-NSCLC,SC,VISION-NSCLC-SITE001-0058,3,DURDIS,Duration of Disease,DISEASE HISTORY,73 months,73,73.0,MONTHS,2024-03-03,-32
VISION-NSCLC,SC,VISION-NSCLC-SITE001-0058,4,TOBUSE,Tobacco Use,LIFESTYLE,NEVER SMOKED,NEVER SMOKED,,,2024-03-03,-32
VISION-NSCLC,SC,VISION-NSCLC-SITE001-0061,1,ALCUSE,Alcohol Use,LIFESTYLE,NON-DRINKER,NON-DRINKER,,,2024-03-11,-14
VISION-NSCLC,SC,VISION-NSCLC-SITE001-0061,2,BMI,Body Mass Index,PHYSICAL CHARACTERISTIC,29.6,29.6,29.6,kg/m2,2024-03-11,-14
VISION-NSCLC,SC,VISION-NSCLC-SITE001-0061,3,DURDIS,Duration of Disease,DISEASE HISTORY,85 months,85,85.0,MONTHS,2024-03-11,-14
VISION-NSCLC,SC,VISION-NSCLC-SITE001-0061,4,TOBUSE,Tobacco Use,LIFESTYLE,NEVER SMOKED,NEVER SMOKED,,,2024-03-11,-14
VISION-NSCLC,SC,VISION-NSCLC-SITE001-0064,1,ALCUSE,Alcohol Use,LIFESTYLE,CURRENT DRINKER,CURRENT DRINKER,,,2024-03-06,-12
VISION-NSCLC,SC,VISION-NSCLC-SITE001-0064,2,BMI,Body Mass Index,PHYSICAL CHARACTERISTIC,20.8,20.8,20.8,kg/m2,2024-03-06,-12
VISION-NSCLC,SC,VISION-NSCLC-SITE001-0064,3,TOBUSE,Tobacco Use,LIFESTYLE,NEVER SMOKED,NEVER SMOKED,,,2024-03-06,-12
VISION-NSCLC,SC,VISION-NSCLC-SITE001-0067,1,ALCUSE,Alcohol Use,LIFESTYLE,NON-DRINKER,NON-DRINKER,,,2024-03-30,-25
VISION-NSCLC,SC,VISION-NSCLC-SITE001-0067,2,BMI,Body Mass Index,PHYSICAL CHARACTERISTIC,23.4,23.4,23.4,kg/m2,2024-03-30,-25
VISION-NSCLC,SC,VISION-NSCLC-SITE001-0067,3,DURDIS,Duration of Disease,DISEASE HISTORY,121 months,121,121.0,MONTHS,2024-03-30,-25
VISION-NSCLC,SC,VISION-NSCLC-SITE001-0067,4,TOBUSE,Tobacco Use,LIFESTYLE,NEVER SMOKED,NEVER SMOKED,,,2024-03-30,-25
VISION-NSCLC,SC,VISION-NSCLC-SITE001-0070,1,ALCUSE,Alcohol Use,LIFESTYLE,NON-DRINKER,NON-DRINKER,,,2024-01-19,-10
VISION-NSCLC,SC,VISION-NSCLC-SITE001-0070,2,BMI,Body Mass Index,PHYSICAL CHARACTERISTIC,32.5,32.5,32.5,kg/m2,2024-01-19,-10
VISION-NSCLC,SC,VISION-NSCLC-SITE001-0070,3,DURDIS,Duration of Disease,DISEASE HISTORY,85 months,85,85.0,MONTHS,2024-01-19,-10
VISION-NSCLC,SC,VISION-NSCLC-SITE001-0070,4,TOBPKYR,Tobacco Pack-Years,LIFESTYLE,9,9,9.0,PACK-YEARS,2024-01-19,-10
VISION-NSCLC,SC,VISION-NSCLC-SITE001-0070,5,TOBUSE,Tobacco Use,LIFESTYLE,FORMER SMOKER,FORMER SMOKER,,,2024-01-19,-10
VISION-NSCLC,SC,VISION-NSCLC-SITE001-0073,1,ALCUSE,Alcohol Use,LIFESTYLE,NON-DRINKER,NON-DRINKER,,,2024-01-15,-11
VISION-NSCLC,SC,VISION-NSCLC-SITE001-0073,2,BMI,Body Mass Index,PHYSICAL CHARACTERISTIC,31.6,31.6,31.6,kg/m2,2024-01-15,-11
VISION-NSCLC,SC,VISION-NSCLC-SITE001-0073,3,DURDIS,Duration of Disease,DISEASE HISTORY,60 months,60,60.0,MONTHS,2024-01-15,-11
VISION-NSCLC,SC,VISION-NSCLC-SITE001-0073,4,TOBPKYR,Tobacco Pack-Years,LIFESTYLE,28,28,28.0,PACK-YEARS,2024-01-15,-11
VISION-NSCLC,SC,VISION-NSCLC-SITE001-0073,5,TOBUSE,Tobacco Use,LIFESTYLE,FORMER SMOKER,FORMER SMOKER,,,2024-01-15,-11
VISION-NSCLC,SC,VISION-NSCLC-SITE001-0076,1,ALCUSE,Alcohol Use,LIFESTYLE,CURRENT DRINKER,CURRENT DRINKER,,,2024-04-09,-23
VISION-NSCLC,SC,VISION-NSCLC-SITE001-0076,2,BMI,Body Mass Index,PHYSICAL CHARACTERISTIC,22.2,22.2,22.2,kg/m2,2024-04-09,-23
VISION-NSCLC,SC,VISION-NSCLC-SITE001-0076,3,TOBPKYR,Tobacco Pack-Years,LIFESTYLE,15,15,15.0,PACK-YEARS,2024-04-09,-23
VISION-NSCLC,SC,VISION-NSCLC-SITE001-0076,4,TOBUSE,Tobacco Use,LIFESTYLE,FORMER SMOKER,FORMER SMOKER,,,2024-04-09,-23
VISION-NSCLC,SC,VISION-NSCLC-SITE001-0079,1,ALCUSE,Alcohol Use,LIFESTYLE,CURRENT DRINKER,CURRENT DRINKER,,,2024-02-18,-30
VISION-NSCLC,SC,VISION-NSCLC-SITE001-0079,2,BMI,Body Mass Index,PHYSICAL CHARACTERISTIC,17.6,17.6,17.6,kg/m2,2024-02-18,-30
VISION-NSCLC,SC,VISION-NSCLC-SITE001-0079,3,DURDIS,Duration of Disease,DISEASE HISTORY,48 months,48,48.0,MONTHS,2024-02-18,-30
VISION-NSCLC,SC,VISION-NSCLC-SITE001-0079,4,TOBPKYR,Tobacco Pack-Years,LIFESTYLE,13,13,13.0,PACK-YEARS,2024-02-18,-30
VISION-NSCLC,SC,VISION-NSCLC-SITE001-0079,5,TOBUSE,Tobacco Use,LIFESTYLE,FORMER SMOKER,FORMER SMOKER,,,2024-02-18,-30
VISION-NSCLC,SC,VISION-NSCLC-SITE001-0082,1,ALCUSE,Alcohol Use,LIFESTYLE,NON-DRINKER,NON-DRINKER,,,2024-01-22,-34
VISION-NSCLC,SC,VISION-NSCLC-SITE001-0082,2,BMI,Body Mass Index,PHYSICAL CHARACTERISTIC,26.3,26.3,26.3,kg/m2,2024-01-22,-34
VISION-NSCLC,SC,VISION-NSCLC-SITE001-0082,3,TOBUSE,Tobacco Use,LIFESTYLE,NEVER SMOKED,NEVER SMOKED,,,2024-01-22,-34
VISION-NSCLC,SC,VISION-NSCLC-SITE001-0085,1,ALCUSE,Alcohol Use,LIFESTYLE,NON-DRINKER,NON-DRINKER,,,2024-02-02,-26
VISION-NSCLC,SC,VISION-NSCLC-SITE001-0085,2,BMI,Body Mass Index,PHYSICAL CHARACTERISTIC,16.9,16.9,16.9,kg/m2,2024-02-02,-26
VISION-NSCLC,SC,VISION-NSCLC-SITE001-0085,3,DURDIS,Duration of Disease,DISEASE HISTORY,121 months,121,121.0,MONTHS,2024-02-02,-26
VISION-NSCLC,SC,VISION-NSCLC-SITE001-0085,4,TOBUSE,Tobacco Use,LIFESTYLE,NEVER SMOKED,NEVER SMOKED,,,2024-02-02,-26
VISION-NSCLC,SC,VISION-NSCLC-SITE001-0088,1,ALCUSE,Alcohol Use,LIFESTYLE,CURRENT DRINKER,CURRENT DRINKER,,,2024-02-11,-17
VISION-NSCLC,SC,VISION-NSCLC-SITE001-0088,2,BMI,Body Mass Index,PHYSICAL CHARACTERISTIC,25.0,25.0,25.0,kg/m2,2024-02-11,-17
VISION-NSCLC,SC,VISION-NSCLC-SITE001-0088,3,DURDIS,Duration of Disease,DISEASE HISTORY,85 months,85,85.0,MONTHS,2024-02-11,-17
VISION-NSCLC,SC,VISION-NSCLC-SITE001-0088,4,TOBPKYR,Tobacco Pack-Years,LIFESTYLE,32,32,32.0,PACK-YEARS,2024-02-11,-17
VISION-NSCLC,SC,VISION-NSCLC-SITE001-0088,5,TOBUSE,Tobacco Use,LIFESTYLE,FORMER SMOKER,FORMER SMOKER,,,2024-02-11,-17
VISION-NSCLC,SC,VISION-NSCLC-SITE001-0091,1,ALCUSE,Alcohol Use,LIFESTYLE,NON-DRINKER,NON-DRINKER,,,2024-02-28,-19
VISION-NSCLC,SC,VISION-NSCLC-SITE001-0091,2,BMI,Body Mass Index,PHYSICAL CHARACTERISTIC,21.2,21.2,21.2,kg/m2,2024-02-28,-19
VISION-NSCLC,SC,VISION-NSCLC-SITE001-0091,3,DURDIS,Duration of Disease,DISEASE HISTORY,85 months,85,85.0,MONTHS,2024-02-28,-19
VISION-NSCLC,SC,VISION-NSCLC-SITE001-0091,4,TOBUSE,Tobacco Use,LIFESTYLE,NEVER SMOKED,NEVER SMOKED,,,2024-02-28,-19
VISION-NSCLC,SC,VISION-NSCLC-SITE001-0094,1,ALCUSE,Alcohol Use,LIFESTYLE,CURRENT DRINKER,CURRENT DRINKER,,,2024-03-09,-29
VISION-NSCLC,SC,VISION-NSCLC-SITE001-0094,2,BMI,Body Mass Index,PHYSICAL CHARACTERISTIC,19.0,19.0,19.0,kg/m2,2024-03-09,-29
VISION-NSCLC,SC,VISION-NSCLC-SITE001-0094,3,DURDIS,Duration of Disease,DISEASE HISTORY,109 months,109,109.0,MONTHS,2024-03-09,-29
VISION-NSCLC,SC,VISION-NSCLC-SITE001-0094,4,TOBUSE,Tobacco Use,LIFESTYLE,NEVER SMOKED,NEVER SMOKED,,,2024-03-09,-29
VISION-NSCLC,SC,VISION-NSCLC-SITE001-0097,1,ALCUSE,Alcohol Use,LIFESTYLE,NON-DRINKER,NON-DRINKER,,,2024-02-12,-12
VISION-NSCLC,SC,VISION-NSCLC-SITE001-0097,2,BMI,Body Mass Index,PHYSICAL CHARACTERISTIC,36.1,36.1,36.1,kg/m2,2024-02-12,-12
VISION-NSCLC,SC,VISION-NSCLC-SITE001-0097,3,DURDIS,Duration of Disease,DISEASE HISTORY,121 months,121,121.0,MONTHS,2024-02-12,-12
VISION-NSCLC,SC,VISION-NSCLC-SITE001-0097,4,TOBUSE,Tobacco Use,LIFESTYLE,NEVER SMOKED,NEVER SMOKED,,,2024-02-12,-12
VISION-NSCLC,SC,VISION-NSCLC-SITE001-0100,1,ALCUSE,Alcohol Use,LIFESTYLE,CURRENT DRINKER,CURRENT DRINKER,,,2024-04-13,-21
VISION-NSCLC,SC,VISION-NSCLC-SITE001-0100,2,BMI,Body Mass Index,PHYSICAL CHARACTERISTIC,23.5,23.5,23.5,kg/m2,2024-04-13,-21
VISION-NSCLC,SC,VISION-NSCLC-SITE001-0100,3,DURDIS,Duration of Disease,DISEASE HISTORY,97 months,97,97.0,MONTHS,2024-04-13,-21
VISION-NSCLC,SC,VISION-NSCLC-SITE001-0100,4,TOBUSE,Tobacco Use,LIFESTYLE,NEVER SMOKED,NEVER SMOKED,,,2024-04-13,-21
VISION-NSCLC,SC,VISION-NSCLC-SITE001-0103,1,ALCUSE,Alcohol Use,LIFESTYLE,HEAVY DRINKER,HEAVY DRINKER,,,2024-04-07,-17
VISION-NSCLC,SC,VISION-NSCLC-SITE001-0103,2,BMI,Body Mass Index,PHYSICAL CHARACTERISTIC,30.0,30.0,30.0,kg/m2,2024-04-07,-17
VISION-NSCLC,SC,VISION-NSCLC-SITE001-0103,3,DURDIS,Duration of Disease,DISEASE HISTORY,36 months,36,36.0,MONTHS,2024-04-07,-17
VISION-NSCLC,SC,VISION-NSCLC-SITE001-0103,4,TOBPKYR,Tobacco Pack-Years,LIFESTYLE,17,17,17.0,PACK-YEARS,2024-04-07,-17
VISION-NSCLC,SC,VISION-NSCLC-SITE001-0103,5,TOBUSE,Tobacco Use,LIFESTYLE,CURRENT SMOKER,CURRENT SMOKER,,,2024-04-07,-17
VISION-NSCLC,SC,VISION-NSCLC-SITE001-0106,1,ALCUSE,Alcohol Use,LIFESTYLE,CURRENT DRINKER,CURRENT DRINKER,,,2024-04-02,-17
VISION-NSCLC,SC,VISION-NSCLC-SITE001-0106,2,BMI,Body Mass Index,PHYSICAL CHARACTERISTIC,25.9,25.9,25.9,kg/m2,2024-04-02,-17
VISION-NSCLC,SC,VISION-NSCLC-SITE001-0106,3,DURDIS,Duration of Disease,DISEASE HISTORY,85 months,85,85.0,MONTHS,2024-04-02,-17
VISION-NSCLC,SC,VISION-NSCLC-SITE001-0106,4,TOBUSE,Tobacco Use,LIFESTYLE,NEVER SMOKED,NEVER SMOKED,,,2024-04-02,-17
VISION-NSCLC,SC,VISION-NSCLC-SITE001-0109,1,ALCUSE,Alcohol Use,LIFESTYLE,NON-DRINKER,NON-DRINKER,,,2024-01-26,-25
VISION-NSCLC,SC,VISION-NSCLC-SITE001-0109,2,BMI,Body Mass Index,PHYSICAL CHARACTERISTIC,29.1,29.1,29.1,kg/m2,2024-01-26,-25
VISION-NSCLC,SC,VISION-NSCLC-SITE001-0109,3,DURDIS,Duration of Disease,DISEASE HISTORY,85 months,85,85.0,MONTHS,2024-01-26,-25
VISION-NSCLC,SC,VISION-NSCLC-SITE001-0109,4,TOBUSE,Tobacco Use,LIFESTYLE,NEVER SMOKED,NEVER SMOKED,,,2024-01-26,-25
VISION-NSCLC,SC,VISION-NSCLC-SITE001-0112,1,ALCUSE,Alcohol Use,LIFESTYLE,NON-DRINKER,NON-DRINKER,,,2024-04-05,-28
VISION-NSCLC,SC,VISION-NSCLC-SITE001-0112,2,BMI,Body Mass Index,PHYSICAL CHARACTERISTIC,27.5,27.5,27.5,kg/m2,2024-04-05,-28
VISION-NSCLC,SC,VISION-NSCLC-SITE001-0112,3,DURDIS,Duration of Disease,DISEASE HISTORY,97 months,97,97.0,MONTHS,2024-04-05,-28
VISION-NSCLC,SC,VISION-NSCLC-SITE001-0112,4,TOBUSE,Tobacco Use,LIFESTYLE,NEVER SMOKED,NEVER SMOKED,,,2024-04-05,-28
VISION-NSCLC,SC,VISION-NSCLC-SITE001-0115,1,ALCUSE,Alcohol Use,LIFESTYLE,NON-DRINKER,NON-DRINKER,,,2024-03-14,-17
VISION-NSCLC,SC,VISION-NSCLC-SITE001-0115,2,BMI,Body Mass Index,PHYSICAL CHARACTERISTIC,18.8,18.8,18.8,kg/m2,2024-03-14,-17
VISION-NSCLC,SC,VISION-NSCLC-SITE001-0115,3,DURDIS,Duration of Disease,DISEASE HISTORY,60 months,60,60.0,MONTHS,2024-03-14,-17
VISION-NSCLC,SC,VISION-NSCLC-SITE001-0115,4,TOBUSE,Tobacco Use,LIFESTYLE,NEVER SMOKED,NEVER SMOKED,,,2024-03-14,-17
VISION-NSCLC,SC,VISION-NSCLC-SITE001-0118,1,ALCUSE,Alcohol Use,LIFESTYLE,CURRENT DRINKER,CURRENT DRINKER,,,2024-01-27,-11
VISION-NSCLC,SC,VISION-NSCLC-SITE001-0118,2,BMI,Body Mass Index,PHYSICAL CHARACTERISTIC,28.3,28.3,28.3,kg/m2,2024-01-27,-11
VISION-NSCLC,SC,VISION-NSCLC-SITE001-0118,3,DURDIS,Duration of Disease,DISEASE HISTORY,109 months,109,109.0,MONTHS,2024-01-27,-11
VISION-NSCLC,SC,VISION-NSCLC-SITE001-0118,4,TOBPKYR,Tobacco Pack-Years,LIFESTYLE,29,29,29.0,PACK-YEARS,2024-01-27,-11
VISION-NSCLC,SC,VISION-NSCLC-SITE001-0118,5,TOBUSE,Tobacco Use,LIFESTYLE,FORMER SMOKER,FORMER SMOKER,,,2024-01-27,-11
VISION-NSCLC,SC,VISION-NSCLC-SITE001-0121,1,ALCUSE,Alcohol Use,LIFESTYLE,NON-DRINKER,NON-DRINKER,,,2024-02-10,-22
VISION-NSCLC,SC,VISION-NSCLC-SITE001-0121,2,BMI,Body Mass Index,PHYSICAL CHARACTERISTIC,28.0,28.0,28.0,kg/m2,2024-02-10,-22
VISION-NSCLC,SC,VISION-NSCLC-SITE001-0121,3,DURDIS,Duration of Disease,DISEASE HISTORY,109 months,109,109.0,MONTHS,2024-02-10,-22
VISION-NSCLC,SC,VISION-NSCLC-SITE001-0121,4,TOBPKYR,Tobacco Pack-Years,LIFESTYLE,17,17,17.0,PACK-YEARS,2024-02-10,-22
VISION-NSCLC,SC,VISION-NSCLC-SITE001-0121,5,TOBUSE,Tobacco Use,LIFESTYLE,CURRENT SMOKER,CURRENT SMOKER,,,2024-02-10,-22
VISION-NSCLC,SC,VISION-NSCLC-SITE001-0124,1,ALCUSE,Alcohol Use,LIFESTYLE,NON-DRINKER,NON-DRINKER,,,2024-02-20,-23
VISION-NSCLC,SC,VISION-NSCLC-SITE001-0124,2,BMI,Body Mass Index,PHYSICAL CHARACTERISTIC,15.9,15.9,15.9,kg/m2,2024-02-20,-23
VISION-NSCLC,SC,VISION-NSCLC-SITE001-0124,3,DURDIS,Duration of Disease,DISEASE HISTORY,109 months,109,109.0,MONTHS,2024-02-20,-23
VISION-NSCLC,SC,VISION-NSCLC-SITE001-0124,4,TOBPKYR,Tobacco Pack-Years,LIFESTYLE,39,39,39.0,PACK-YEARS,2024-02-20,-23
VISION-NSCLC,SC,VISION-NSCLC-SITE001-0124,5,TOBUSE,Tobacco Use,LIFESTYLE,FORMER SMOKER,FORMER SMOKER,,,2024-02-20,-23
VISION-NSCLC,SC,VISION-NSCLC-SITE001-0127,1,ALCUSE,Alcohol Use,LIFESTYLE,NON-DRINKER,NON-DRINKER,,,2024-02-06,-13
VISION-NSCLC,SC,VISION-NSCLC-SITE001-0127,2,BMI,Body Mass Index,PHYSICAL CHARACTERISTIC,31.2,31.2,31.2,kg/m2,2024-02-06,-13
VISION-NSCLC,SC,VISION-NSCLC-SITE001-0127,3,DURDIS,Duration of Disease,DISEASE HISTORY,97 months,97,97.0,MONTHS,2024-02-06,-13
VISION-NSCLC,SC,VISION-NSCLC-SITE001-0127,4,TOBUSE,Tobacco Use,LIFESTYLE,NEVER SMOKED,NEVER SMOKED,,,2024-02-06,-13
VISION-NSCLC,SC,VISION-NSCLC-SITE001-0130,1,ALCUSE,Alcohol Use,LIFESTYLE,NON-DRINKER,NON-DRINKER,,,2024-02-02,-18
VISION-NSCLC,SC,VISION-NSCLC-SITE001-0130,2,BMI,Body Mass Index,PHYSICAL CHARACTERISTIC,21.9,21.9,21.9,kg/m2,2024-02-02,-18
VISION-NSCLC,SC,VISION-NSCLC-SITE001-0130,3,DURDIS,Duration of Disease,DISEASE HISTORY,121 months,121,121.0,MONTHS,2024-02-02,-18
VISION-NSCLC,SC,VISION-NSCLC-SITE001-0130,4,TOBUSE,Tobacco Use,LIFESTYLE,NEVER SMOKED,NEVER SMOKED,,,2024-02-02,-18
VISION-NSCLC,SC,VISION-NSCLC-SITE001-0133,1,ALCUSE,Alcohol Use,LIFESTYLE,NON-DRINKER,NON-DRINKER,,,2024-02-25,-21
VISION-NSCLC,SC,VISION-NSCLC-SITE001-0133,2,BMI,Body Mass Index,PHYSICAL CHARACTERISTIC,38.7,38.7,38.7,kg/m2,2024-02-25,-21
VISION-NSCLC,SC,VISION-NSCLC-SITE001-0133,3,TOBUSE,Tobacco Use,LIFESTYLE,NEVER SMOKED,NEVER SMOKED,,,2024-02-25,-21
VISION-NSCLC,SC,VISION-NSCLC-SITE001-0136,1,ALCUSE,Alcohol Use,LIFESTYLE,NON-DRINKER,NON-DRINKER,,,2024-04-04,-27
VISION-NSCLC,SC,VISION-NSCLC-SITE001-0136,2,BMI,Body Mass Index,PHYSICAL CHARACTERISTIC,17.9,17.9,17.9,kg/m2,2024-04-04,-27
VISION-NSCLC,SC,VISION-NSCLC-SITE001-0136,3,DURDIS,Duration of Disease,DISEASE HISTORY,48 months,48,48.0,MONTHS,2024-04-04,-27
VISION-NSCLC,SC,VISION-NSCLC-SITE001-0136,4,TOBUSE,Tobacco Use,LIFESTYLE,NEVER SMOKED,NEVER SMOKED,,,2024-04-04,-27
VISION-NSCLC,SC,VISION-NSCLC-SITE001-0139,1,ALCUSE,Alcohol Use,LIFESTYLE,CURRENT DRINKER,CURRENT DRINKER,,,2024-01-21,-19
VISION-NSCLC,SC,VISION-NSCLC-SITE001-0139,2,BMI,Body Mass Index,PHYSICAL CHARACTERISTIC,22.7,22.7,22.7,kg/m2,2024-01-21,-19
VISION-NSCLC,SC,VISION-NSCLC-SITE001-0139,3,DURDIS,Duration of Disease,DISEASE HISTORY,121 months,121,121.0,MONTHS,2024-01-21,-19
VISION-NSCLC,SC,VISION-NSCLC-SITE001-0139,4,TOBPKYR,Tobacco Pack-Years,LIFESTYLE,35,35,35.0,PACK-YEARS,2024-01-21,-19
VISION-NSCLC,SC,VISION-NSCLC-SITE001-0139,5,TOBUSE,Tobacco Use,LIFESTYLE,CURRENT SMOKER,CURRENT SMOKER,,,2024-01-21,-19
VISION-NSCLC,SC,VISION-NSCLC-SITE001-0142,1,ALCUSE,Alcohol Use,LIFESTYLE,CURRENT DRINKER,CURRENT DRINKER,,,2024-02-09,-26
VISION-NSCLC,SC,VISION-NSCLC-SITE001-0142,2,BMI,Body Mass Index,PHYSICAL CHARACTERISTIC,19.9,19.9,19.9,kg/m2,2024-02-09,-26
VISION-NSCLC,SC,VISION-NSCLC-SITE001-0142,3,TOBPKYR,Tobacco Pack-Years,LIFESTYLE,9,9,9.0,PACK-YEARS,2024-02-09,-26
VISION-NSCLC,SC,VISION-NSCLC-SITE001-0142,4,TOBUSE,Tobacco Use,LIFESTYLE,CURRENT SMOKER,CURRENT SMOKER,,,2024-02-09,-26
VISION-NSCLC,SC,VISION-NSCLC-SITE001-0145,1,ALCUSE,Alcohol Use,LIFESTYLE,NON-DRINKER,NON-DRINKER,,,2024-03-01,-8
VISION-NSCLC,SC,VISION-NSCLC-SITE001-0145,2,BMI,Body Mass Index,PHYSICAL CHARACTERISTIC,39.2,39.2,39.2,kg/m2,2024-03-01,-8
VISION-NSCLC,SC,VISION-NSCLC-SITE001-0145,3,DURDIS,Duration of Disease,DISEASE HISTORY,97 months,97,97.0,MONTHS,2024-03-01,-8
VISION-NSCLC,SC,VISION-NSCLC-SITE001-0145,4,TOBPKYR,Tobacco Pack-Years,LIFESTYLE,29,29,29.0,PACK-YEARS,2024-03-01,-8
VISION-NSCLC,SC,VISION-NSCLC-SITE001-0145,5,TOBUSE,Tobacco Use,LIFESTYLE,FORMER SMOKER,FORMER SMOKER,,,2024-03-01,-8
VISION-NSCLC,SC,VISION-NSCLC-SITE001-0148,1,ALCUSE,Alcohol Use,LIFESTYLE,CURRENT DRINKER,CURRENT DRINKER,,,2024-03-13,-11
VISION-NSCLC,SC,VISION-NSCLC-SITE001-0148,2,BMI,Body Mass Index,PHYSICAL CHARACTERISTIC,24.6,24.6,24.6,kg/m2,2024-03-13,-11
VISION-NSCLC,SC,VISION-NSCLC-SITE001-0148,3,DURDIS,Duration of Disease,DISEASE HISTORY,121 months,121,121.0,MONTHS,2024-03-13,-11
VISION-NSCLC,SC,VISION-NSCLC-SITE001-0148,4,TOBPKYR,Tobacco Pack-Years,LIFESTYLE,6,6,6.0,PACK-YEARS,2024-03-13,-11
VISION-NSCLC,SC,VISION-NSCLC-SITE001-0148,5,TOBUSE,Tobacco Use,LIFESTYLE,CURRENT SMOKER,CURRENT SMOKER,,,2024-03-13,-11
VISION-NSCLC,SC,VISION-NSCLC-SITE002-0002,1,ALCUSE,Alcohol Use,LIFESTYLE,HEAVY DRINKER,HEAVY DRINKER,,,2024-04-12,-22
VISION-NSCLC,SC,VISION-NSCLC-SITE002-0002,2,BMI,Body Mass Index,PHYSICAL CHARACTERISTIC,19.3,19.3,19.3,kg/m2,2024-04-12,-22
VISION-NSCLC,SC,VISION-NSCLC-SITE002-0002,3,DURDIS,Duration of Disease,DISEASE HISTORY,97 months,97,97.0,MONTHS,2024-04-12,-22
VISION-NSCLC,SC,VISION-NSCLC-SITE002-0002,4,TOBUSE,Tobacco Use,LIFESTYLE,NEVER SMOKED,NEVER SMOKED,,,2024-04-12,-22
VISION-NSCLC,SC,VISION-NSCLC-SITE002-0005,1,ALCUSE,Alcohol Use,LIFESTYLE,NON-DRINKER,NON-DRINKER,,,2024-04-03,-16
VISION-NSCLC,SC,VISION-NSCLC-SITE002-0005,2,BMI,Body Mass Index,PHYSICAL CHARACTERISTIC,21.3,21.3,21.3,kg/m2,2024-04-03,-16
VISION-NSCLC,SC,VISION-NSCLC-SITE002-0005,3,DURDIS,Duration of Disease,DISEASE HISTORY,97 months,97,97.0,MONTHS,2024-04-03,-16
VISION-NSCLC,SC,VISION-NSCLC-SITE002-0005,4,TOBUSE,Tobacco Use,LIFESTYLE,NEVER SMOKED,NEVER SMOKED,,,2024-04-03,-16
VISION-NSCLC,SC,VISION-NSCLC-SITE002-0008,1,ALCUSE,Alcohol Use,LIFESTYLE,NON-DRINKER,NON-DRINKER,,,2024-01-22,-32
VISION-NSCLC,SC,VISION-NSCLC-SITE002-0008,2,BMI,Body Mass Index,PHYSICAL CHARACTERISTIC,29.9,29.9,29.9,kg/m2,2024-01-22,-32
VISION-NSCLC,SC,VISION-NSCLC-SITE002-0008,3,DURDIS,Duration of Disease,DISEASE HISTORY,109 months,109,109.0,MONTHS,2024-01-22,-32
VISION-NSCLC,SC,VISION-NSCLC-SITE002-0008,4,TOBUSE,Tobacco Use,LIFESTYLE,NEVER SMOKED,NEVER SMOKED,,,2024-01-22,-32
VISION-NSCLC,SC,VISION-NSCLC-SITE002-0011,1,ALCUSE,Alcohol Use,LIFESTYLE,NON-DRINKER,NON-DRINKER,,,2024-02-24,-32
VISION-NSCLC,SC,VISION-NSCLC-SITE002-0011,2,BMI,Body Mass Index,PHYSICAL CHARACTERISTIC,27.5,27.5,27.5,kg/m2,2024-02-24,-32
VISION-NSCLC,SC,VISION-NSCLC-SITE002-0011,3,DURDIS,Duration of Disease,DISEASE HISTORY,97 months,97,97.0,MONTHS,2024-02-24,-32
VISION-NSCLC,SC,VISION-NSCLC-SITE002-0011,4,TOBPKYR,Tobacco Pack-Years,LIFESTYLE,18,18,18.0,PACK-YEARS,2024-02-24,-32
VISION-NSCLC,SC,VISION-NSCLC-SITE002-0011,5,TOBUSE,Tobacco Use,LIFESTYLE,CURRENT SMOKER,CURRENT SMOKER,,,2024-02-24,-32
VISION-NSCLC,SC,VISION-NSCLC-SITE002-0014,1,ALCUSE,Alcohol Use,LIFESTYLE,NON-DRINKER,NON-DRINKER,,,2024-03-18,-15
VISION-NSCLC,SC,VISION-NSCLC-SITE002-0014,2,BMI,Body Mass Index,PHYSICAL CHARACTERISTIC,22.7,22.7,22.7,kg/m2,2024-03-18,-15
VISION-NSCLC,SC,VISION-NSCLC-SITE002-0014,3,DURDIS,Duration of Disease,DISEASE HISTORY,85 months,85,85.0,MONTHS,2024-03-18,-15
VISION-NSCLC,SC,VISION-NSCLC-SITE002-0014,4,TOBPKYR,Tobacco Pack-Years,LIFESTYLE,40,40,40.0,PACK-YEARS,2024-03-18,-15
VISION-NSCLC,SC,VISION-NSCLC-SITE002-0014,5,TOBUSE,Tobacco Use,LIFESTYLE,FORMER SMOKER,FORMER SMOKER,,,2024-03-18,-15
VISION-NSCLC,SC,VISION-NSCLC-SITE002-0017,1,ALCUSE,Alcohol Use,LIFESTYLE,CURRENT DRINKER,CURRENT DRINKER,,,2024-02-11,-33
VISION-NSCLC,SC,VISION-NSCLC-SITE002-0017,2,BMI,Body Mass Index,PHYSICAL CHARACTERISTIC,23.0,23.0,23.0,kg/m2,2024-02-11,-33
VISION-NSCLC,SC,VISION-NSCLC-SITE002-0017,3,DURDIS,Duration of Disease,DISEASE HISTORY,109 months,109,109.0,MONTHS,2024-02-11,-33
VISION-NSCLC,SC,VISION-NSCLC-SITE002-0017,4,TOBPKYR,Tobacco Pack-Years,LIFESTYLE,9,9,9.0,PACK-YEARS,2024-02-11,-33
VISION-NSCLC,SC,VISION-NSCLC-SITE002-0017,5,TOBUSE,Tobacco Use,LIFESTYLE,FORMER SMOKER,FORMER SMOKER,,,2024-02-11,-33
VISION-NSCLC,SC,VISION-NSCLC-SITE002-0020,1,ALCUSE,Alcohol Use,LIFESTYLE,CURRENT DRINKER,CURRENT DRINKER,,,2024-02-20,-27
VISION-NSCLC,SC,VISION-NSCLC-SITE002-0020,2,BMI,Body Mass Index,PHYSICAL CHARACTERISTIC,28.8,28.8,28.8,kg/m2,2024-02-20,-27
VISION-NSCLC,SC,VISION-NSCLC-SITE002-0020,3,DURDIS,Duration of Disease,DISEASE HISTORY,121 months,121,121.0,MONTHS,2024-02-20,-27
VISION-NSCLC,SC,VISION-NSCLC-SITE002-0020,4,TOBPKYR,Tobacco Pack-Years,LIFESTYLE,24,24,24.0,PACK-YEARS,2024-02-20,-27
VISION-NSCLC,SC,VISION-NSCLC-SITE002-0020,5,TOBUSE,Tobacco Use,LIFESTYLE,FORMER SMOKER,FORMER SMOKER,,,2024-02-20,-27
VISION-NSCLC,SC,VISION-NSCLC-SITE002-0023,1,ALCUSE,Alcohol Use,LIFESTYLE,NON-DRINKER,NON-DRINKER,,,2024-02-03,-30
VISION-NSCLC,SC,VISION-NSCLC-SITE002-0023,2,BMI,Body Mass Index,PHYSICAL CHARACTERISTIC,19.9,19.9,19.9,kg/m2,2024-02-03,-30
VISION-NSCLC,SC,VISION-NSCLC-SITE002-0023,3,TOBUSE,Tobacco Use,LIFESTYLE,NEVER SMOKED,NEVER SMOKED,,,2024-02-03,-30
VISION-NSCLC,SC,VISION-NSCLC-SITE002-0026,1,ALCUSE,Alcohol Use,LIFESTYLE,CURRENT DRINKER,CURRENT DRINKER,,,2024-04-09,-11
VISION-NSCLC,SC,VISION-NSCLC-SITE002-0026,2,BMI,Body Mass Index,PHYSICAL CHARACTERISTIC,17.3,17.3,17.3,kg/m2,2024-04-09,-11
VISION-NSCLC,SC,VISION-NSCLC-SITE002-0026,3,DURDIS,Duration of Disease,DISEASE HISTORY,121 months,121,121.0,MONTHS,2024-04-09,-11
VISION-NSCLC,SC,VISION-NSCLC-SITE002-0026,4,TOBPKYR,Tobacco Pack-Years,LIFESTYLE,27,27,27.0,PACK-YEARS,2024-04-09,-11
VISION-NSCLC,SC,VISION-NSCLC-SITE002-0026,5,TOBUSE,Tobacco Use,LIFESTYLE,FORMER SMOKER,FORMER SMOKER,,,2024-04-09,-11
VISION-NSCLC,SC,VISION-NSCLC-SITE002-0029,1,ALCUSE,Alcohol Use,LIFESTYLE,CURRENT DRINKER,CURRENT DRINKER,,,2024-02-18,-23
VISION-NSCLC,SC,VISION-NSCLC-SITE002-0029,2,BMI,Body Mass Index,PHYSICAL CHARACTERISTIC,24.8,24.8,24.8,kg/m2,2024-02-18,-23
VISION-NSCLC,SC,VISION-NSCLC-SITE002-0029,3,TOBUSE,Tobacco Use,LIFESTYLE,NEVER SMOKED,NEVER SMOKED,,,2024-02-18,-23
VISION-NSCLC,SC,VISION-NSCLC-SITE002-0032,1,ALCUSE,Alcohol Use,LIFESTYLE,NON-DRINKER,NON-DRINKER,,,2024-03-04,-8
VISION-NSCLC,SC,VISION-NSCLC-SITE002-0032,2,BMI,Body Mass Index,PHYSICAL CHARACTERISTIC,20.6,20.6,20.6,kg/m2,2024-03-04,-8
VISION-NSCLC,SC,VISION-NSCLC-SITE002-0032,3,DURDIS,Duration of Disease,DISEASE HISTORY,121 months,121,121.0,MONTHS,2024-03-04,-8
VISION-NSCLC,SC,VISION-NSCLC-SITE002-0032,4,TOBPKYR,Tobacco Pack-Years,LIFESTYLE,17,17,17.0,PACK-YEARS,2024-03-04,-8
VISION-NSCLC,SC,VISION-NSCLC-SITE002-0032,5,TOBUSE,Tobacco Use,LIFESTYLE,CURRENT SMOKER,CURRENT SMOKER,,,2024-03-04,-8
VISION-NSCLC,SC,VISION-NSCLC-SITE002-0035,1,ALCUSE,Alcohol Use,LIFESTYLE,NON-DRINKER,NON-DRINKER,,,2024-04-12,-14
VISION-NSCLC,SC,VISION-NSCLC-SITE002-0035,2,BMI,Body Mass Index,PHYSICAL CHARACTERISTIC,16.3,16.3,16.3,kg/m2,2024-04-12,-14
VISION-NSCLC,SC,VISION-NSCLC-SITE002-0035,3,TOBUSE,Tobacco Use,LIFESTYLE,NEVER SMOKED,NEVER SMOKED,,,2024-04-12,-14
VISION-NSCLC,SC,VISION-NSCLC-SITE002-0038,1,ALCUSE,Alcohol Use,LIFESTYLE,CURRENT DRINKER,CURRENT DRINKER,,,2024-02-20,-31
VISION-NSCLC,SC,VISION-NSCLC-SITE002-0038,2,BMI,Body Mass Index,PHYSICAL CHARACTERISTIC,19.4,19.4,19.4,kg/m2,2024-02-20,-31
VISION-NSCLC,SC,VISION-NSCLC-SITE002-0038,3,DURDIS,Duration of Disease,DISEASE HISTORY,48 months,48,48.0,MONTHS,2024-02-20,-31
VISION-NSCLC,SC,VISION-NSCLC-SITE002-0038,4,TOBPKYR,Tobacco Pack-Years,LIFESTYLE,17,17,17.0,PACK-YEARS,2024-02-20,-31
VISION-NSCLC,SC,VISION-NSCLC-SITE002-0038,5,TOBUSE,Tobacco Use,LIFESTYLE,CURRENT SMOKER,CURRENT SMOKER,,,2024-02-20,-31
VISION-NSCLC,SC,VISION-NSCLC-SITE002-0041,1,ALCUSE,Alcohol Use,LIFESTYLE,CURRENT DRINKER,CURRENT DRINKER,,,2024-01-27,-14
VISION-NSCLC,SC,VISION-NSCLC-SITE002-0041,2,BMI,Body Mass Index,PHYSICAL CHARACTERISTIC,24.6,24.6,24.6,kg/m2,2024-01-27,-14
VISION-NSCLC,SC,VISION-NSCLC-SITE002-0041,3,DURDIS,Duration of Disease,DISEASE HISTORY,85 months,85,85.0,MONTHS,2024-01-27,-14
VISION-NSCLC,SC,VISION-NSCLC-SITE002-0041,4,TOBUSE,Tobacco Use,LIFESTYLE,NEVER SMOKED,NEVER SMOKED,,,2024-01-27,-14
VISION-NSCLC,SC,VISION-NSCLC-SITE002-0044,1,ALCUSE,Alcohol Use,LIFESTYLE,NON-DRINKER,NON-DRINKER,,,2024-03-05,-18
VISION-NSCLC,SC,VISION-NSCLC-SITE002-0044,2,BMI,Body Mass Index,PHYSICAL CHARACTERISTIC,24.3,24.3,24.3,kg/m2,2024-03-05,-18
VISION-NSCLC,SC,VISION-NSCLC-SITE002-0044,3,DURDIS,Duration of Disease,DISEASE HISTORY,60 months,60,60.0,MONTHS,2024-03-05,-18
VISION-NSCLC,SC,VISION-NSCLC-SITE002-0044,4,TOBPKYR,Tobacco Pack-Years,LIFESTYLE,9,9,9.0,PACK-YEARS,2024-03-05,-18
VISION-NSCLC,SC,VISION-NSCLC-SITE002-0044,5,TOBUSE,Tobacco Use,LIFESTYLE,FORMER SMOKER,FORMER SMOKER,,,2024-03-05,-18
VISION-NSCLC,SC,VISION-NSCLC-SITE002-0047,1,ALCUSE,Alcohol Use,LIFESTYLE,CURRENT DRINKER,CURRENT DRINKER,,,2024-03-24,-28
VISION-NSCLC,SC,VISION-NSCLC-SITE002-0047,2,BMI,Body Mass Index,PHYSICAL CHARACTERISTIC,17.7,17.7,17.7,kg/m2,2024-03-24,-28
VISION-NSCLC,SC,VISION-NSCLC-SITE002-0047,3,DURDIS,Duration of Disease,DISEASE HISTORY,73 months,73,73.0,MONTHS,2024-03-24,-28
VISION-NSCLC,SC,VISION-NSCLC-SITE002-0047,4,TOBPKYR,Tobacco Pack-Years,LIFESTYLE,23,23,23.0,PACK-YEARS,2024-03-24,-28
VISION-NSCLC,SC,VISION-NSCLC-SITE002-0047,5,TOBUSE,Tobacco Use,LIFESTYLE,FORMER SMOKER,FORMER SMOKER,,,2024-03-24,-28
VISION-NSCLC,SC,VISION-NSCLC-SITE002-0050,1,ALCUSE,Alcohol Use,LIFESTYLE,NON-DRINKER,NON-DRINKER,,,2024-02-07,-23
VISION-NSCLC,SC,VISION-NSCLC-SITE002-0050,2,BMI,Body Mass Index,PHYSICAL CHARACTERISTIC,20.5,20.5,20.5,kg/m2,2024-02-07,-23
VISION-NSCLC,SC,VISION-NSCLC-SITE002-0050,3,DURDIS,Duration of Disease,DISEASE HISTORY,109 months,109,109.0,MONTHS,2024-02-07,-23
VISION-NSCLC,SC,VISION-NSCLC-SITE002-0050,4,TOBPKYR,Tobacco Pack-Years,LIFESTYLE,10,10,10.0,PACK-YEARS,2024-02-07,-23
VISION-NSCLC,SC,VISION-NSCLC-SITE002-0050,5,TOBUSE,Tobacco Use,LIFESTYLE,CURRENT SMOKER,CURRENT SMOKER,,,2024-02-07,-23
VISION-NSCLC,SC,VISION-NSCLC-SITE002-0056,1,ALCUSE,Alcohol Use,LIFESTYLE,HEAVY DRINKER,HEAVY DRINKER,,,2024-02-23,-12
VISION-NSCLC,SC,VISION-NSCLC-SITE002-0056,2,BMI,Body Mass Index,PHYSICAL CHARACTERISTIC,26.1,26.1,26.1,kg/m2,2024-02-23,-12
VISION-NSCLC,SC,VISION-NSCLC-SITE002-0056,3,TOBPKYR,Tobacco Pack-Years,LIFESTYLE,25,25,25.0,PACK-YEARS,2024-02-23,-12
VISION-NSCLC,SC,VISION-NSCLC-SITE002-0056,4,TOBUSE,Tobacco Use,LIFESTYLE,CURRENT SMOKER,CURRENT SMOKER,,,2024-02-23,-12
VISION-NSCLC,SC,VISION-NSCLC-SITE002-0059,1,ALCUSE,Alcohol Use,LIFESTYLE,NON-DRINKER,NON-DRINKER,,,2024-03-14,-30
VISION-NSCLC,SC,VISION-NSCLC-SITE002-0059,2,BMI,Body Mass Index,PHYSICAL CHARACTERISTIC,18.7,18.7,18.7,kg/m2,2024-03-14,-30
VISION-NSCLC,SC,VISION-NSCLC-SITE002-0059,3,DURDIS,Duration of Disease,DISEASE HISTORY,121 months,121,121.0,MONTHS,2024-03-14,-30
VISION-NSCLC,SC,VISION-NSCLC-SITE002-0059,4,TOBUSE,Tobacco Use,LIFESTYLE,NEVER SMOKED,NEVER SMOKED,,,2024-03-14,-30
VISION-NSCLC,SC,VISION-NSCLC-SITE002-0062,1,ALCUSE,Alcohol Use,LIFESTYLE,HEAVY DRINKER,HEAVY DRINKER,,,2024-03-11,-25
VISION-NSCLC,SC,VISION-NSCLC-SITE002-0062,2,BMI,Body Mass Index,PHYSICAL CHARACTERISTIC,13.9,13.9,13.9,kg/m2,2024-03-11,-25
VISION-NSCLC,SC,VISION-NSCLC-SITE002-0062,3,DURDIS,Duration of Disease,DISEASE HISTORY,48 months,48,48.0,MONTHS,2024-03-11,-25
VISION-NSCLC,SC,VISION-NSCLC-SITE002-0062,4,TOBPKYR,Tobacco Pack-Years,LIFESTYLE,6,6,6.0,PACK-YEARS,2024-03-11,-25
VISION-NSCLC,SC,VISION-NSCLC-SITE002-0062,5,TOBUSE,Tobacco Use,LIFESTYLE,FORMER SMOKER,FORMER SMOKER,,,2024-03-11,-25
VISION-NSCLC,SC,VISION-NSCLC-SITE002-0068,1,ALCUSE,Alcohol Use,LIFESTYLE,HEAVY DRINKER,HEAVY DRINKER,,,2024-01-15,-25
VISION-NSCLC,SC,VISION-NSCLC-SITE002-0068,2,BMI,Body Mass Index,PHYSICAL CHARACTERISTIC,15.1,15.1,15.1,kg/m2,2024-01-15,-25
VISION-NSCLC,SC,VISION-NSCLC-SITE002-0068,3,DURDIS,Duration of Disease,DISEASE HISTORY,12 months,12,12.0,MONTHS,2024-01-15,-25
VISION-NSCLC,SC,VISION-NSCLC-SITE002-0068,4,TOBPKYR,Tobacco Pack-Years,LIFESTYLE,31,31,31.0,PACK-YEARS,2024-01-15,-25
VISION-NSCLC,SC,VISION-NSCLC-SITE002-0068,5,TOBUSE,Tobacco Use,LIFESTYLE,CURRENT SMOKER,CURRENT SMOKER,,,2024-01-15,-25
VISION-NSCLC,SC,VISION-NSCLC-SITE002-0071,1,ALCUSE,Alcohol Use,LIFESTYLE,NON-DRINKER,NON-DRINKER,,,2024-03-24,-28
VISION-NSCLC,SC,VISION-NSCLC-SITE002-0071,2,BMI,Body Mass Index,PHYSICAL CHARACTERISTIC,19.8,19.8,19.8,kg/m2,2024-03-24,-28
VISION-NSCLC,SC,VISION-NSCLC-SITE002-0071,3,DURDIS,Duration of Disease,DISEASE HISTORY,109 months,109,109.0,MONTHS,2024-03-24,-28
VISION-NSCLC,SC,VISION-NSCLC-SITE002-0071,4,TOBPKYR,Tobacco Pack-Years,LIFESTYLE,21,21,21.0,PACK-YEARS,2024-03-24,-28
VISION-NSCLC,SC,VISION-NSCLC-SITE002-0071,5,TOBUSE,Tobacco Use,LIFESTYLE,FORMER SMOKER,FORMER SMOKER,,,2024-03-24,-28
VISION-NSCLC,SC,VISION-NSCLC-SITE002-0074,1,ALCUSE,Alcohol Use,LIFESTYLE,NON-DRINKER,NON-DRINKER,,,2024-03-18,-14
VISION-NSCLC,SC,VISION-NSCLC-SITE002-0074,2,BMI,Body Mass Index,PHYSICAL CHARACTERISTIC,22.4,22.4,22.4,kg/m2,2024-03-18,-14
VISION-NSCLC,SC,VISION-NSCLC-SITE002-0074,3,TOBPKYR,Tobacco Pack-Years,LIFESTYLE,13,13,13.0,PACK-YEARS,2024-03-18,-14
VISION-NSCLC,SC,VISION-NSCLC-SITE002-0074,4,TOBUSE,Tobacco Use,LIFESTYLE,CURRENT SMOKER,CURRENT SMOKER,,,2024-03-18,-14
VISION-NSCLC,SC,VISION-NSCLC-SITE002-0077,1,ALCUSE,Alcohol Use,LIFESTYLE,NON-DRINKER,NON-DRINKER,,,2024-04-01,-29
VISION-NSCLC,SC,VISION-NSCLC-SITE002-0077,2,BMI,Body Mass Index,PHYSICAL CHARACTERISTIC,18.9,18.9,18.9,kg/m2,2024-04-01,-29
VISION-NSCLC,SC,VISION-NSCLC-SITE002-0077,3,TOBUSE,Tobacco Use,LIFESTYLE,NEVER SMOKED,NEVER SMOKED,,,2024-04-01,-29
VISION-NSCLC,SC,VISION-NSCLC-SITE002-0080,1,ALCUSE,Alcohol Use,LIFESTYLE,CURRENT DRINKER,CURRENT DRINKER,,,2024-01-29,-23
VISION-NSCLC,SC,VISION-NSCLC-SITE002-0080,2,BMI,Body Mass Index,PHYSICAL CHARACTERISTIC,18.1,18.1,18.1,kg/m2,2024-01-29,-23
VISION-NSCLC,SC,VISION-NSCLC-SITE002-0080,3,TOBUSE,Tobacco Use,LIFESTYLE,NEVER SMOKED,NEVER SMOKED,,,2024-01-29,-23
VISION-NSCLC,SC,VISION-NSCLC-SITE002-0083,1,ALCUSE,Alcohol Use,LIFESTYLE,NON-DRINKER,NON-DRINKER,,,2024-01-21,-7
VISION-NSCLC,SC,VISION-NSCLC-SITE002-0083,2,BMI,Body Mass Index,PHYSICAL CHARACTERISTIC,16.1,16.1,16.1,kg/m2,2024-01-21,-7
VISION-NSCLC,SC,VISION-NSCLC-SITE002-0083,3,DURDIS,Duration of Disease,DISEASE HISTORY,109 months,109,109.0,MONTHS,2024-01-21,-7
VISION-NSCLC,SC,VISION-NSCLC-SITE002-0083,4,TOBUSE,Tobacco Use,LIFESTYLE,NEVER SMOKED,NEVER SMOKED,,,2024-01-21,-7
VISION-NSCLC,SC,VISION-NSCLC-SITE002-0086,1,ALCUSE,Alcohol Use,LIFESTYLE,HEAVY DRINKER,HEAVY DRINKER,,,2024-01-24,-30
VISION-NSCLC,SC,VISION-NSCLC-SITE002-0086,2,BMI,Body Mass Index,PHYSICAL CHARACTERISTIC,17.7,17.7,17.7,kg/m2,2024-01-24,-30
VISION-NSCLC,SC,VISION-NSCLC-SITE002-0086,3,DURDIS,Duration of Disease,DISEASE HISTORY,121 months,121,121.0,MONTHS,2024-01-24,-30
VISION-NSCLC,SC,VISION-NSCLC-SITE002-0086,4,TOBUSE,Tobacco Use,LIFESTYLE,NEVER SMOKED,NEVER SMOKED,,,2024-01-24,-30
VISION-NSCLC,SC,VISION-NSCLC-SITE002-0089,1,ALCUSE,Alcohol Use,LIFESTYLE,CURRENT DRINKER,CURRENT DRINKER,,,2024-03-02,-15
VISION-NSCLC,SC,VISION-NSCLC-SITE002-0089,2,BMI,Body Mass Index,PHYSICAL CHARACTERISTIC,20.0,20.0,20.0,kg/m2,2024-03-02,-15
VISION-NSCLC,SC,VISION-NSCLC-SITE002-0089,3,DURDIS,Duration of Disease,DISEASE HISTORY,85 months,85,85.0,MONTHS,2024-03-02,-15
VISION-NSCLC,SC,VISION-NSCLC-SITE002-0089,4,TOBUSE,Tobacco Use,LIFESTYLE,NEVER SMOKED,NEVER SMOKED,,,2024-03-02,-15
VISION-NSCLC,SC,VISION-NSCLC-SITE002-0092,1,ALCUSE,Alcohol Use,LIFESTYLE,NON-DRINKER,NON-DRINKER,,,2024-03-04,-32
VISION-NSCLC,SC,VISION-NSCLC-SITE002-0092,2,BMI,Body Mass Index,PHYSICAL CHARACTERISTIC,14.2,14.2,14.2,kg/m2,2024-03-04,-32
VISION-NSCLC,SC,VISION-NSCLC-SITE002-0092,3,DURDIS,Duration of Disease,DISEASE HISTORY,24 months,24,24.0,MONTHS,2024-03-04,-32
VISION-NSCLC,SC,VISION-NSCLC-SITE002-0092,4,TOBUSE,Tobacco Use,LIFESTYLE,NEVER SMOKED,NEVER SMOKED,,,2024-03-04,-32
VISION-NSCLC,SC,VISION-NSCLC-SITE002-0095,1,ALCUSE,Alcohol Use,LIFESTYLE,NON-DRINKER,NON-DRINKER,,,2024-03-17,-16
VISION-NSCLC,SC,VISION-NSCLC-SITE002-0095,2,BMI,Body Mass Index,PHYSICAL CHARACTERISTIC,18.4,18.4,18.4,kg/m2,2024-03-17,-16
VISION-NSCLC,SC,VISION-NSCLC-SITE002-0095,3,DURDIS,Duration of Disease,DISEASE HISTORY,24 months,24,24.0,MONTHS,2024-03-17,-16
VISION-NSCLC,SC,VISION-NSCLC-SITE002-0095,4,TOBUSE,Tobacco Use,LIFESTYLE,NEVER SMOKED,NEVER SMOKED,,,2024-03-17,-16
VISION-NSCLC,SC,VISION-NSCLC-SITE002-0101,1,ALCUSE,Alcohol Use,LIFESTYLE,CURRENT DRINKER,CURRENT DRINKER,,,2024-02-22,-12
VISION-NSCLC,SC,VISION-NSCLC-SITE002-0101,2,BMI,Body Mass Index,PHYSICAL CHARACTERISTIC,26.1,26.1,26.1,kg/m2,2024-02-22,-12
VISION-NSCLC,SC,VISION-NSCLC-SITE002-0101,3,DURDIS,Duration of Disease,DISEASE HISTORY,121 months,121,121.0,MONTHS,2024-02-22,-12
VISION-NSCLC,SC,VISION-NSCLC-SITE002-0101,4,TOBUSE,Tobacco Use,LIFESTYLE,NEVER SMOKED,NEVER SMOKED,,,2024-02-22,-12
VISION-NSCLC,SC,VISION-NSCLC-SITE002-0104,1,ALCUSE,Alcohol Use,LIFESTYLE,NON-DRINKER,NON-DRINKER,,,2024-01-15,-16
VISION-NSCLC,SC,VISION-NSCLC-SITE002-0104,2,BMI,Body Mass Index,PHYSICAL CHARACTERISTIC,23.0,23.0,23.0,kg/m2,2024-01-15,-16
VISION-NSCLC,SC,VISION-NSCLC-SITE002-0104,3,TOBPKYR,Tobacco Pack-Years,LIFESTYLE,22,22,22.0,PACK-YEARS,2024-01-15,-16
VISION-NSCLC,SC,VISION-NSCLC-SITE002-0104,4,TOBUSE,Tobacco Use,LIFESTYLE,FORMER SMOKER,FORMER SMOKER,,,2024-01-15,-16
VISION-NSCLC,SC,VISION-NSCLC-SITE002-0107,1,ALCUSE,Alcohol Use,LIFESTYLE,HEAVY DRINKER,HEAVY DRINKER,,,2024-02-17,-29
VISION-NSCLC,SC,VISION-NSCLC-SITE002-0107,2,BMI,Body Mass Index,PHYSICAL CHARACTERISTIC,30.8,30.8,30.8,kg/m2,2024-02-17,-29
VISION-NSCLC,SC,VISION-NSCLC-SITE002-0107,3,TOBPKYR,Tobacco Pack-Years,LIFESTYLE,37,37,37.0,PACK-YEARS,2024-02-17,-29
VISION-NSCLC,SC,VISION-NSCLC-SITE002-0107,4,TOBUSE,Tobacco Use,LIFESTYLE,FORMER SMOKER,FORMER SMOKER,,,2024-02-17,-29
VISION-NSCLC,SC,VISION-NSCLC-SITE002-0110,1,ALCUSE,Alcohol Use,LIFESTYLE,CURRENT DRINKER,CURRENT DRINKER,,,2024-03-30,-15
VISION-NSCLC,SC,VISION-NSCLC-SITE002-0110,2,BMI,Body Mass Index,PHYSICAL CHARACTERISTIC,20.8,20.8,20.8,kg/m2,2024-03-30,-15
VISION-NSCLC,SC,VISION-NSCLC-SITE002-0110,3,TOBPKYR,Tobacco Pack-Years,LIFESTYLE,29,29,29.0,PACK-YEARS,2024-03-30,-15
VISION-NSCLC,SC,VISION-NSCLC-SITE002-0110,4,TOBUSE,Tobacco Use,LIFESTYLE,CURRENT SMOKER,CURRENT SMOKER,,,2024-03-30,-15
VISION-NSCLC,SC,VISION-NSCLC-SITE002-0113,1,ALCUSE,Alcohol Use,LIFESTYLE,CURRENT DRINKER,CURRENT DRINKER,,,2024-01-26,-26
VISION-NSCLC,SC,VISION-NSCLC-SITE002-0113,2,BMI,Body Mass Index,PHYSICAL CHARACTERISTIC,23.6,23.6,23.6,kg/m2,2024-01-26,-26
VISION-NSCLC,SC,VISION-NSCLC-SITE002-0113,3,DURDIS,Duration of Disease,DISEASE HISTORY,85 months,85,85.0,MONTHS,2024-01-26,-26
VISION-NSCLC,SC,VISION-NSCLC-SITE002-0113,4,TOBPKYR,Tobacco Pack-Years,LIFESTYLE,12,12,12.0,PACK-YEARS,2024-01-26,-26
VISION-NSCLC,SC,VISION-NSCLC-SITE002-0113,5,TOBUSE,Tobacco Use,LIFESTYLE,CURRENT SMOKER,CURRENT SMOKER,,,2024-01-26,-26
VISION-NSCLC,SC,VISION-NSCLC-SITE002-0116,1,ALCUSE,Alcohol Use,LIFESTYLE,NON-DRINKER,NON-DRINKER,,,2024-01-18,-32
VISION-NSCLC,SC,VISION-NSCLC-SITE002-0116,2,BMI,Body Mass Index,PHYSICAL CHARACTERISTIC,23.5,23.5,23.5,kg/m2,2024-01-18,-32
VISION-NSCLC,SC,VISION-NSCLC-SITE002-0116,3,DURDIS,Duration of Disease,DISEASE HISTORY,97 months,97,97.0,MONTHS,2024-01-18,-32
VISION-NSCLC,SC,VISION-NSCLC-SITE002-0116,4,TOBUSE,Tobacco Use,LIFESTYLE,NEVER SMOKED,NEVER SMOKED,,,2024-01-18,-32
VISION-NSCLC,SC,VISION-NSCLC-SITE002-0119,1,ALCUSE,Alcohol Use,LIFESTYLE,NON-DRINKER,NON-DRINKER,,,2024-03-03,-15
VISION-NSCLC,SC,VISION-NSCLC-SITE002-0119,2,BMI,Body Mass Index,PHYSICAL CHARACTERISTIC,27.5,27.5,27.5,kg/m2,2024-03-03,-15
VISION-NSCLC,SC,VISION-NSCLC-SITE002-0119,3,DURDIS,Duration of Disease,DISEASE HISTORY,121 months,121,121.0,MONTHS,2024-03-03,-15
VISION-NSCLC,SC,VISION-NSCLC-SITE002-0119,4,TOBPKYR,Tobacco Pack-Years,LIFESTYLE,14,14,14.0,PACK-YEARS,2024-03-03,-15
VISION-NSCLC,SC,VISION-NSCLC-SITE002-0119,5,TOBUSE,Tobacco Use,LIFESTYLE,CURRENT SMOKER,CURRENT SMOKER,,,2024-03-03,-15
VISION-NSCLC,SC,VISION-NSCLC-SITE002-0122,1,ALCUSE,Alcohol Use,LIFESTYLE,NON-DRINKER,NON-DRINKER,,,2024-02-24,-18
VISION-NSCLC,SC,VISION-NSCLC-SITE002-0122,2,BMI,Body Mass Index,PHYSICAL CHARACTERISTIC,22.0,22.0,22.0,kg/m2,2024-02-24,-18
VISION-NSCLC,SC,VISION-NSCLC-SITE002-0122,3,DURDIS,Duration of Disease,DISEASE HISTORY,36 months,36,36.0,MONTHS,2024-02-24,-18
VISION-NSCLC,SC,VISION-NSCLC-SITE002-0122,4,TOBUSE,Tobacco Use,LIFESTYLE,NEVER SMOKED,NEVER SMOKED,,,2024-02-24,-18
VISION-NSCLC,SC,VISION-NSCLC-SITE002-0125,1,ALCUSE,Alcohol Use,LIFESTYLE,CURRENT DRINKER,CURRENT DRINKER,,,2024-03-09,-21
VISION-NSCLC,SC,VISION-NSCLC-SITE002-0125,2,BMI,Body Mass Index,PHYSICAL CHARACTERISTIC,18.1,18.1,18.1,kg/m2,2024-03-09,-21
VISION-NSCLC,SC,VISION-NSCLC-SITE002-0125,3,DURDIS,Duration of Disease,DISEASE HISTORY,85 months,85,85.0,MONTHS,2024-03-09,-21
VISION-NSCLC,SC,VISION-NSCLC-SITE002-0125,4,TOBPKYR,Tobacco Pack-Years,LIFESTYLE,15,15,15.0,PACK-YEARS,2024-03-09,-21
VISION-NSCLC,SC,VISION-NSCLC-SITE002-0125,5,TOBUSE,Tobacco Use,LIFESTYLE,CURRENT SMOKER,CURRENT SMOKER,,,2024-03-09,-21
VISION-NSCLC,SC,VISION-NSCLC-SITE002-0128,1,ALCUSE,Alcohol Use,LIFESTYLE,NON-DRINKER,NON-DRINKER,,,2024-03-07,-14
VISION-NSCLC,SC,VISION-NSCLC-SITE002-0128,2,BMI,Body Mass Index,PHYSICAL CHARACTERISTIC,21.8,21.8,21.8,kg/m2,2024-03-07,-14
VISION-NSCLC,SC,VISION-NSCLC-SITE002-0128,3,DURDIS,Duration of Disease,DISEASE HISTORY,73 months,73,73.0,MONTHS,2024-03-07,-14
VISION-NSCLC,SC,VISION-NSCLC-SITE002-0128,4,TOBUSE,Tobacco Use,LIFESTYLE,NEVER SMOKED,NEVER SMOKED,,,2024-03-07,-14
VISION-NSCLC,SC,VISION-NSCLC-SITE002-0131,1,ALCUSE,Alcohol Use,LIFESTYLE,CURRENT DRINKER,CURRENT DRINKER,,,2024-03-30,-24
VISION-NSCLC,SC,VISION-NSCLC-SITE002-0131,2,BMI,Body Mass Index,PHYSICAL CHARACTERISTIC,21.6,21.6,21.6,kg/m2,2024-03-30,-24
VISION-NSCLC,SC,VISION-NSCLC-SITE002-0131,3,DURDIS,Duration of Disease,DISEASE HISTORY,121 months,121,121.0,MONTHS,2024-03-30,-24
VISION-NSCLC,SC,VISION-NSCLC-SITE002-0131,4,TOBUSE,Tobacco Use,LIFESTYLE,NEVER SMOKED,NEVER SMOKED,,,2024-03-30,-24
VISION-NSCLC,SC,VISION-NSCLC-SITE002-0134,1,ALCUSE,Alcohol Use,LIFESTYLE,NON-DRINKER,NON-DRINKER,,,2024-02-21,-17
VISION-NSCLC,SC,VISION-NSCLC-SITE002-0134,2,BMI,Body Mass Index,PHYSICAL CHARACTERISTIC,24.5,24.5,24.5,kg/m2,2024-02-21,-17
VISION-NSCLC,SC,VISION-NSCLC-SITE002-0134,3,DURDIS,Duration of Disease,DISEASE HISTORY,121 months,121,121.0,MONTHS,2024-02-21,-17
VISION-NSCLC,SC,VISION-NSCLC-SITE002-0134,4,TOBUSE,Tobacco Use,LIFESTYLE,NEVER SMOKED,NEVER SMOKED,,,2024-02-21,-17
VISION-NSCLC,SC,VISION-NSCLC-SITE002-0137,1,ALCUSE,Alcohol Use,LIFESTYLE,NON-DRINKER,NON-DRINKER,,,2024-02-02,-16
VISION-NSCLC,SC,VISION-NSCLC-SITE002-0137,2,BMI,Body Mass Index,PHYSICAL CHARACTERISTIC,15.8,15.8,15.8,kg/m2,2024-02-02,-16
VISION-NSCLC,SC,VISION-NSCLC-SITE002-0137,3,TOBPKYR,Tobacco Pack-Years,LIFESTYLE,39,39,39.0,PACK-YEARS,2024-02-02,-16
VISION-NSCLC,SC,VISION-NSCLC-SITE002-0137,4,TOBUSE,Tobacco Use,LIFESTYLE,CURRENT SMOKER,CURRENT SMOKER,,,2024-02-02,-16
VISION-NSCLC,SC,VISION-NSCLC-SITE002-0140,1,ALCUSE,Alcohol Use,LIFESTYLE,NON-DRINKER,NON-DRINKER,,,2024-02-12,-9
VISION-NSCLC,SC,VISION-NSCLC-SITE002-0140,2,BMI,Body Mass Index,PHYSICAL CHARACTERISTIC,23.1,23.1,23.1,kg/m2,2024-02-12,-9
VISION-NSCLC,SC,VISION-NSCLC-SITE002-0140,3,DURDIS,Duration of Disease,DISEASE HISTORY,121 months,121,121.0,MONTHS,2024-02-12,-9
VISION-NSCLC,SC,VISION-NSCLC-SITE002-0140,4,TOBPKYR,Tobacco Pack-Years,LIFESTYLE,12,12,12.0,PACK-YEARS,2024-02-12,-9
VISION-NSCLC,SC,VISION-NSCLC-SITE002-0140,5,TOBUSE,Tobacco Use,LIFESTYLE,CURRENT SMOKER,CURRENT SMOKER,,,2024-02-12,-9
VISION-NSCLC,SC,VISION-NSCLC-SITE002-0143,1,ALCUSE,Alcohol Use,LIFESTYLE,NON-DRINKER,NON-DRINKER,,,2024-02-12,-32
VISION-NSCLC,SC,VISION-NSCLC-SITE002-0143,2,BMI,Body Mass Index,PHYSICAL CHARACTERISTIC,18.2,18.2,18.2,kg/m2,2024-02-12,-32
VISION-NSCLC,SC,VISION-NSCLC-SITE002-0143,3,DURDIS,Duration of Disease,DISEASE HISTORY,121 months,121,121.0,MONTHS,2024-02-12,-32
VISION-NSCLC,SC,VISION-NSCLC-SITE002-0143,4,TOBUSE,Tobacco Use,LIFESTYLE,NEVER SMOKED,NEVER SMOKED,,,2024-02-12,-32
VISION-NSCLC,SC,VISION-NSCLC-SITE002-0146,1,ALCUSE,Alcohol Use,LIFESTYLE,CURRENT DRINKER,CURRENT DRINKER,,,2024-03-05,-22
VISION-NSCLC,SC,VISION-NSCLC-SITE002-0146,2,BMI,Body Mass Index,PHYSICAL CHARACTERISTIC,30.0,30.0,30.0,kg/m2,2024-03-05,-22
VISION-NSCLC,SC,VISION-NSCLC-SITE002-0146,3,DURDIS,Duration of Disease,DISEASE HISTORY,121 months,121,121.0,MONTHS,2024-03-05,-22
VISION-NSCLC,SC,VISION-NSCLC-SITE002-0146,4,TOBUSE,Tobacco Use,LIFESTYLE,NEVER SMOKED,NEVER SMOKED,,,2024-03-05,-22
VISION-NSCLC,SC,VISION-NSCLC-SITE002-0149,1,ALCUSE,Alcohol Use,LIFESTYLE,CURRENT DRINKER,CURRENT DRINKER,,,2024-03-14,-17
VISION-NSCLC,SC,VISION-NSCLC-SITE002-0149,2,BMI,Body Mass Index,PHYSICAL CHARACTERISTIC,29.6,29.6,29.6,kg/m2,2024-03-14,-17
VISION-NSCLC,SC,VISION-NSCLC-SITE002-0149,3,DURDIS,Duration of Disease,DISEASE HISTORY,121 months,121,121.0,MONTHS,2024-03-14,-17
VISION-NSCLC,SC,VISION-NSCLC-SITE002-0149,4,TOBUSE,Tobacco Use,LIFESTYLE,NEVER SMOKED,NEVER SMOKED,,,2024-03-14,-17
VISION-NSCLC,SC,VISION-NSCLC-SITE003-0003,1,ALCUSE,Alcohol Use,LIFESTYLE,CURRENT DRINKER,CURRENT DRINKER,,,2024-02-27,-20
VISION-NSCLC,SC,VISION-NSCLC-SITE003-0003,2,BMI,Body Mass Index,PHYSICAL CHARACTERISTIC,23.0,23.0,23.0,kg/m2,2024-02-27,-20
VISION-NSCLC,SC,VISION-NSCLC-SITE003-0003,3,DURDIS,Duration of Disease,DISEASE HISTORY,60 months,60,60.0,MONTHS,2024-02-27,-20
VISION-NSCLC,SC,VISION-NSCLC-SITE003-0003,4,TOBUSE,Tobacco Use,LIFESTYLE,NEVER SMOKED,NEVER SMOKED,,,2024-02-27,-20
VISION-NSCLC,SC,VISION-NSCLC-SITE003-0006,1,ALCUSE,Alcohol Use,LIFESTYLE,CURRENT DRINKER,CURRENT DRINKER,,,2024-02-13,-20
VISION-NSCLC,SC,VISION-NSCLC-SITE003-0006,2,BMI,Body Mass Index,PHYSICAL CHARACTERISTIC,37.5,37.5,37.5,kg/m2,2024-02-13,-20
VISION-NSCLC,SC,VISION-NSCLC-SITE003-0006,3,TOBPKYR,Tobacco Pack-Years,LIFESTYLE,33,33,33.0,PACK-YEARS,2024-02-13,-20
VISION-NSCLC,SC,VISION-NSCLC-SITE003-0006,4,TOBUSE,Tobacco Use,LIFESTYLE,FORMER SMOKER,FORMER SMOKER,,,2024-02-13,-20
VISION-NSCLC,SC,VISION-NSCLC-SITE003-0009,1,ALCUSE,Alcohol Use,LIFESTYLE,CURRENT DRINKER,CURRENT DRINKER,,,2024-03-28,-12
VISION-NSCLC,SC,VISION-NSCLC-SITE003-0009,2,BMI,Body Mass Index,PHYSICAL CHARACTERISTIC,20.4,20.4,20.4,kg/m2,2024-03-28,-12
VISION-NSCLC,SC,VISION-NSCLC-SITE003-0009,3,DURDIS,Duration of Disease,DISEASE HISTORY,121 months,121,121.0,MONTHS,2024-03-28,-12
VISION-NSCLC,SC,VISION-NSCLC-SITE003-0009,4,TOBPKYR,Tobacco Pack-Years,LIFESTYLE,15,15,15.0,PACK-YEARS,2024-03-28,-12
VISION-NSCLC,SC,VISION-NSCLC-SITE003-0009,5,TOBUSE,Tobacco Use,LIFESTYLE,FORMER SMOKER,FORMER SMOKER,,,2024-03-28,-12
VISION-NSCLC,SC,VISION-NSCLC-SITE003-0012,1,ALCUSE,Alcohol Use,LIFESTYLE,NON-DRINKER,NON-DRINKER,,,2024-03-23,-12
VISION-NSCLC,SC,VISION-NSCLC-SITE003-0012,2,BMI,Body Mass Index,PHYSICAL CHARACTERISTIC,31.8,31.8,31.8,kg/m2,2024-03-23,-12
VISION-NSCLC,SC,VISION-NSCLC-SITE003-0012,3,DURDIS,Duration of Disease,DISEASE HISTORY,12 months,12,12.0,MONTHS,2024-03-23,-12
VISION-NSCLC,SC,VISION-NSCLC-SITE003-0012,4,TOBPKYR,Tobacco Pack-Years,LIFESTYLE,26,26,26.0,PACK-YEARS,2024-03-23,-12
VISION-NSCLC,SC,VISION-NSCLC-SITE003-0012,5,TOBUSE,Tobacco Use,LIFESTYLE,CURRENT SMOKER,CURRENT SMOKER,,,2024-03-23,-12
VISION-NSCLC,SC,VISION-NSCLC-SITE003-0021,1,ALCUSE,Alcohol Use,LIFESTYLE,NON-DRINKER,NON-DRINKER,,,2024-01-30,-22
VISION-NSCLC,SC,VISION-NSCLC-SITE003-0021,2,BMI,Body Mass Index,PHYSICAL CHARACTERISTIC,29.6,29.6,29.6,kg/m2,2024-01-30,-22
VISION-NSCLC,SC,VISION-NSCLC-SITE003-0021,3,DURDIS,Duration of Disease,DISEASE HISTORY,85 months,85,85.0,MONTHS,2024-01-30,-22
VISION-NSCLC,SC,VISION-NSCLC-SITE003-0021,4,TOBUSE,Tobacco Use,LIFESTYLE,NEVER SMOKED,NEVER SMOKED,,,2024-01-30,-22
VISION-NSCLC,SC,VISION-NSCLC-SITE003-0024,1,ALCUSE,Alcohol Use,LIFESTYLE,HEAVY DRINKER,HEAVY DRINKER,,,2024-02-12,-7
VISION-NSCLC,SC,VISION-NSCLC-SITE003-0024,2,BMI,Body Mass Index,PHYSICAL CHARACTERISTIC,25.3,25.3,25.3,kg/m2,2024-02-12,-7
VISION-NSCLC,SC,VISION-NSCLC-SITE003-0024,3,DURDIS,Duration of Disease,DISEASE HISTORY,73 months,73,73.0,MONTHS,2024-02-12,-7
VISION-NSCLC,SC,VISION-NSCLC-SITE003-0024,4,TOBPKYR,Tobacco Pack-Years,LIFESTYLE,28,28,28.0,PACK-YEARS,2024-02-12,-7
VISION-NSCLC,SC,VISION-NSCLC-SITE003-0024,5,TOBUSE,Tobacco Use,LIFESTYLE,CURRENT SMOKER,CURRENT SMOKER,,,2024-02-12,-7
VISION-NSCLC,SC,VISION-NSCLC-SITE003-0030,1,ALCUSE,Alcohol Use,LIFESTYLE,CURRENT DRINKER,CURRENT DRINKER,,,2024-03-11,-28
VISION-NSCLC,SC,VISION-NSCLC-SITE003-0030,2,BMI,Body Mass Index,PHYSICAL CHARACTERISTIC,27.4,27.4,27.4,kg/m2,2024-03-11,-28
VISION-NSCLC,SC,VISION-NSCLC-SITE003-0030,3,DURDIS,Duration of Disease,DISEASE HISTORY,121 months,121,121.0,MONTHS,2024-03-11,-28
VISION-NSCLC,SC,VISION-NSCLC-SITE003-0030,4,TOBUSE,Tobacco Use,LIFESTYLE,NEVER SMOKED,NEVER SMOKED,,,2024-03-11,-28
VISION-NSCLC,SC,VISION-NSCLC-SITE003-0033,1,ALCUSE,Alcohol Use,LIFESTYLE,CURRENT DRINKER,CURRENT DRINKER,,,2024-03-29,-14
VISION-NSCLC,SC,VISION-NSCLC-SITE003-0033,2,BMI,Body Mass Index,PHYSICAL CHARACTERISTIC,27.0,27.0,27.0,kg/m2,2024-03-29,-14
VISION-NSCLC,SC,VISION-NSCLC-SITE003-0033,3,DURDIS,Duration of Disease,DISEASE HISTORY,97 months,97,97.0,MONTHS,2024-03-29,-14
VISION-NSCLC,SC,VISION-NSCLC-SITE003-0033,4,TOBUSE,Tobacco Use,LIFESTYLE,NEVER SMOKED,NEVER SMOKED,,,2024-03-29,-14
VISION-NSCLC,SC,VISION-NSCLC-SITE003-0036,1,ALCUSE,Alcohol Use,LIFESTYLE,HEAVY DRINKER,HEAVY DRINKER,,,2024-02-09,-13
VISION-NSCLC,SC,VISION-NSCLC-SITE003-0036,2,BMI,Body Mass Index,PHYSICAL CHARACTERISTIC,18.8,18.8,18.8,kg/m2,2024-02-09,-13
VISION-NSCLC,SC,VISION-NSCLC-SITE003-0036,3,DURDIS,Duration of Disease,DISEASE HISTORY,109 months,109,109.0,MONTHS,2024-02-09,-13
VISION-NSCLC,SC,VISION-NSCLC-SITE003-0036,4,TOBPKYR,Tobacco Pack-Years,LIFESTYLE,8,8,8.0,PACK-YEARS,2024-02-09,-13
VISION-NSCLC,SC,VISION-NSCLC-SITE003-0036,5,TOBUSE,Tobacco Use,LIFESTYLE,FORMER SMOKER,FORMER SMOKER,,,2024-02-09,-13
VISION-NSCLC,SC,VISION-NSCLC-SITE003-0039,1,ALCUSE,Alcohol Use,LIFESTYLE,NON-DRINKER,NON-DRINKER,,,2024-02-08,-21
VISION-NSCLC,SC,VISION-NSCLC-SITE003-0039,2,BMI,Body Mass Index,PHYSICAL CHARACTERISTIC,15.8,15.8,15.8,kg/m2,2024-02-08,-21
VISION-NSCLC,SC,VISION-NSCLC-SITE003-0039,3,TOBPKYR,Tobacco Pack-Years,LIFESTYLE,25,25,25.0,PACK-YEARS,2024-02-08,-21
VISION-NSCLC,SC,VISION-NSCLC-SITE003-0039,4,TOBUSE,Tobacco Use,LIFESTYLE,FORMER SMOKER,FORMER SMOKER,,,2024-02-08,-21
VISION-NSCLC,SC,VISION-NSCLC-SITE003-0042,1,ALCUSE,Alcohol Use,LIFESTYLE,CURRENT DRINKER,CURRENT DRINKER,,,2024-02-21,-33
VISION-NSCLC,SC,VISION-NSCLC-SITE003-0042,2,BMI,Body Mass Index,PHYSICAL CHARACTERISTIC,22.5,22.5,22.5,kg/m2,2024-02-21,-33
VISION-NSCLC,SC,VISION-NSCLC-SITE003-0042,3,DURDIS,Duration of Disease,DISEASE HISTORY,73 months,73,73.0,MONTHS,2024-02-21,-33
VISION-NSCLC,SC,VISION-NSCLC-SITE003-0042,4,TOBUSE,Tobacco Use,LIFESTYLE,NEVER SMOKED,NEVER SMOKED,,,2024-02-21,-33
VISION-NSCLC,SC,VISION-NSCLC-SITE003-0048,1,ALCUSE,Alcohol Use,LIFESTYLE,NON-DRINKER,NON-DRINKER,,,2024-03-16,-32
VISION-NSCLC,SC,VISION-NSCLC-SITE003-0048,2,BMI,Body Mass Index,PHYSICAL CHARACTERISTIC,31.5,31.5,31.5,kg/m2,2024-03-16,-32
VISION-NSCLC,SC,VISION-NSCLC-SITE003-0048,3,DURDIS,Duration of Disease,DISEASE HISTORY,60 months,60,60.0,MONTHS,2024-03-16,-32
VISION-NSCLC,SC,VISION-NSCLC-SITE003-0048,4,TOBPKYR,Tobacco Pack-Years,LIFESTYLE,19,19,19.0,PACK-YEARS,2024-03-16,-32
VISION-NSCLC,SC,VISION-NSCLC-SITE003-0048,5,TOBUSE,Tobacco Use,LIFESTYLE,FORMER SMOKER,FORMER SMOKER,,,2024-03-16,-32
VISION-NSCLC,SC,VISION-NSCLC-SITE003-0051,1,ALCUSE,Alcohol Use,LIFESTYLE,CURRENT DRINKER,CURRENT DRINKER,,,2024-03-23,-12
VISION-NSCLC,SC,VISION-NSCLC-SITE003-0051,2,BMI,Body Mass Index,PHYSICAL CHARACTERISTIC,28.1,28.1,28.1,kg/m2,2024-03-23,-12
VISION-NSCLC,SC,VISION-NSCLC-SITE003-0051,3,DURDIS,Duration of Disease,DISEASE HISTORY,121 months,121,121.0,MONTHS,2024-03-23,-12
VISION-NSCLC,SC,VISION-NSCLC-SITE003-0051,4,TOBPKYR,Tobacco Pack-Years,LIFESTYLE,18,18,18.0,PACK-YEARS,2024-03-23,-12
VISION-NSCLC,SC,VISION-NSCLC-SITE003-0051,5,TOBUSE,Tobacco Use,LIFESTYLE,FORMER SMOKER,FORMER SMOKER,,,2024-03-23,-12
VISION-NSCLC,SC,VISION-NSCLC-SITE003-0054,1,ALCUSE,Alcohol Use,LIFESTYLE,NON-DRINKER,NON-DRINKER,,,2024-01-18,-8
VISION-NSCLC,SC,VISION-NSCLC-SITE003-0054,2,BMI,Body Mass Index,PHYSICAL CHARACTERISTIC,30.8,30.8,30.8,kg/m2,2024-01-18,-8
VISION-NSCLC,SC,VISION-NSCLC-SITE003-0054,3,DURDIS,Duration of Disease,DISEASE HISTORY,121 months,121,121.0,MONTHS,2024-01-18,-8
VISION-NSCLC,SC,VISION-NSCLC-SITE003-0054,4,TOBPKYR,Tobacco Pack-Years,LIFESTYLE,19,19,19.0,PACK-YEARS,2024-01-18,-8
VISION-NSCLC,SC,VISION-NSCLC-SITE003-0054,5,TOBUSE,Tobacco Use,LIFESTYLE,CURRENT SMOKER,CURRENT SMOKER,,,2024-01-18,-8
VISION-NSCLC,SC,VISION-NSCLC-SITE003-0057,1,ALCUSE,Alcohol Use,LIFESTYLE,NON-DRINKER,NON-DRINKER,,,2024-03-20,-11
VISION-NSCLC,SC,VISION-NSCLC-SITE003-0057,2,BMI,Body Mass Index,PHYSICAL CHARACTERISTIC,27.7,27.7,27.7,kg/m2,2024-03-20,-11
VISION-NSCLC,SC,VISION-NSCLC-SITE003-0057,3,DURDIS,Duration of Disease,DISEASE HISTORY,85 months,85,85.0,MONTHS,2024-03-20,-11
VISION-NSCLC,SC,VISION-NSCLC-SITE003-0057,4,TOBPKYR,Tobacco Pack-Years,LIFESTYLE,29,29,29.0,PACK-YEARS,2024-03-20,-11
VISION-NSCLC,SC,VISION-NSCLC-SITE003-0057,5,TOBUSE,Tobacco Use,LIFESTYLE,FORMER SMOKER,FORMER SMOKER,,,2024-03-20,-11
VISION-NSCLC,SC,VISION-NSCLC-SITE003-0060,1,ALCUSE,Alcohol Use,LIFESTYLE,CURRENT DRINKER,CURRENT DRINKER,,,2024-03-01,-24
VISION-NSCLC,SC,VISION-NSCLC-SITE003-0060,2,BMI,Body Mass Index,PHYSICAL CHARACTERISTIC,24.0,24.0,24.0,kg/m2,2024-03-01,-24
VISION-NSCLC,SC,VISION-NSCLC-SITE003-0060,3,DURDIS,Duration of Disease,DISEASE HISTORY,85 months,85,85.0,MONTHS,2024-03-01,-24
VISION-NSCLC,SC,VISION-NSCLC-SITE003-0060,4,TOBUSE,Tobacco Use,LIFESTYLE,NEVER SMOKED,NEVER SMOKED,,,2024-03-01,-24
VISION-NSCLC,SC,VISION-NSCLC-SITE003-0063,1,ALCUSE,Alcohol Use,LIFESTYLE,HEAVY DRINKER,HEAVY DRINKER,,,2024-02-01,-27
VISION-NSCLC,SC,VISION-NSCLC-SITE003-0063,2,BMI,Body Mass Index,PHYSICAL CHARACTERISTIC,21.7,21.7,21.7,kg/m2,2024-02-01,-27
VISION-NSCLC,SC,VISION-NSCLC-SITE003-0063,3,DURDIS,Duration of Disease,DISEASE HISTORY,97 months,97,97.0,MONTHS,2024-02-01,-27
VISION-NSCLC,SC,VISION-NSCLC-SITE003-0063,4,TOBUSE,Tobacco Use,LIFESTYLE,NEVER SMOKED,NEVER SMOKED,,,2024-02-01,-27
VISION-NSCLC,SC,VISION-NSCLC-SITE003-0066,1,ALCUSE,Alcohol Use,LIFESTYLE,NON-DRINKER,NON-DRINKER,,,2024-02-01,-20
VISION-NSCLC,SC,VISION-NSCLC-SITE003-0066,2,BMI,Body Mass Index,PHYSICAL CHARACTERISTIC,19.2,19.2,19.2,kg/m2,2024-02-01,-20
VISION-NSCLC,SC,VISION-NSCLC-SITE003-0066,3,DURDIS,Duration of Disease,DISEASE HISTORY,36 months,36,36.0,MONTHS,2024-02-01,-20
VISION-NSCLC,SC,VISION-NSCLC-SITE003-0066,4,TOBPKYR,Tobacco Pack-Years,LIFESTYLE,33,33,33.0,PACK-YEARS,2024-02-01,-20
VISION-NSCLC,SC,VISION-NSCLC-SITE003-0066,5,TOBUSE,Tobacco Use,LIFESTYLE,CURRENT SMOKER,CURRENT SMOKER,,,2024-02-01,-20
VISION-NSCLC,SC,VISION-NSCLC-SITE003-0069,1,ALCUSE,Alcohol Use,LIFESTYLE,NON-DRINKER,NON-DRINKER,,,2024-03-08,-22
VISION-NSCLC,SC,VISION-NSCLC-SITE003-0069,2,BMI,Body Mass Index,PHYSICAL CHARACTERISTIC,24.5,24.5,24.5,kg/m2,2024-03-08,-22
VISION-NSCLC,SC,VISION-NSCLC-SITE003-0069,3,DURDIS,Duration of Disease,DISEASE HISTORY,85 months,85,85.0,MONTHS,2024-03-08,-22
VISION-NSCLC,SC,VISION-NSCLC-SITE003-0069,4,TOBPKYR,Tobacco Pack-Years,LIFESTYLE,29,29,29.0,PACK-YEARS,2024-03-08,-22
VISION-NSCLC,SC,VISION-NSCLC-SITE003-0069,5,TOBUSE,Tobacco Use,LIFESTYLE,FORMER SMOKER,FORMER SMOKER,,,2024-03-08,-22
VISION-NSCLC,SC,VISION-NSCLC-SITE003-0072,1,ALCUSE,Alcohol Use,LIFESTYLE,CURRENT DRINKER,CURRENT DRINKER,,,2024-03-19,-19
VISION-NSCLC,SC,VISION-NSCLC-SITE003-0072,2,BMI,Body Mass Index,PHYSICAL CHARACTERISTIC,25.9,25.9,25.9,kg/m2,2024-03-19,-19
VISION-NSCLC,SC,VISION-NSCLC-SITE003-0072,3,DURDIS,Duration of Disease,DISEASE HISTORY,109 months,109,109.0,MONTHS,2024-03-19,-19
VISION-NSCLC,SC,VISION-NSCLC-SITE003-0072,4,TOBUSE,Tobacco Use,LIFESTYLE,NEVER SMOKED,NEVER SMOKED,,,2024-03-19,-19
VISION-NSCLC,SC,VISION-NSCLC-SITE003-0075,1,ALCUSE,Alcohol Use,LIFESTYLE,NON-DRINKER,NON-DRINKER,,,2024-03-12,-28
VISION-NSCLC,SC,VISION-NSCLC-SITE003-0075,2,BMI,Body Mass Index,PHYSICAL CHARACTERISTIC,21.6,21.6,21.6,kg/m2,2024-03-12,-28
VISION-NSCLC,SC,VISION-NSCLC-SITE003-0075,3,DURDIS,Duration of Disease,DISEASE HISTORY,85 months,85,85.0,MONTHS,2024-03-12,-28
VISION-NSCLC,SC,VISION-NSCLC-SITE003-0075,4,TOBPKYR,Tobacco Pack-Years,LIFESTYLE,31,31,31.0,PACK-YEARS,2024-03-12,-28
VISION-NSCLC,SC,VISION-NSCLC-SITE003-0075,5,TOBUSE,Tobacco Use,LIFESTYLE,FORMER SMOKER,FORMER SMOKER,,,2024-03-12,-28
VISION-NSCLC,SC,VISION-NSCLC-SITE003-0078,1,ALCUSE,Alcohol Use,LIFESTYLE,NON-DRINKER,NON-DRINKER,,,2024-03-17,-12
VISION-NSCLC,SC,VISION-NSCLC-SITE003-0078,2,BMI,Body Mass Index,PHYSICAL CHARACTERISTIC,25.0,25.0,25.0,kg/m2,2024-03-17,-12
VISION-NSCLC,SC,VISION-NSCLC-SITE003-0078,3,DURDIS,Duration of Disease,DISEASE HISTORY,85 months,85,85.0,MONTHS,2024-03-17,-12
VISION-NSCLC,SC,VISION-NSCLC-SITE003-0078,4,TOBUSE,Tobacco Use,LIFESTYLE,NEVER SMOKED,NEVER SMOKED,,,2024-03-17,-12
VISION-NSCLC,SC,VISION-NSCLC-SITE003-0081,1,ALCUSE,Alcohol Use,LIFESTYLE,HEAVY DRINKER,HEAVY DRINKER,,,2024-03-23,-8
VISION-NSCLC,SC,VISION-NSCLC-SITE003-0081,2,BMI,Body Mass Index,PHYSICAL CHARACTERISTIC,18.9,18.9,18.9,kg/m2,2024-03-23,-8
VISION-NSCLC,SC,VISION-NSCLC-SITE003-0081,3,DURDIS,Duration of Disease,DISEASE HISTORY,121 months,121,121.0,MONTHS,2024-03-23,-8
VISION-NSCLC,SC,VISION-NSCLC-SITE003-0081,4,TOBPKYR,Tobacco Pack-Years,LIFESTYLE,29,29,29.0,PACK-YEARS,2024-03-23,-8
VISION-NSCLC,SC,VISION-NSCLC-SITE003-0081,5,TOBUSE,Tobacco Use,LIFESTYLE,CURRENT SMOKER,CURRENT SMOKER,,,2024-03-23,-8
VISION-NSCLC,SC,VISION-NSCLC-SITE003-0084,1,ALCUSE,Alcohol Use,LIFESTYLE,CURRENT DRINKER,CURRENT DRINKER,,,2024-03-03,-17
VISION-NSCLC,SC,VISION-NSCLC-SITE003-0084,2,BMI,Body Mass Index,PHYSICAL CHARACTERISTIC,19.5,19.5,19.5,kg/m2,2024-03-03,-17
VISION-NSCLC,SC,VISION-NSCLC-SITE003-0084,3,DURDIS,Duration of Disease,DISEASE HISTORY,109 months,109,109.0,MONTHS,2024-03-03,-17
VISION-NSCLC,SC,VISION-NSCLC-SITE003-0084,4,TOBPKYR,Tobacco Pack-Years,LIFESTYLE,21,21,21.0,PACK-YEARS,2024-03-03,-17
VISION-NSCLC,SC,VISION-NSCLC-SITE003-0084,5,TOBUSE,Tobacco Use,LIFESTYLE,FORMER SMOKER,FORMER SMOKER,,,2024-03-03,-17
VISION-NSCLC,SC,VISION-NSCLC-SITE003-0087,1,ALCUSE,Alcohol Use,LIFESTYLE,CURRENT DRINKER,CURRENT DRINKER,,,2024-01-22,-13
VISION-NSCLC,SC,VISION-NSCLC-SITE003-0087,2,BMI,Body Mass Index,PHYSICAL CHARACTERISTIC,32.4,32.4,32.4,kg/m2,2024-01-22,-13
VISION-NSCLC,SC,VISION-NSCLC-SITE003-0087,3,DURDIS,Duration of Disease,DISEASE HISTORY,121 months,121,121.0,MONTHS,2024-01-22,-13
VISION-NSCLC,SC,VISION-NSCLC-SITE003-0087,4,TOBPKYR,Tobacco Pack-Years,LIFESTYLE,35,35,35.0,PACK-YEARS,2024-01-22,-13
VISION-NSCLC,SC,VISION-NSCLC-SITE003-0087,5,TOBUSE,Tobacco Use,LIFESTYLE,FORMER SMOKER,FORMER SMOKER,,,2024-01-22,-13
VISION-NSCLC,SC,VISION-NSCLC-SITE003-0090,1,ALCUSE,Alcohol Use,LIFESTYLE,CURRENT DRINKER,CURRENT DRINKER,,,2024-01-31,-34
VISION-NSCLC,SC,VISION-NSCLC-SITE003-0090,2,BMI,Body Mass Index,PHYSICAL CHARACTERISTIC,25.4,25.4,25.4,kg/m2,2024-01-31,-34
VISION-NSCLC,SC,VISION-NSCLC-SITE003-0090,3,DURDIS,Duration of Disease,DISEASE HISTORY,109 months,109,109.0,MONTHS,2024-01-31,-34
VISION-NSCLC,SC,VISION-NSCLC-SITE003-0090,4,TOBPKYR,Tobacco Pack-Years,LIFESTYLE,20,20,20.0,PACK-YEARS,2024-01-31,-34
VISION-NSCLC,SC,VISION-NSCLC-SITE003-0090,5,TOBUSE,Tobacco Use,LIFESTYLE,CURRENT SMOKER,CURRENT SMOKER,,,2024-01-31,-34
VISION-NSCLC,SC,VISION-NSCLC-SITE003-0093,1,ALCUSE,Alcohol Use,LIFESTYLE,NON-DRINKER,NON-DRINKER,,,2024-03-17,-35
VISION-NSCLC,SC,VISION-NSCLC-SITE003-0093,2,BMI,Body Mass Index,PHYSICAL CHARACTERISTIC,19.2,19.2,19.2,kg/m2,2024-03-17,-35
VISION-NSCLC,SC,VISION-NSCLC-SITE003-0093,3,TOBPKYR,Tobacco Pack-Years,LIFESTYLE,39,39,39.0,PACK-YEARS,2024-03-17,-35
VISION-NSCLC,SC,VISION-NSCLC-SITE003-0093,4,TOBUSE,Tobacco Use,LIFESTYLE,CURRENT SMOKER,CURRENT SMOKER,,,2024-03-17,-35
VISION-NSCLC,SC,VISION-NSCLC-SITE003-0096,1,ALCUSE,Alcohol Use,LIFESTYLE,NON-DRINKER,NON-DRINKER,,,2024-03-29,-21
VISION-NSCLC,SC,VISION-NSCLC-SITE003-0096,2,BMI,Body Mass Index,PHYSICAL CHARACTERISTIC,27.5,27.5,27.5,kg/m2,2024-03-29,-21
VISION-NSCLC,SC,VISION-NSCLC-SITE003-0096,3,DURDIS,Duration of Disease,DISEASE HISTORY,109 months,109,109.0,MONTHS,2024-03-29,-21
VISION-NSCLC,SC,VISION-NSCLC-SITE003-0096,4,TOBPKYR,Tobacco Pack-Years,LIFESTYLE,21,21,21.0,PACK-YEARS,2024-03-29,-21
VISION-NSCLC,SC,VISION-NSCLC-SITE003-0096,5,TOBUSE,Tobacco Use,LIFESTYLE,FORMER SMOKER,FORMER SMOKER,,,2024-03-29,-21
VISION-NSCLC,SC,VISION-NSCLC-SITE003-0102,1,ALCUSE,Alcohol Use,LIFESTYLE,CURRENT DRINKER,CURRENT DRINKER,,,2024-03-30,-31
VISION-NSCLC,SC,VISION-NSCLC-SITE003-0102,2,BMI,Body Mass Index,PHYSICAL CHARACTERISTIC,23.7,23.7,23.7,kg/m2,2024-03-30,-31
VISION-NSCLC,SC,VISION-NSCLC-SITE003-0102,3,DURDIS,Duration of Disease,DISEASE HISTORY,85 months,85,85.0,MONTHS,2024-03-30,-31
VISION-NSCLC,SC,VISION-NSCLC-SITE003-0102,4,TOBPKYR,Tobacco Pack-Years,LIFESTYLE,18,18,18.0,PACK-YEARS,2024-03-30,-31
VISION-NSCLC,SC,VISION-NSCLC-SITE003-0102,5,TOBUSE,Tobacco Use,LIFESTYLE,CURRENT SMOKER,CURRENT SMOKER,,,2024-03-30,-31
VISION-NSCLC,SC,VISION-NSCLC-SITE003-0105,1,ALCUSE,Alcohol Use,LIFESTYLE,NON-DRINKER,NON-DRINKER,,,2024-03-19,-32
VISION-NSCLC,SC,VISION-NSCLC-SITE003-0105,2,BMI,Body Mass Index,PHYSICAL CHARACTERISTIC,15.2,15.2,15.2,kg/m2,2024-03-19,-32
VISION-NSCLC,SC,VISION-NSCLC-SITE003-0105,3,DURDIS,Duration of Disease,DISEASE HISTORY,24 months,24,24.0,MONTHS,2024-03-19,-32
VISION-NSCLC,SC,VISION-NSCLC-SITE003-0105,4,TOBUSE,Tobacco Use,LIFESTYLE,NEVER SMOKED,NEVER SMOKED,,,2024-03-19,-32
VISION-NSCLC,SC,VISION-NSCLC-SITE003-0108,1,ALCUSE,Alcohol Use,LIFESTYLE,NON-DRINKER,NON-DRINKER,,,2024-01-27,-19
VISION-NSCLC,SC,VISION-NSCLC-SITE003-0108,2,BMI,Body Mass Index,PHYSICAL CHARACTERISTIC,25.7,25.7,25.7,kg/m2,2024-01-27,-19
VISION-NSCLC,SC,VISION-NSCLC-SITE003-0108,3,DURDIS,Duration of Disease,DISEASE HISTORY,109 months,109,109.0,MONTHS,2024-01-27,-19
VISION-NSCLC,SC,VISION-NSCLC-SITE003-0108,4,TOBUSE,Tobacco Use,LIFESTYLE,NEVER SMOKED,NEVER SMOKED,,,2024-01-27,-19
VISION-NSCLC,SC,VISION-NSCLC-SITE003-0111,1,ALCUSE,Alcohol Use,LIFESTYLE,CURRENT DRINKER,CURRENT DRINKER,,,2024-02-01,-15
VISION-NSCLC,SC,VISION-NSCLC-SITE003-0111,2,BMI,Body Mass Index,PHYSICAL CHARACTERISTIC,30.2,30.2,30.2,kg/m2,2024-02-01,-15
VISION-NSCLC,SC,VISION-NSCLC-SITE003-0111,3,DURDIS,Duration of Disease,DISEASE HISTORY,121 months,121,121.0,MONTHS,2024-02-01,-15
VISION-NSCLC,SC,VISION-NSCLC-SITE003-0111,4,TOBUSE,Tobacco Use,LIFESTYLE,NEVER SMOKED,NEVER SMOKED,,,2024-02-01,-15
VISION-NSCLC,SC,VISION-NSCLC-SITE003-0114,1,ALCUSE,Alcohol Use,LIFESTYLE,CURRENT DRINKER,CURRENT DRINKER,,,2024-02-16,-26
VISION-NSCLC,SC,VISION-NSCLC-SITE003-0114,2,BMI,Body Mass Index,PHYSICAL CHARACTERISTIC,17.0,17.0,17.0,kg/m2,2024-02-16,-26
VISION-NSCLC,SC,VISION-NSCLC-SITE003-0114,3,DURDIS,Duration of Disease,DISEASE HISTORY,121 months,121,121.0,MONTHS,2024-02-16,-26
VISION-NSCLC,SC,VISION-NSCLC-SITE003-0114,4,TOBUSE,Tobacco Use,LIFESTYLE,NEVER SMOKED,NEVER SMOKED,,,2024-02-16,-26
VISION-NSCLC,SC,VISION-NSCLC-SITE003-0117,1,ALCUSE,Alcohol Use,LIFESTYLE,NON-DRINKER,NON-DRINKER,,,2024-02-08,-23
VISION-NSCLC,SC,VISION-NSCLC-SITE003-0117,2,BMI,Body Mass Index,PHYSICAL CHARACTERISTIC,28.9,28.9,28.9,kg/m2,2024-02-08,-23
VISION-NSCLC,SC,VISION-NSCLC-SITE003-0117,3,DURDIS,Duration of Disease,DISEASE HISTORY,60 months,60,60.0,MONTHS,2024-02-08,-23
VISION-NSCLC,SC,VISION-NSCLC-SITE003-0117,4,TOBUSE,Tobacco Use,LIFESTYLE,NEVER SMOKED,NEVER SMOKED,,,2024-02-08,-23
VISION-NSCLC,SC,VISION-NSCLC-SITE003-0120,1,ALCUSE,Alcohol Use,LIFESTYLE,CURRENT DRINKER,CURRENT DRINKER,,,2024-03-12,-31
VISION-NSCLC,SC,VISION-NSCLC-SITE003-0120,2,BMI,Body Mass Index,PHYSICAL CHARACTERISTIC,15.5,15.5,15.5,kg/m2,2024-03-12,-31
VISION-NSCLC,SC,VISION-NSCLC-SITE003-0120,3,DURDIS,Duration of Disease,DISEASE HISTORY,109 months,109,109.0,MONTHS,2024-03-12,-31
VISION-NSCLC,SC,VISION-NSCLC-SITE003-0120,4,TOBPKYR,Tobacco Pack-Years,LIFESTYLE,13,13,13.0,PACK-YEARS,2024-03-12,-31
VISION-NSCLC,SC,VISION-NSCLC-SITE003-0120,5,TOBUSE,Tobacco Use,LIFESTYLE,FORMER SMOKER,FORMER SMOKER,,,2024-03-12,-31
VISION-NSCLC,SC,VISION-NSCLC-SITE003-0123,1,ALCUSE,Alcohol Use,LIFESTYLE,HEAVY DRINKER,HEAVY DRINKER,,,2024-03-02,-18
VISION-NSCLC,SC,VISION-NSCLC-SITE003-0123,2,BMI,Body Mass Index,PHYSICAL CHARACTERISTIC,19.5,19.5,19.5,kg/m2,2024-03-02,-18
VISION-NSCLC,SC,VISION-NSCLC-SITE003-0123,3,DURDIS,Duration of Disease,DISEASE HISTORY,109 months,109,109.0,MONTHS,2024-03-02,-18
VISION-NSCLC,SC,VISION-NSCLC-SITE003-0123,4,TOBUSE,Tobacco Use,LIFESTYLE,NEVER SMOKED,NEVER SMOKED,,,2024-03-02,-18
VISION-NSCLC,SC,VISION-NSCLC-SITE003-0126,1,ALCUSE,Alcohol Use,LIFESTYLE,CURRENT DRINKER,CURRENT DRINKER,,,2024-01-24,-26
VISION-NSCLC,SC,VISION-NSCLC-SITE003-0126,2,BMI,Body Mass Index,PHYSICAL CHARACTERISTIC,18.7,18.7,18.7,kg/m2,2024-01-24,-26
VISION-NSCLC,SC,VISION-NSCLC-SITE003-0126,3,DURDIS,Duration of Disease,DISEASE HISTORY,73 months,73,73.0,MONTHS,2024-01-24,-26
VISION-NSCLC,SC,VISION-NSCLC-SITE003-0126,4,TOBPKYR,Tobacco Pack-Years,LIFESTYLE,27,27,27.0,PACK-YEARS,2024-01-24,-26
VISION-NSCLC,SC,VISION-NSCLC-SITE003-0126,5,TOBUSE,Tobacco Use,LIFESTYLE,FORMER SMOKER,FORMER SMOKER,,,2024-01-24,-26
VISION-NSCLC,SC,VISION-NSCLC-SITE003-0129,1,ALCUSE,Alcohol Use,LIFESTYLE,CURRENT DRINKER,CURRENT DRINKER,,,2024-01-15,-11
VISION-NSCLC,SC,VISION-NSCLC-SITE003-0129,2,BMI,Body Mass Index,PHYSICAL CHARACTERISTIC,24.5,24.5,24.5,kg/m2,2024-01-15,-11
VISION-NSCLC,SC,VISION-NSCLC-SITE003-0129,3,DURDIS,Duration of Disease,DISEASE HISTORY,12 months,12,12.0,MONTHS,2024-01-15,-11
VISION-NSCLC,SC,VISION-NSCLC-SITE003-0129,4,TOBPKYR,Tobacco Pack-Years,LIFESTYLE,37,37,37.0,PACK-YEARS,2024-01-15,-11
VISION-NSCLC,SC,VISION-NSCLC-SITE003-0129,5,TOBUSE,Tobacco Use,LIFESTYLE,CURRENT SMOKER,CURRENT SMOKER,,,2024-01-15,-11
VISION-NSCLC,SC,VISION-NSCLC-SITE003-0132,1,ALCUSE,Alcohol Use,LIFESTYLE,NON-DRINKER,NON-DRINKER,,,2024-02-19,-18
VISION-NSCLC,SC,VISION-NSCLC-SITE003-0132,2,BMI,Body Mass Index,PHYSICAL CHARACTERISTIC,17.0,17.0,17.0,kg/m2,2024-02-19,-18
VISION-NSCLC,SC,VISION-NSCLC-SITE003-0132,3,DURDIS,Duration of Disease,DISEASE HISTORY,24 months,24,24.0,MONTHS,2024-02-19,-18
VISION-NSCLC,SC,VISION-NSCLC-SITE003-0132,4,TOBUSE,Tobacco Use,LIFESTYLE,NEVER SMOKED,NEVER SMOKED,,,2024-02-19,-18
VISION-NSCLC,SC,VISION-NSCLC-SITE003-0138,1,ALCUSE,Alcohol Use,LIFESTYLE,CURRENT DRINKER,CURRENT DRINKER,,,2024-04-05,-19
VISION-NSCLC,SC,VISION-NSCLC-SITE003-0138,2,BMI,Body Mass Index,PHYSICAL CHARACTERISTIC,25.5,25.5,25.5,kg/m2,2024-04-05,-19
VISION-NSCLC,SC,VISION-NSCLC-SITE003-0138,3,DURDIS,Duration of Disease,DISEASE HISTORY,73 months,73,73.0,MONTHS,2024-04-05,-19
VISION-NSCLC,SC,VISION-NSCLC-SITE003-0138,4,TOBUSE,Tobacco Use,LIFESTYLE,NEVER SMOKED,NEVER SMOKED,,,2024-04-05,-19
VISION-NSCLC,SC,VISION-NSCLC-SITE003-0144,1,ALCUSE,Alcohol Use,LIFESTYLE,NON-DRINKER,NON-DRINKER,,,2024-03-10,-33
VISION-NSCLC,SC,VISION-NSCLC-SITE003-0144,2,BMI,Body Mass Index,PHYSICAL CHARACTERISTIC,23.4,23.4,23.4,kg/m2,2024-03-10,-33
VISION-NSCLC,SC,VISION-NSCLC-SITE003-0144,3,DURDIS,Duration of Disease,DISEASE HISTORY,85 months,85,85.0,MONTHS,2024-03-10,-33
VISION-NSCLC,SC,VISION-NSCLC-SITE003-0144,4,TOBPKYR,Tobacco Pack-Years,LIFESTYLE,13,13,13.0,PACK-YEARS,2024-03-10,-33
VISION-NSCLC,SC,VISION-NSCLC-SITE003-0144,5,TOBUSE,Tobacco Use,LIFESTYLE,FORMER SMOKER,FORMER SMOKER,,,2024-03-10,-33
VISION-NSCLC,SC,VISION-NSCLC-SITE003-0147,1,ALCUSE,Alcohol Use,LIFESTYLE,NON-DRINKER,NON-DRINKER,,,2024-03-22,-34
VISION-NSCLC,SC,VISION-NSCLC-SITE003-0147,2,BMI,Body Mass Index,PHYSICAL CHARACTERISTIC,24.8,24.8,24.8,kg/m2,2024-03-22,-34
VISION-NSCLC,SC,VISION-NSCLC-SITE003-0147,3,TOBUSE,Tobacco Use,LIFESTYLE,NEVER SMOKED,NEVER SMOKED,,,2024-03-22,-34
VISION-NSCLC,SC,VISION-NSCLC-SITE003-0150,1,ALCUSE,Alcohol Use,LIFESTYLE,NON-DRINKER,NON-DRINKER,,,2024-03-10,-23
VISION-NSCLC,SC,VISION-NSCLC-SITE003-0150,2,BMI,Body Mass Index,PHYSICAL CHARACTERISTIC,21.3,21.3,21.3,kg/m2,2024-03-10,-23
VISION-NSCLC,SC,VISION-NSCLC-SITE003-0150,3,DURDIS,Duration of Disease,DISEASE HISTORY,24 months,24,24.0,MONTHS,2024-03-10,-23
VISION-NSCLC,SC,VISION-NSCLC-SITE003-0150,4,TOBPKYR,Tobacco Pack-Years,LIFESTYLE,14,14,14.0,PACK-YEARS,2024-03-10,-23
VISION-NSCLC,SC,VISION-NSCLC-SITE003-0150,5,TOBUSE,Tobacco Use,LIFESTYLE,FORMER SMOKER,FORMER SMOKER,,,2024-03-10,-23
