STUDYID,DOMAIN,USUBJID,EXSEQ,EXTRT,EXDOSE,EXDOSU,EXDOSFRM,EXDOSFRQ,EXROUTE,EPOCH,EXSTDTC,EXENDTC,EXSTDY,EXENDY
COVID-THER-301,EX,COVID-THER-301-SITE001-0001,1,PLACEBO,0.0,mg,,BID,ORAL,TREATMENT,2024-02-14,2024-02-17,1,4
COVID-THER-301,EX,COVID-THER-301-SITE001-0004,1,PLACEBO,0.0,mg,,BID,ORAL,TREATMENT,2024-03-30,2024-04-01,1,3
COVID-THER-301,EX,COVID-THER-301-SITE001-0007,1,PLACEBO,0.0,mg,,BID,ORAL,TREATMENT,2024-03-07,2024-03-08,1,2
COVID-THER-301,EX,COVID-THER-301-SITE001-0010,1,ANTIVIRAL,200.0,mg,,BID,ORAL,TREATMENT,2024-03-23,2024-03-26,1,4
COVID-THER-301,EX,COVID-THER-301-SITE001-0013,1,ANTIVIRAL,200.0,mg,,BID,ORAL,TREATMENT,2024-03-08,2024-03-10,1,3
COVID-THER-301,EX,COVID-THER-301-SITE001-0016,1,ANTIVIRAL,200.0,mg,,BID,ORAL,TREATMENT,2024-02-24,2024-02-26,1,3
COVID-THER-301,EX,COVID-THER-301-SITE001-0019,1,PLACEBO,0.0,mg,,BID,ORAL,TREATMENT,2024-02-23,2024-02-25,1,3
COVID-THER-301,EX,COVID-THER-301-SITE001-0022,1,PLACEBO,0.0,mg,,BID,ORAL,TREATMENT,2024-04-15,2024-04-18,1,4
COVID-THER-301,EX,COVID-THER-301-SITE001-0025,1,ANTIVIRAL,200.0,mg,,BID,ORAL,TREATMENT,2024-03-04,2024-03-07,1,4
COVID-THER-301,EX,COVID-THER-301-SITE001-0028,1,ANTIVIRAL,200.0,mg,,BID,ORAL,TREATMENT,2024-04-21,2024-04-23,1,3
COVID-THER-301,EX,COVID-THER-301-SITE001-0031,1,ANTIVIRAL,200.0,mg,,BID,ORAL,TREATMENT,2024-05-13,2024-05-15,1,3
COVID-THER-301,EX,COVID-THER-301-SITE001-0034,1,ANTIVIRAL,200.0,mg,,BID,ORAL,TREATMENT,2024-04-29,2024-04-30,1,2
COVID-THER-301,EX,COVID-THER-301-SITE001-0037,1,ANTIVIRAL,200.0,mg,,BID,ORAL,TREATMENT,2024-04-21,2024-04-25,1,5
COVID-THER-301,EX,COVID-THER-301-SITE001-0040,1,ANTIVIRAL,200.0,mg,,BID,ORAL,TREATMENT,2024-05-01,2024-05-03,1,3
COVID-THER-301,EX,COVID-THER-301-SITE001-0043,1,ANTIVIRAL,200.0,mg,,BID,ORAL,TREATMENT,2024-02-16,2024-02-18,1,3
COVID-THER-301,EX,COVID-THER-301-SITE001-0046,1,ANTIVIRAL,200.0,mg,,BID,ORAL,TREATMENT,2024-02-15,2024-02-16,1,2
COVID-THER-301,EX,COVID-THER-301-SITE001-0049,1,ANTIVIRAL,200.0,mg,,BID,ORAL,TREATMENT,2024-05-03,2024-05-05,1,3
COVID-THER-301,EX,COVID-THER-301-SITE001-0049,2,ANTIVIRAL,100.0,mg,,BID,ORAL,TREATMENT,2024-05-06,2024-05-06,4,4
COVID-THER-301,EX,COVID-THER-301-SITE001-0052,1,PLACEBO,0.0,mg,,BID,ORAL,TREATMENT,2024-02-07,2024-02-08,1,2
COVID-THER-301,EX,COVID-THER-301-SITE001-0055,1,ANTIVIRAL,200.0,mg,,BID,ORAL,TREATMENT,2024-01-29,2024-01-31,1,3
COVID-THER-301,EX,COVID-THER-301-SITE001-0058,1,ANTIVIRAL,200.0,mg,,BID,ORAL,TREATMENT,2024-03-07,2024-03-08,1,2
COVID-THER-301,EX,COVID-THER-301-SITE001-0061,1,ANTIVIRAL,200.0,mg,,BID,ORAL,TREATMENT,2024-03-07,2024-03-08,1,2
COVID-THER-301,EX,COVID-THER-301-SITE001-0067,1,ANTIVIRAL,200.0,mg,,BID,ORAL,TREATMENT,2024-03-03,2024-03-05,1,3
COVID-THER-301,EX,COVID-THER-301-SITE001-0070,1,ANTIVIRAL,200.0,mg,,BID,ORAL,TREATMENT,2024-02-08,2024-02-11,1,4
COVID-THER-301,EX,COVID-THER-301-SITE001-0073,1,PLACEBO,0.0,mg,,BID,ORAL,TREATMENT,2024-03-02,2024-03-04,1,3
COVID-THER-301,EX,COVID-THER-301-SITE001-0076,1,PLACEBO,0.0,mg,,BID,ORAL,TREATMENT,2024-03-20,2024-03-21,1,2
COVID-THER-301,EX,COVID-THER-301-SITE001-0079,1,PLACEBO,0.0,mg,,BID,ORAL,TREATMENT,2024-02-24,2024-02-26,1,3
COVID-THER-301,EX,COVID-THER-301-SITE001-0082,1,ANTIVIRAL,200.0,mg,,BID,ORAL,TREATMENT,2024-04-05,2024-04-08,1,4
COVID-THER-301,EX,COVID-THER-301-SITE001-0085,1,PLACEBO,0.0,mg,,BID,ORAL,TREATMENT,2024-04-06,2024-04-07,1,2
COVID-THER-301,EX,COVID-THER-301-SITE001-0088,1,PLACEBO,0.0,mg,,BID,ORAL,TREATMENT,2024-04-14,2024-04-18,1,5
COVID-THER-301,EX,COVID-THER-301-SITE001-0091,1,PLACEBO,0.0,mg,,BID,ORAL,TREATMENT,2024-03-21,2024-03-24,1,4
COVID-THER-301,EX,COVID-THER-301-SITE001-0097,1,ANTIVIRAL,200.0,mg,,BID,ORAL,TREATMENT,2024-03-02,2024-03-04,1,3
COVID-THER-301,EX,COVID-THER-301-SITE001-0100,1,ANTIVIRAL,200.0,mg,,BID,ORAL,TREATMENT,2024-03-14,2024-03-17,1,4
COVID-THER-301,EX,COVID-THER-301-SITE001-0103,1,PLACEBO,0.0,mg,,BID,ORAL,TREATMENT,2024-02-25,2024-02-26,1,2
COVID-THER-301,EX,COVID-THER-301-SITE001-0109,1,PLACEBO,0.0,mg,,BID,ORAL,TREATMENT,2024-05-11,2024-05-14,1,4
COVID-THER-301,EX,COVID-THER-301-SITE001-0112,1,PLACEBO,0.0,mg,,BID,ORAL,TREATMENT,2024-02-19,2024-02-22,1,4
COVID-THER-301,EX,COVID-THER-301-SITE001-0115,1,ANTIVIRAL,200.0,mg,,BID,ORAL,TREATMENT,2024-05-07,2024-05-08,1,2
COVID-THER-301,EX,COVID-THER-301-SITE001-0118,1,ANTIVIRAL,200.0,mg,,BID,ORAL,TREATMENT,2024-04-25,2024-04-27,1,3
COVID-THER-301,EX,COVID-THER-301-SITE001-0121,1,PLACEBO,0.0,mg,,BID,ORAL,TREATMENT,2024-03-10,2024-03-12,1,3
COVID-THER-301,EX,COVID-THER-301-SITE001-0124,1,ANTIVIRAL,200.0,mg,,BID,ORAL,TREATMENT,2024-04-28,2024-05-01,1,4
COVID-THER-301,EX,COVID-THER-301-SITE001-0127,1,PLACEBO,0.0,mg,,BID,ORAL,TREATMENT,2024-02-27,2024-02-28,1,2
COVID-THER-301,EX,COVID-THER-301-SITE001-0130,1,ANTIVIRAL,200.0,mg,,BID,ORAL,TREATMENT,2024-03-16,2024-03-19,1,4
COVID-THER-301,EX,COVID-THER-301-SITE001-0133,1,ANTIVIRAL,200.0,mg,,BID,ORAL,TREATMENT,2024-05-14,2024-05-15,1,2
COVID-THER-301,EX,COVID-THER-301-SITE001-0136,1,ANTIVIRAL,200.0,mg,,BID,ORAL,TREATMENT,2024-03-21,2024-03-22,1,2
COVID-THER-301,EX,COVID-THER-301-SITE001-0139,1,ANTIVIRAL,200.0,mg,,BID,ORAL,TREATMENT,2024-04-25,2024-04-28,1,4
COVID-THER-301,EX,COVID-THER-301-SITE001-0142,1,ANTIVIRAL,200.0,mg,,BID,ORAL,TREATMENT,2024-04-16,2024-04-18,1,3
COVID-THER-301,EX,COVID-THER-301-SITE001-0145,1,PLACEBO,0.0,mg,,BID,ORAL,TREATMENT,2024-03-26,2024-03-28,1,3
COVID-THER-301,EX,COVID-THER-301-SITE001-0148,1,ANTIVIRAL,200.0,mg,,BID,ORAL,TREATMENT,2024-02-20,2024-02-22,1,3
COVID-THER-301,EX,COVID-THER-301-SITE001-0154,1,PLACEBO,0.0,mg,,BID,ORAL,TREATMENT,2024-04-12,2024-04-13,1,2
COVID-THER-301,EX,COVID-THER-301-SITE001-0157,1,ANTIVIRAL,200.0,mg,,BID,ORAL,TREATMENT,2024-04-12,2024-04-16,1,5
COVID-THER-301,EX,COVID-THER-301-SITE001-0160,1,ANTIVIRAL,200.0,mg,,BID,ORAL,TREATMENT,2024-05-02,2024-05-03,1,2
COVID-THER-301,EX,COVID-THER-301-SITE001-0163,1,PLACEBO,0.0,mg,,BID,ORAL,TREATMENT,2024-03-22,2024-03-25,1,4
COVID-THER-301,EX,COVID-THER-301-SITE001-0166,1,PLACEBO,0.0,mg,,BID,ORAL,TREATMENT,2024-02-23,2024-02-26,1,4
COVID-THER-301,EX,COVID-THER-301-SITE001-0169,1,PLACEBO,0.0,mg,,BID,ORAL,TREATMENT,2024-02-05,2024-02-08,1,4
COVID-THER-301,EX,COVID-THER-301-SITE001-0172,1,PLACEBO,0.0,mg,,BID,ORAL,TREATMENT,2024-02-24,2024-02-27,1,4
COVID-THER-301,EX,COVID-THER-301-SITE001-0175,1,PLACEBO,0.0,mg,,BID,ORAL,TREATMENT,2024-04-05,2024-04-07,1,3
COVID-THER-301,EX,COVID-THER-301-SITE001-0178,1,ANTIVIRAL,200.0,mg,,BID,ORAL,TREATMENT,2024-04-19,2024-04-21,1,3
COVID-THER-301,EX,COVID-THER-301-SITE001-0181,1,ANTIVIRAL,200.0,mg,,BID,ORAL,TREATMENT,2024-02-21,2024-02-22,1,2
COVID-THER-301,EX,COVID-THER-301-SITE001-0184,1,ANTIVIRAL,200.0,mg,,BID,ORAL,TREATMENT,2024-04-28,2024-04-29,1,2
COVID-THER-301,EX,COVID-THER-301-SITE001-0190,1,ANTIVIRAL,200.0,mg,,BID,ORAL,TREATMENT,2024-04-12,2024-04-15,1,4
COVID-THER-301,EX,COVID-THER-301-SITE001-0193,1,PLACEBO,0.0,mg,,BID,ORAL,TREATMENT,2024-03-15,2024-03-18,1,4
COVID-THER-301,EX,COVID-THER-301-SITE001-0196,1,PLACEBO,0.0,mg,,BID,ORAL,TREATMENT,2024-03-11,2024-03-14,1,4
COVID-THER-301,EX,COVID-THER-301-SITE001-0199,1,PLACEBO,0.0,mg,,BID,ORAL,TREATMENT,2024-03-09,2024-03-11,1,3
COVID-THER-301,EX,COVID-THER-301-SITE001-0202,1,ANTIVIRAL,200.0,mg,,BID,ORAL,TREATMENT,2024-04-19,2024-04-21,1,3
COVID-THER-301,EX,COVID-THER-301-SITE001-0205,1,PLACEBO,0.0,mg,,BID,ORAL,TREATMENT,2024-03-30,2024-04-01,1,3
COVID-THER-301,EX,COVID-THER-301-SITE001-0208,1,PLACEBO,0.0,mg,,BID,ORAL,TREATMENT,2024-03-03,2024-03-06,1,4
COVID-THER-301,EX,COVID-THER-301-SITE001-0211,1,PLACEBO,0.0,mg,,BID,ORAL,TREATMENT,2024-02-27,2024-03-01,1,4
COVID-THER-301,EX,COVID-THER-301-SITE001-0217,1,PLACEBO,0.0,mg,,BID,ORAL,TREATMENT,2024-02-22,2024-02-25,1,4
COVID-THER-301,EX,COVID-THER-301-SITE001-0220,1,PLACEBO,0.0,mg,,BID,ORAL,TREATMENT,2024-01-26,2024-01-28,1,3
COVID-THER-301,EX,COVID-THER-301-SITE001-0223,1,ANTIVIRAL,200.0,mg,,BID,ORAL,TREATMENT,2024-03-13,2024-03-14,1,2
COVID-THER-301,EX,COVID-THER-301-SITE001-0226,1,PLACEBO,0.0,mg,,BID,ORAL,TREATMENT,2024-03-23,2024-03-24,1,2
COVID-THER-301,EX,COVID-THER-301-SITE001-0229,1,PLACEBO,0.0,mg,,BID,ORAL,TREATMENT,2024-03-30,2024-04-01,1,3
COVID-THER-301,EX,COVID-THER-301-SITE001-0232,1,PLACEBO,0.0,mg,,BID,ORAL,TREATMENT,2024-03-22,2024-03-25,1,4
COVID-THER-301,EX,COVID-THER-301-SITE001-0235,1,ANTIVIRAL,200.0,mg,,BID,ORAL,TREATMENT,2024-03-08,2024-03-09,1,2
COVID-THER-301,EX,COVID-THER-301-SITE001-0238,1,ANTIVIRAL,200.0,mg,,BID,ORAL,TREATMENT,2024-02-12,2024-02-15,1,4
COVID-THER-301,EX,COVID-THER-301-SITE001-0241,1,PLACEBO,0.0,mg,,BID,ORAL,TREATMENT,2024-04-18,2024-04-21,1,4
COVID-THER-301,EX,COVID-THER-301-SITE001-0247,1,PLACEBO,0.0,mg,,BID,ORAL,TREATMENT,2024-04-18,2024-04-19,1,2
COVID-THER-301,EX,COVID-THER-301-SITE001-0250,1,PLACEBO,0.0,mg,,BID,ORAL,TREATMENT,2024-02-26,2024-02-28,1,3
COVID-THER-301,EX,COVID-THER-301-SITE001-0253,1,PLACEBO,0.0,mg,,BID,ORAL,TREATMENT,2024-04-17,2024-04-20,1,4
COVID-THER-301,EX,COVID-THER-301-SITE001-0259,1,PLACEBO,0.0,mg,,BID,ORAL,TREATMENT,2024-02-05,2024-02-06,1,2
COVID-THER-301,EX,COVID-THER-301-SITE001-0262,1,PLACEBO,0.0,mg,,BID,ORAL,TREATMENT,2024-04-04,2024-04-06,1,3
COVID-THER-301,EX,COVID-THER-301-SITE001-0265,1,ANTIVIRAL,200.0,mg,,BID,ORAL,TREATMENT,2024-03-09,2024-03-12,1,4
COVID-THER-301,EX,COVID-THER-301-SITE001-0271,1,PLACEBO,0.0,mg,,BID,ORAL,TREATMENT,2024-05-17,2024-05-18,1,2
COVID-THER-301,EX,COVID-THER-301-SITE001-0274,1,PLACEBO,0.0,mg,,BID,ORAL,TREATMENT,2024-03-27,2024-03-30,1,4
COVID-THER-301,EX,COVID-THER-301-SITE001-0277,1,ANTIVIRAL,200.0,mg,,BID,ORAL,TREATMENT,2024-04-27,2024-04-28,1,2
COVID-THER-301,EX,COVID-THER-301-SITE001-0280,1,ANTIVIRAL,200.0,mg,,BID,ORAL,TREATMENT,2024-03-20,2024-03-21,1,2
COVID-THER-301,EX,COVID-THER-301-SITE001-0283,1,ANTIVIRAL,200.0,mg,,BID,ORAL,TREATMENT,2024-04-15,2024-04-17,1,3
COVID-THER-301,EX,COVID-THER-301-SITE001-0286,1,PLACEBO,0.0,mg,,BID,ORAL,TREATMENT,2024-03-17,2024-03-20,1,4
COVID-THER-301,EX,COVID-THER-301-SITE001-0289,1,ANTIVIRAL,200.0,mg,,BID,ORAL,TREATMENT,2024-04-25,2024-04-27,1,3
COVID-THER-301,EX,COVID-THER-301-SITE001-0292,1,PLACEBO,0.0,mg,,BID,ORAL,TREATMENT,2024-02-21,2024-02-23,1,3
COVID-THER-301,EX,COVID-THER-301-SITE001-0295,1,ANTIVIRAL,200.0,mg,,BID,ORAL,TREATMENT,2024-03-07,2024-03-09,1,3
COVID-THER-301,EX,COVID-THER-301-SITE001-0298,1,ANTIVIRAL,200.0,mg,,BID,ORAL,TREATMENT,2024-03-22,2024-03-24,1,3
COVID-THER-301,EX,COVID-THER-301-SITE001-0301,1,ANTIVIRAL,200.0,mg,,BID,ORAL,TREATMENT,2024-04-21,2024-04-23,1,3
COVID-THER-301,EX,COVID-THER-301-SITE001-0304,1,ANTIVIRAL,200.0,mg,,BID,ORAL,TREATMENT,2024-03-23,2024-03-24,1,2
COVID-THER-301,EX,COVID-THER-301-SITE001-0307,1,ANTIVIRAL,200.0,mg,,BID,ORAL,TREATMENT,2024-04-21,2024-04-22,1,2
COVID-THER-301,EX,COVID-THER-301-SITE001-0310,1,PLACEBO,0.0,mg,,BID,ORAL,TREATMENT,2024-03-11,2024-03-12,1,2
COVID-THER-301,EX,COVID-THER-301-SITE001-0313,1,PLACEBO,0.0,mg,,BID,ORAL,TREATMENT,2024-04-22,2024-04-23,1,2
COVID-THER-301,EX,COVID-THER-301-SITE001-0316,1,ANTIVIRAL,200.0,mg,,BID,ORAL,TREATMENT,2024-04-28,2024-04-30,1,3
COVID-THER-301,EX,COVID-THER-301-SITE001-0319,1,ANTIVIRAL,200.0,mg,,BID,ORAL,TREATMENT,2024-02-12,2024-02-15,1,4
COVID-THER-301,EX,COVID-THER-301-SITE001-0322,1,ANTIVIRAL,200.0,mg,,BID,ORAL,TREATMENT,2024-02-17,2024-02-18,1,2
COVID-THER-301,EX,COVID-THER-301-SITE001-0328,1,ANTIVIRAL,200.0,mg,,BID,ORAL,TREATMENT,2024-04-28,2024-04-30,1,3
COVID-THER-301,EX,COVID-THER-301-SITE001-0331,1,ANTIVIRAL,200.0,mg,,BID,ORAL,TREATMENT,2024-04-02,2024-04-04,1,3
COVID-THER-301,EX,COVID-THER-301-SITE001-0334,1,ANTIVIRAL,200.0,mg,,BID,ORAL,TREATMENT,2024-03-24,2024-03-26,1,3
COVID-THER-301,EX,COVID-THER-301-SITE001-0337,1,ANTIVIRAL,200.0,mg,,BID,ORAL,TREATMENT,2024-01-24,2024-01-26,1,3
COVID-THER-301,EX,COVID-THER-301-SITE001-0340,1,PLACEBO,0.0,mg,,BID,ORAL,TREATMENT,2024-05-04,2024-05-07,1,4
COVID-THER-301,EX,COVID-THER-301-SITE001-0343,1,ANTIVIRAL,200.0,mg,,BID,ORAL,TREATMENT,2024-04-26,2024-04-27,1,2
COVID-THER-301,EX,COVID-THER-301-SITE001-0346,1,PLACEBO,0.0,mg,,BID,ORAL,TREATMENT,2024-04-25,2024-04-27,1,3
COVID-THER-301,EX,COVID-THER-301-SITE001-0349,1,PLACEBO,0.0,mg,,BID,ORAL,TREATMENT,2024-02-22,2024-02-24,1,3
COVID-THER-301,EX,COVID-THER-301-SITE001-0352,1,PLACEBO,0.0,mg,,BID,ORAL,TREATMENT,2024-02-25,2024-02-26,1,2
COVID-THER-301,EX,COVID-THER-301-SITE001-0355,1,ANTIVIRAL,200.0,mg,,BID,ORAL,TREATMENT,2024-02-20,2024-02-21,1,2
COVID-THER-301,EX,COVID-THER-301-SITE001-0358,1,ANTIVIRAL,200.0,mg,,BID,ORAL,TREATMENT,2024-03-12,2024-03-13,1,2
COVID-THER-301,EX,COVID-THER-301-SITE001-0361,1,ANTIVIRAL,200.0,mg,,BID,ORAL,TREATMENT,2024-03-13,2024-03-15,1,3
COVID-THER-301,EX,COVID-THER-301-SITE001-0364,1,PLACEBO,0.0,mg,,BID,ORAL,TREATMENT,2024-04-18,2024-04-20,1,3
COVID-THER-301,EX,COVID-THER-301-SITE001-0367,1,ANTIVIRAL,200.0,mg,,BID,ORAL,TREATMENT,2024-04-10,2024-04-11,1,2
COVID-THER-301,EX,COVID-THER-301-SITE001-0370,1,ANTIVIRAL,200.0,mg,,BID,ORAL,TREATMENT,2024-04-18,2024-04-21,1,4
COVID-THER-301,EX,COVID-THER-301-SITE001-0373,1,PLACEBO,0.0,mg,,BID,ORAL,TREATMENT,2024-04-12,2024-04-14,1,3
COVID-THER-301,EX,COVID-THER-301-SITE001-0376,1,PLACEBO,0.0,mg,,BID,ORAL,TREATMENT,2024-04-06,2024-04-09,1,4
COVID-THER-301,EX,COVID-THER-301-SITE001-0382,1,ANTIVIRAL,200.0,mg,,BID,ORAL,TREATMENT,2024-02-15,2024-02-18,1,4
COVID-THER-301,EX,COVID-THER-301-SITE001-0385,1,PLACEBO,0.0,mg,,BID,ORAL,TREATMENT,2024-05-02,2024-05-04,1,3
COVID-THER-301,EX,COVID-THER-301-SITE001-0388,1,ANTIVIRAL,200.0,mg,,BID,ORAL,TREATMENT,2024-02-23,2024-02-25,1,3
COVID-THER-301,EX,COVID-THER-301-SITE001-0391,1,ANTIVIRAL,200.0,mg,,BID,ORAL,TREATMENT,2024-03-25,2024-03-28,1,4
COVID-THER-301,EX,COVID-THER-301-SITE001-0397,1,ANTIVIRAL,200.0,mg,,BID,ORAL,TREATMENT,2024-05-07,2024-05-10,1,4
COVID-THER-301,EX,COVID-THER-301-SITE001-0400,1,ANTIVIRAL,200.0,mg,,BID,ORAL,TREATMENT,2024-04-01,2024-04-04,1,4
COVID-THER-301,EX,COVID-THER-301-SITE001-0403,1,ANTIVIRAL,200.0,mg,,BID,ORAL,TREATMENT,2024-04-07,2024-04-10,1,4
COVID-THER-301,EX,COVID-THER-301-SITE001-0406,1,ANTIVIRAL,200.0,mg,,BID,ORAL,TREATMENT,2024-03-12,2024-03-14,1,3
COVID-THER-301,EX,COVID-THER-301-SITE001-0409,1,ANTIVIRAL,200.0,mg,,BID,ORAL,TREATMENT,2024-04-11,2024-04-13,1,3
COVID-THER-301,EX,COVID-THER-301-SITE001-0412,1,ANTIVIRAL,200.0,mg,,BID,ORAL,TREATMENT,2024-03-17,2024-03-20,1,4
COVID-THER-301,EX,COVID-THER-301-SITE001-0415,1,ANTIVIRAL,200.0,mg,,BID,ORAL,TREATMENT,2024-04-30,2024-05-03,1,4
COVID-THER-301,EX,COVID-THER-301-SITE001-0418,1,ANTIVIRAL,200.0,mg,,BID,ORAL,TREATMENT,2024-02-13,2024-02-14,1,2
COVID-THER-301,EX,COVID-THER-301-SITE001-0421,1,PLACEBO,0.0,mg,,BID,ORAL,TREATMENT,2024-04-27,2024-04-29,1,3
COVID-THER-301,EX,COVID-THER-301-SITE001-0424,1,PLACEBO,0.0,mg,,BID,ORAL,TREATMENT,2024-02-16,2024-02-19,1,4
COVID-THER-301,EX,COVID-THER-301-SITE001-0427,1,PLACEBO,0.0,mg,,BID,ORAL,TREATMENT,2024-02-21,2024-02-24,1,4
COVID-THER-301,EX,COVID-THER-301-SITE001-0433,1,PLACEBO,0.0,mg,,BID,ORAL,TREATMENT,2024-02-04,2024-02-07,1,4
COVID-THER-301,EX,COVID-THER-301-SITE001-0436,1,PLACEBO,0.0,mg,,BID,ORAL,TREATMENT,2024-02-17,2024-02-19,1,3
COVID-THER-301,EX,COVID-THER-301-SITE001-0442,1,PLACEBO,0.0,mg,,BID,ORAL,TREATMENT,2024-05-15,2024-05-17,1,3
COVID-THER-301,EX,COVID-THER-301-SITE001-0445,1,PLACEBO,0.0,mg,,BID,ORAL,TREATMENT,2024-05-01,2024-05-03,1,3
COVID-THER-301,EX,COVID-THER-301-SITE001-0451,1,PLACEBO,0.0,mg,,BID,ORAL,TREATMENT,2024-05-11,2024-05-13,1,3
COVID-THER-301,EX,COVID-THER-301-SITE001-0454,1,ANTIVIRAL,200.0,mg,,BID,ORAL,TREATMENT,2024-02-09,2024-02-11,1,3
COVID-THER-301,EX,COVID-THER-301-SITE001-0457,1,PLACEBO,0.0,mg,,BID,ORAL,TREATMENT,2024-02-15,2024-02-17,1,3
COVID-THER-301,EX,COVID-THER-301-SITE001-0460,1,PLACEBO,0.0,mg,,BID,ORAL,TREATMENT,2024-03-11,2024-03-13,1,3
COVID-THER-301,EX,COVID-THER-301-SITE001-0463,1,ANTIVIRAL,200.0,mg,,BID,ORAL,TREATMENT,2024-03-10,2024-03-12,1,3
COVID-THER-301,EX,COVID-THER-301-SITE001-0469,1,PLACEBO,0.0,mg,,BID,ORAL,TREATMENT,2024-03-20,2024-03-22,1,3
COVID-THER-301,EX,COVID-THER-301-SITE001-0472,1,ANTIVIRAL,200.0,mg,,BID,ORAL,TREATMENT,2024-04-11,2024-04-14,1,4
COVID-THER-301,EX,COVID-THER-301-SITE001-0475,1,ANTIVIRAL,200.0,mg,,BID,ORAL,TREATMENT,2024-03-10,2024-03-13,1,4
COVID-THER-301,EX,COVID-THER-301-SITE001-0481,1,PLACEBO,0.0,mg,,BID,ORAL,TREATMENT,2024-04-02,2024-04-03,1,2
COVID-THER-301,EX,COVID-THER-301-SITE001-0484,1,PLACEBO,0.0,mg,,BID,ORAL,TREATMENT,2024-02-11,2024-02-14,1,4
COVID-THER-301,EX,COVID-THER-301-SITE001-0487,1,PLACEBO,0.0,mg,,BID,ORAL,TREATMENT,2024-04-17,2024-04-20,1,4
COVID-THER-301,EX,COVID-THER-301-SITE001-0490,1,PLACEBO,0.0,mg,,BID,ORAL,TREATMENT,2024-02-16,2024-02-18,1,3
COVID-THER-301,EX,COVID-THER-301-SITE001-0493,1,PLACEBO,0.0,mg,,BID,ORAL,TREATMENT,2024-02-15,2024-02-16,1,2
COVID-THER-301,EX,COVID-THER-301-SITE001-0496,1,ANTIVIRAL,200.0,mg,,BID,ORAL,TREATMENT,2024-03-12,2024-03-15,1,4
COVID-THER-301,EX,COVID-THER-301-SITE001-0499,1,PLACEBO,0.0,mg,,BID,ORAL,TREATMENT,2024-04-06,2024-04-09,1,4
COVID-THER-301,EX,COVID-THER-301-SITE002-0002,1,PLACEBO,0.0,mg,,BID,ORAL,TREATMENT,2024-03-12,2024-03-14,1,3
COVID-THER-301,EX,COVID-THER-301-SITE002-0005,1,PLACEBO,0.0,mg,,BID,ORAL,TREATMENT,2024-05-05,2024-05-08,1,4
COVID-THER-301,EX,COVID-THER-301-SITE002-0008,1,PLACEBO,0.0,mg,,BID,ORAL,TREATMENT,2024-04-24,2024-04-26,1,3
COVID-THER-301,EX,COVID-THER-301-SITE002-0011,1,ANTIVIRAL,200.0,mg,,BID,ORAL,TREATMENT,2024-05-08,2024-05-11,1,4
COVID-THER-301,EX,COVID-THER-301-SITE002-0014,1,PLACEBO,0.0,mg,,BID,ORAL,TREATMENT,2024-03-31,2024-04-03,1,4
COVID-THER-301,EX,COVID-THER-301-SITE002-0017,1,ANTIVIRAL,200.0,mg,,BID,ORAL,TREATMENT,2024-03-21,2024-03-22,1,2
COVID-THER-301,EX,COVID-THER-301-SITE002-0020,1,ANTIVIRAL,200.0,mg,,BID,ORAL,TREATMENT,2024-02-18,2024-02-20,1,3
COVID-THER-301,EX,COVID-THER-301-SITE002-0023,1,PLACEBO,0.0,mg,,BID,ORAL,TREATMENT,2024-03-08,2024-03-11,1,4
COVID-THER-301,EX,COVID-THER-301-SITE002-0026,1,ANTIVIRAL,200.0,mg,,BID,ORAL,TREATMENT,2024-04-17,2024-04-18,1,2
COVID-THER-301,EX,COVID-THER-301-SITE002-0029,1,PLACEBO,0.0,mg,,BID,ORAL,TREATMENT,2024-04-08,2024-04-10,1,3
COVID-THER-301,EX,COVID-THER-301-SITE002-0032,1,PLACEBO,0.0,mg,,BID,ORAL,TREATMENT,2024-03-08,2024-03-10,1,3
COVID-THER-301,EX,COVID-THER-301-SITE002-0035,1,ANTIVIRAL,200.0,mg,,BID,ORAL,TREATMENT,2024-03-24,2024-03-28,1,5
COVID-THER-301,EX,COVID-THER-301-SITE002-0038,1,PLACEBO,0.0,mg,,BID,ORAL,TREATMENT,2024-02-25,2024-02-27,1,3
COVID-THER-301,EX,COVID-THER-301-SITE002-0041,1,PLACEBO,0.0,mg,,BID,ORAL,TREATMENT,2024-04-08,2024-04-10,1,3
COVID-THER-301,EX,COVID-THER-301-SITE002-0044,1,PLACEBO,0.0,mg,,BID,ORAL,TREATMENT,2024-03-08,2024-03-09,1,2
COVID-THER-301,EX,COVID-THER-301-SITE002-0047,1,PLACEBO,0.0,mg,,BID,ORAL,TREATMENT,2024-03-07,2024-03-10,1,4
COVID-THER-301,EX,COVID-THER-301-SITE002-0050,1,ANTIVIRAL,200.0,mg,,BID,ORAL,TREATMENT,2024-04-22,2024-04-23,1,2
COVID-THER-301,EX,COVID-THER-301-SITE002-0053,1,ANTIVIRAL,200.0,mg,,BID,ORAL,TREATMENT,2024-05-09,2024-05-12,1,4
COVID-THER-301,EX,COVID-THER-301-SITE002-0056,1,PLACEBO,0.0,mg,,BID,ORAL,TREATMENT,2024-04-12,2024-04-16,1,5
COVID-THER-301,EX,COVID-THER-301-SITE002-0059,1,PLACEBO,0.0,mg,,BID,ORAL,TREATMENT,2024-03-27,2024-03-29,1,3
COVID-THER-301,EX,COVID-THER-301-SITE002-0065,1,PLACEBO,0.0,mg,,BID,ORAL,TREATMENT,2024-02-06,2024-02-08,1,3
COVID-THER-301,EX,COVID-THER-301-SITE002-0068,1,ANTIVIRAL,200.0,mg,,BID,ORAL,TREATMENT,2024-04-14,2024-04-17,1,4
COVID-THER-301,EX,COVID-THER-301-SITE002-0071,1,PLACEBO,0.0,mg,,BID,ORAL,TREATMENT,2024-04-17,2024-04-19,1,3
COVID-THER-301,EX,COVID-THER-301-SITE002-0080,1,PLACEBO,0.0,mg,,BID,ORAL,TREATMENT,2024-04-22,2024-04-24,1,3
COVID-THER-301,EX,COVID-THER-301-SITE002-0083,1,ANTIVIRAL,200.0,mg,,BID,ORAL,TREATMENT,2024-03-15,2024-03-17,1,3
COVID-THER-301,EX,COVID-THER-301-SITE002-0086,1,ANTIVIRAL,200.0,mg,,BID,ORAL,TREATMENT,2024-04-08,2024-04-12,1,5
COVID-THER-301,EX,COVID-THER-301-SITE002-0089,1,PLACEBO,0.0,mg,,BID,ORAL,TREATMENT,2024-04-23,2024-04-25,1,3
COVID-THER-301,EX,COVID-THER-301-SITE002-0092,1,ANTIVIRAL,200.0,mg,,BID,ORAL,TREATMENT,2024-04-18,2024-04-21,1,4
COVID-THER-301,EX,COVID-THER-301-SITE002-0095,1,ANTIVIRAL,200.0,mg,,BID,ORAL,TREATMENT,2024-02-28,2024-03-01,1,3
COVID-THER-301,EX,COVID-THER-301-SITE002-0098,1,PLACEBO,0.0,mg,,BID,ORAL,TREATMENT,2024-03-11,2024-03-12,1,2
COVID-THER-301,EX,COVID-THER-301-SITE002-0101,1,PLACEBO,0.0,mg,,BID,ORAL,TREATMENT,2024-04-24,2024-04-25,1,2
COVID-THER-301,EX,COVID-THER-301-SITE002-0104,1,PLACEBO,0.0,mg,,BID,ORAL,TREATMENT,2024-03-14,2024-03-16,1,3
COVID-THER-301,EX,COVID-THER-301-SITE002-0107,1,PLACEBO,0.0,mg,,BID,ORAL,TREATMENT,2024-04-16,2024-04-18,1,3
COVID-THER-301,EX,COVID-THER-301-SITE002-0110,1,ANTIVIRAL,200.0,mg,,BID,ORAL,TREATMENT,2024-02-26,2024-02-28,1,3
COVID-THER-301,EX,COVID-THER-301-SITE002-0113,1,ANTIVIRAL,200.0,mg,,BID,ORAL,TREATMENT,2024-02-19,2024-02-22,1,4
COVID-THER-301,EX,COVID-THER-301-SITE002-0116,1,ANTIVIRAL,200.0,mg,,BID,ORAL,TREATMENT,2024-02-16,2024-02-20,1,5
COVID-THER-301,EX,COVID-THER-301-SITE002-0122,1,ANTIVIRAL,200.0,mg,,BID,ORAL,TREATMENT,2024-04-11,2024-04-13,1,3
COVID-THER-301,EX,COVID-THER-301-SITE002-0125,1,PLACEBO,0.0,mg,,BID,ORAL,TREATMENT,2024-04-01,2024-04-03,1,3
COVID-THER-301,EX,COVID-THER-301-SITE002-0128,1,ANTIVIRAL,200.0,mg,,BID,ORAL,TREATMENT,2024-04-24,2024-04-27,1,4
COVID-THER-301,EX,COVID-THER-301-SITE002-0131,1,ANTIVIRAL,200.0,mg,,BID,ORAL,TREATMENT,2024-05-14,2024-05-17,1,4
COVID-THER-301,EX,COVID-THER-301-SITE002-0134,1,PLACEBO,0.0,mg,,BID,ORAL,TREATMENT,2024-04-14,2024-04-15,1,2
COVID-THER-301,EX,COVID-THER-301-SITE002-0137,1,ANTIVIRAL,200.0,mg,,BID,ORAL,TREATMENT,2024-04-20,2024-04-23,1,4
COVID-THER-301,EX,COVID-THER-301-SITE002-0140,1,ANTIVIRAL,200.0,mg,,BID,ORAL,TREATMENT,2024-03-18,2024-03-21,1,4
COVID-THER-301,EX,COVID-THER-301-SITE002-0143,1,ANTIVIRAL,200.0,mg,,BID,ORAL,TREATMENT,2024-02-21,2024-02-23,1,3
COVID-THER-301,EX,COVID-THER-301-SITE002-0146,1,ANTIVIRAL,200.0,mg,,BID,ORAL,TREATMENT,2024-03-18,2024-03-21,1,4
COVID-THER-301,EX,COVID-THER-301-SITE002-0149,1,ANTIVIRAL,200.0,mg,,BID,ORAL,TREATMENT,2024-03-31,2024-04-03,1,4
COVID-THER-301,EX,COVID-THER-301-SITE002-0152,1,ANTIVIRAL,200.0,mg,,BID,ORAL,TREATMENT,2024-02-19,2024-02-20,1,2
COVID-THER-301,EX,COVID-THER-301-SITE002-0155,1,PLACEBO,0.0,mg,,BID,ORAL,TREATMENT,2024-02-28,2024-03-02,1,4
COVID-THER-301,EX,COVID-THER-301-SITE002-0158,1,PLACEBO,0.0,mg,,BID,ORAL,TREATMENT,2024-04-07,2024-04-08,1,2
COVID-THER-301,EX,COVID-THER-301-SITE002-0161,1,PLACEBO,0.0,mg,,BID,ORAL,TREATMENT,2024-04-08,2024-04-10,1,3
COVID-THER-301,EX,COVID-THER-301-SITE002-0164,1,PLACEBO,0.0,mg,,BID,ORAL,TREATMENT,2024-03-19,2024-03-20,1,2
COVID-THER-301,EX,COVID-THER-301-SITE002-0167,1,PLACEBO,0.0,mg,,BID,ORAL,TREATMENT,2024-01-29,2024-02-01,1,4
COVID-THER-301,EX,COVID-THER-301-SITE002-0170,1,ANTIVIRAL,200.0,mg,,BID,ORAL,TREATMENT,2024-05-03,2024-05-04,1,2
COVID-THER-301,EX,COVID-THER-301-SITE002-0176,1,ANTIVIRAL,200.0,mg,,BID,ORAL,TREATMENT,2024-02-18,2024-02-20,1,3
COVID-THER-301,EX,COVID-THER-301-SITE002-0179,1,PLACEBO,0.0,mg,,BID,ORAL,TREATMENT,2024-04-19,2024-04-20,1,2
COVID-THER-301,EX,COVID-THER-301-SITE002-0182,1,ANTIVIRAL,200.0,mg,,BID,ORAL,TREATMENT,2024-04-16,2024-04-17,1,2
COVID-THER-301,EX,COVID-THER-301-SITE002-0185,1,ANTIVIRAL,200.0,mg,,BID,ORAL,TREATMENT,2024-03-13,2024-03-16,1,4
COVID-THER-301,EX,COVID-THER-301-SITE002-0188,1,ANTIVIRAL,200.0,mg,,BID,ORAL,TREATMENT,2024-05-01,2024-05-04,1,4
COVID-THER-301,EX,COVID-THER-301-SITE002-0191,1,PLACEBO,0.0,mg,,BID,ORAL,TREATMENT,2024-02-15,2024-02-18,1,4
COVID-THER-301,EX,COVID-THER-301-SITE002-0194,1,PLACEBO,0.0,mg,,BID,ORAL,TREATMENT,2024-02-11,2024-02-13,1,3
COVID-THER-301,EX,COVID-THER-301-SITE002-0197,1,PLACEBO,0.0,mg,,BID,ORAL,TREATMENT,2024-04-13,2024-04-14,1,2
COVID-THER-301,EX,COVID-THER-301-SITE002-0200,1,ANTIVIRAL,200.0,mg,,BID,ORAL,TREATMENT,2024-05-14,2024-05-15,1,2
COVID-THER-301,EX,COVID-THER-301-SITE002-0203,1,ANTIVIRAL,200.0,mg,,BID,ORAL,TREATMENT,2024-03-28,2024-03-30,1,3
COVID-THER-301,EX,COVID-THER-301-SITE002-0206,1,ANTIVIRAL,200.0,mg,,BID,ORAL,TREATMENT,2024-02-23,2024-02-24,1,2
COVID-THER-301,EX,COVID-THER-301-SITE002-0209,1,ANTIVIRAL,200.0,mg,,BID,ORAL,TREATMENT,2024-05-04,2024-05-06,1,3
COVID-THER-301,EX,COVID-THER-301-SITE002-0212,1,ANTIVIRAL,200.0,mg,,BID,ORAL,TREATMENT,2024-03-22,2024-03-24,1,3
COVID-THER-301,EX,COVID-THER-301-SITE002-0215,1,ANTIVIRAL,200.0,mg,,BID,ORAL,TREATMENT,2024-02-25,2024-02-26,1,2
COVID-THER-301,EX,COVID-THER-301-SITE002-0218,1,ANTIVIRAL,200.0,mg,,BID,ORAL,TREATMENT,2024-03-26,2024-03-28,1,3
COVID-THER-301,EX,COVID-THER-301-SITE002-0221,1,PLACEBO,0.0,mg,,BID,ORAL,TREATMENT,2024-03-21,2024-03-24,1,4
COVID-THER-301,EX,COVID-THER-301-SITE002-0224,1,PLACEBO,0.0,mg,,BID,ORAL,TREATMENT,2024-04-23,2024-04-27,1,5
COVID-THER-301,EX,COVID-THER-301-SITE002-0227,1,PLACEBO,0.0,mg,,BID,ORAL,TREATMENT,2024-03-18,2024-03-20,1,3
COVID-THER-301,EX,COVID-THER-301-SITE002-0230,1,ANTIVIRAL,200.0,mg,,BID,ORAL,TREATMENT,2024-05-04,2024-05-06,1,3
COVID-THER-301,EX,COVID-THER-301-SITE002-0233,1,ANTIVIRAL,200.0,mg,,BID,ORAL,TREATMENT,2024-02-19,2024-02-21,1,3
COVID-THER-301,EX,COVID-THER-301-SITE002-0236,1,PLACEBO,0.0,mg,,BID,ORAL,TREATMENT,2024-04-27,2024-04-29,1,3
COVID-THER-301,EX,COVID-THER-301-SITE002-0239,1,ANTIVIRAL,200.0,mg,,BID,ORAL,TREATMENT,2024-02-15,2024-02-18,1,4
COVID-THER-301,EX,COVID-THER-301-SITE002-0242,1,PLACEBO,0.0,mg,,BID,ORAL,TREATMENT,2024-04-19,2024-04-20,1,2
COVID-THER-301,EX,COVID-THER-301-SITE002-0245,1,PLACEBO,0.0,mg,,BID,ORAL,TREATMENT,2024-03-18,2024-03-20,1,3
COVID-THER-301,EX,COVID-THER-301-SITE002-0248,1,ANTIVIRAL,200.0,mg,,BID,ORAL,TREATMENT,2024-04-27,2024-04-29,1,3
COVID-THER-301,EX,COVID-THER-301-SITE002-0254,1,PLACEBO,0.0,mg,,BID,ORAL,TREATMENT,2024-03-09,2024-03-10,1,2
COVID-THER-301,EX,COVID-THER-301-SITE002-0257,1,ANTIVIRAL,200.0,mg,,BID,ORAL,TREATMENT,2024-03-22,2024-03-23,1,2
COVID-THER-301,EX,COVID-THER-301-SITE002-0260,1,ANTIVIRAL,200.0,mg,,BID,ORAL,TREATMENT,2024-02-08,2024-02-10,1,3
COVID-THER-301,EX,COVID-THER-301-SITE002-0263,1,PLACEBO,0.0,mg,,BID,ORAL,TREATMENT,2024-03-13,2024-03-14,1,2
COVID-THER-301,EX,COVID-THER-301-SITE002-0266,1,PLACEBO,0.0,mg,,BID,ORAL,TREATMENT,2024-04-11,2024-04-13,1,3
COVID-THER-301,EX,COVID-THER-301-SITE002-0269,1,ANTIVIRAL,200.0,mg,,BID,ORAL,TREATMENT,2024-03-10,2024-03-13,1,4
COVID-THER-301,EX,COVID-THER-301-SITE002-0272,1,ANTIVIRAL,200.0,mg,,BID,ORAL,TREATMENT,2024-04-08,2024-04-11,1,4
COVID-THER-301,EX,COVID-THER-301-SITE002-0275,1,PLACEBO,0.0,mg,,BID,ORAL,TREATMENT,2024-03-29,2024-03-30,1,2
COVID-THER-301,EX,COVID-THER-301-SITE002-0278,1,PLACEBO,0.0,mg,,BID,ORAL,TREATMENT,2024-04-16,2024-04-19,1,4
COVID-THER-301,EX,COVID-THER-301-SITE002-0281,1,PLACEBO,0.0,mg,,BID,ORAL,TREATMENT,2024-04-06,2024-04-07,1,2
COVID-THER-301,EX,COVID-THER-301-SITE002-0284,1,ANTIVIRAL,200.0,mg,,BID,ORAL,TREATMENT,2024-02-13,2024-02-15,1,3
COVID-THER-301,EX,COVID-THER-301-SITE002-0287,1,PLACEBO,0.0,mg,,BID,ORAL,TREATMENT,2024-02-17,2024-02-20,1,4
COVID-THER-301,EX,COVID-THER-301-SITE002-0290,1,ANTIVIRAL,200.0,mg,,BID,ORAL,TREATMENT,2024-04-10,2024-04-13,1,4
COVID-THER-301,EX,COVID-THER-301-SITE002-0293,1,PLACEBO,0.0,mg,,BID,ORAL,TREATMENT,2024-04-09,2024-04-11,1,3
COVID-THER-301,EX,COVID-THER-301-SITE002-0296,1,ANTIVIRAL,200.0,mg,,BID,ORAL,TREATMENT,2024-02-11,2024-02-13,1,3
COVID-THER-301,EX,COVID-THER-301-SITE002-0299,1,PLACEBO,0.0,mg,,BID,ORAL,TREATMENT,2024-02-13,2024-02-15,1,3
COVID-THER-301,EX,COVID-THER-301-SITE002-0302,1,PLACEBO,0.0,mg,,BID,ORAL,TREATMENT,2024-04-11,2024-04-12,1,2
COVID-THER-301,EX,COVID-THER-301-SITE002-0305,1,ANTIVIRAL,200.0,mg,,BID,ORAL,TREATMENT,2024-02-24,2024-02-25,1,2
COVID-THER-301,EX,COVID-THER-301-SITE002-0308,1,PLACEBO,0.0,mg,,BID,ORAL,TREATMENT,2024-04-03,2024-04-06,1,4
COVID-THER-301,EX,COVID-THER-301-SITE002-0311,1,PLACEBO,0.0,mg,,BID,ORAL,TREATMENT,2024-02-26,2024-02-27,1,2
COVID-THER-301,EX,COVID-THER-301-SITE002-0314,1,PLACEBO,0.0,mg,,BID,ORAL,TREATMENT,2024-03-10,2024-03-12,1,3
COVID-THER-301,EX,COVID-THER-301-SITE002-0317,1,ANTIVIRAL,200.0,mg,,BID,ORAL,TREATMENT,2024-04-30,2024-05-02,1,3
COVID-THER-301,EX,COVID-THER-301-SITE002-0320,1,PLACEBO,0.0,mg,,BID,ORAL,TREATMENT,2024-02-17,2024-02-18,1,2
COVID-THER-301,EX,COVID-THER-301-SITE002-0323,1,PLACEBO,0.0,mg,,BID,ORAL,TREATMENT,2024-03-20,2024-03-23,1,4
COVID-THER-301,EX,COVID-THER-301-SITE002-0326,1,ANTIVIRAL,200.0,mg,,BID,ORAL,TREATMENT,2024-04-04,2024-04-07,1,4
COVID-THER-301,EX,COVID-THER-301-SITE002-0329,1,PLACEBO,0.0,mg,,BID,ORAL,TREATMENT,2024-04-10,2024-04-13,1,4
COVID-THER-301,EX,COVID-THER-301-SITE002-0332,1,PLACEBO,0.0,mg,,BID,ORAL,TREATMENT,2024-03-11,2024-03-12,1,2
COVID-THER-301,EX,COVID-THER-301-SITE002-0335,1,ANTIVIRAL,200.0,mg,,BID,ORAL,TREATMENT,2024-02-01,2024-02-04,1,4
COVID-THER-301,EX,COVID-THER-301-SITE002-0338,1,ANTIVIRAL,200.0,mg,,BID,ORAL,TREATMENT,2024-03-01,2024-03-02,1,2
COVID-THER-301,EX,COVID-THER-301-SITE002-0341,1,PLACEBO,0.0,mg,,BID,ORAL,TREATMENT,2024-03-30,2024-04-01,1,3
COVID-THER-301,EX,COVID-THER-301-SITE002-0344,1,ANTIVIRAL,200.0,mg,,BID,ORAL,TREATMENT,2024-04-06,2024-04-10,1,5
COVID-THER-301,EX,COVID-THER-301-SITE002-0347,1,PLACEBO,0.0,mg,,BID,ORAL,TREATMENT,2024-04-03,2024-04-05,1,3
COVID-THER-301,EX,COVID-THER-301-SITE002-0350,1,PLACEBO,0.0,mg,,BID,ORAL,TREATMENT,2024-03-05,2024-03-07,1,3
COVID-THER-301,EX,COVID-THER-301-SITE002-0353,1,ANTIVIRAL,200.0,mg,,BID,ORAL,TREATMENT,2024-03-17,2024-03-20,1,4
COVID-THER-301,EX,COVID-THER-301-SITE002-0356,1,ANTIVIRAL,200.0,mg,,BID,ORAL,TREATMENT,2024-02-26,2024-02-28,1,3
COVID-THER-301,EX,COVID-THER-301-SITE002-0359,1,ANTIVIRAL,200.0,mg,,BID,ORAL,TREATMENT,2024-02-21,2024-02-21,1,1
COVID-THER-301,EX,COVID-THER-301-SITE002-0359,2,ANTIVIRAL,200.0,mg,,BID,ORAL,TREATMENT,2024-02-23,2024-02-23,3,3
COVID-THER-301,EX,COVID-THER-301-SITE002-0362,1,ANTIVIRAL,200.0,mg,,BID,ORAL,TREATMENT,2024-03-01,2024-03-03,1,3
COVID-THER-301,EX,COVID-THER-301-SITE002-0368,1,ANTIVIRAL,200.0,mg,,BID,ORAL,TREATMENT,2024-04-14,2024-04-17,1,4
COVID-THER-301,EX,COVID-THER-301-SITE002-0371,1,PLACEBO,0.0,mg,,BID,ORAL,TREATMENT,2024-04-01,2024-04-02,1,2
COVID-THER-301,EX,COVID-THER-301-SITE002-0374,1,PLACEBO,0.0,mg,,BID,ORAL,TREATMENT,2024-04-30,2024-05-02,1,3
COVID-THER-301,EX,COVID-THER-301-SITE002-0377,1,ANTIVIRAL,200.0,mg,,BID,ORAL,TREATMENT,2024-03-28,2024-03-29,1,2
COVID-THER-301,EX,COVID-THER-301-SITE002-0380,1,PLACEBO,0.0,mg,,BID,ORAL,TREATMENT,2024-04-21,2024-04-22,1,2
COVID-THER-301,EX,COVID-THER-301-SITE002-0383,1,ANTIVIRAL,200.0,mg,,BID,ORAL,TREATMENT,2024-05-01,2024-05-02,1,2
COVID-THER-301,EX,COVID-THER-301-SITE002-0386,1,ANTIVIRAL,200.0,mg,,BID,ORAL,TREATMENT,2024-04-17,2024-04-18,1,2
COVID-THER-301,EX,COVID-THER-301-SITE002-0389,1,PLACEBO,0.0,mg,,BID,ORAL,TREATMENT,2024-04-14,2024-04-17,1,4
COVID-THER-301,EX,COVID-THER-301-SITE002-0392,1,ANTIVIRAL,200.0,mg,,BID,ORAL,TREATMENT,2024-02-12,2024-02-14,1,3
COVID-THER-301,EX,COVID-THER-301-SITE002-0398,1,ANTIVIRAL,200.0,mg,,BID,ORAL,TREATMENT,2024-02-01,2024-02-02,1,2
COVID-THER-301,EX,COVID-THER-301-SITE002-0401,1,PLACEBO,0.0,mg,,BID,ORAL,TREATMENT,2024-04-29,2024-04-30,1,2
COVID-THER-301,EX,COVID-THER-301-SITE002-0404,1,PLACEBO,0.0,mg,,BID,ORAL,TREATMENT,2024-03-05,2024-03-07,1,3
COVID-THER-301,EX,COVID-THER-301-SITE002-0407,1,ANTIVIRAL,200.0,mg,,BID,ORAL,TREATMENT,2024-03-03,2024-03-04,1,2
COVID-THER-301,EX,COVID-THER-301-SITE002-0410,1,PLACEBO,0.0,mg,,BID,ORAL,TREATMENT,2024-03-16,2024-03-18,1,3
COVID-THER-301,EX,COVID-THER-301-SITE002-0413,1,PLACEBO,0.0,mg,,BID,ORAL,TREATMENT,2024-05-10,2024-05-13,1,4
COVID-THER-301,EX,COVID-THER-301-SITE002-0416,1,PLACEBO,0.0,mg,,BID,ORAL,TREATMENT,2024-04-28,2024-04-30,1,3
COVID-THER-301,EX,COVID-THER-301-SITE002-0419,1,ANTIVIRAL,200.0,mg,,BID,ORAL,TREATMENT,2024-04-05,2024-04-07,1,3
COVID-THER-301,EX,COVID-THER-301-SITE002-0425,1,ANTIVIRAL,200.0,mg,,BID,ORAL,TREATMENT,2024-04-23,2024-04-24,1,2
COVID-THER-301,EX,COVID-THER-301-SITE002-0428,1,ANTIVIRAL,200.0,mg,,BID,ORAL,TREATMENT,2024-03-15,2024-03-17,1,3
COVID-THER-301,EX,COVID-THER-301-SITE002-0431,1,ANTIVIRAL,200.0,mg,,BID,ORAL,TREATMENT,2024-03-12,2024-03-15,1,4
COVID-THER-301,EX,COVID-THER-301-SITE002-0434,1,ANTIVIRAL,200.0,mg,,BID,ORAL,TREATMENT,2024-02-10,2024-02-11,1,2
COVID-THER-301,EX,COVID-THER-301-SITE002-0437,1,PLACEBO,0.0,mg,,BID,ORAL,TREATMENT,2024-03-29,2024-04-01,1,4
COVID-THER-301,EX,COVID-THER-301-SITE002-0440,1,ANTIVIRAL,200.0,mg,,BID,ORAL,TREATMENT,2024-03-20,2024-03-23,1,4
COVID-THER-301,EX,COVID-THER-301-SITE002-0443,1,ANTIVIRAL,200.0,mg,,BID,ORAL,TREATMENT,2024-02-23,2024-02-26,1,4
COVID-THER-301,EX,COVID-THER-301-SITE002-0446,1,ANTIVIRAL,200.0,mg,,BID,ORAL,TREATMENT,2024-02-18,2024-02-19,1,2
COVID-THER-301,EX,COVID-THER-301-SITE002-0449,1,PLACEBO,0.0,mg,,BID,ORAL,TREATMENT,2024-05-08,2024-05-10,1,3
COVID-THER-301,EX,COVID-THER-301-SITE002-0452,1,ANTIVIRAL,200.0,mg,,BID,ORAL,TREATMENT,2024-04-06,2024-04-09,1,4
COVID-THER-301,EX,COVID-THER-301-SITE002-0455,1,ANTIVIRAL,200.0,mg,,BID,ORAL,TREATMENT,2024-03-02,2024-03-04,1,3
COVID-THER-301,EX,COVID-THER-301-SITE002-0455,2,ANTIVIRAL,100.0,mg,,BID,ORAL,TREATMENT,2024-03-05,2024-03-05,4,4
COVID-THER-301,EX,COVID-THER-301-SITE002-0458,1,ANTIVIRAL,200.0,mg,,BID,ORAL,TREATMENT,2024-03-20,2024-03-22,1,3
COVID-THER-301,EX,COVID-THER-301-SITE002-0461,1,ANTIVIRAL,200.0,mg,,BID,ORAL,TREATMENT,2024-05-11,2024-05-14,1,4
COVID-THER-301,EX,COVID-THER-301-SITE002-0464,1,PLACEBO,0.0,mg,,BID,ORAL,TREATMENT,2024-03-03,2024-03-06,1,4
COVID-THER-301,EX,COVID-THER-301-SITE002-0467,1,ANTIVIRAL,200.0,mg,,BID,ORAL,TREATMENT,2024-03-10,2024-03-10,1,1
COVID-THER-301,EX,COVID-THER-301-SITE002-0467,2,ANTIVIRAL,200.0,mg,,BID,ORAL,TREATMENT,2024-03-12,2024-03-12,3,3
COVID-THER-301,EX,COVID-THER-301-SITE002-0470,1,PLACEBO,0.0,mg,,BID,ORAL,TREATMENT,2024-02-09,2024-02-11,1,3
COVID-THER-301,EX,COVID-THER-301-SITE002-0473,1,PLACEBO,0.0,mg,,BID,ORAL,TREATMENT,2024-04-09,2024-04-11,1,3
COVID-THER-301,EX,COVID-THER-301-SITE002-0476,1,PLACEBO,0.0,mg,,BID,ORAL,TREATMENT,2024-02-17,2024-02-19,1,3
COVID-THER-301,EX,COVID-THER-301-SITE002-0479,1,PLACEBO,0.0,mg,,BID,ORAL,TREATMENT,2024-02-14,2024-02-15,1,2
COVID-THER-301,EX,COVID-THER-301-SITE002-0482,1,PLACEBO,0.0,mg,,BID,ORAL,TREATMENT,2024-04-21,2024-04-22,1,2
COVID-THER-301,EX,COVID-THER-301-SITE002-0485,1,ANTIVIRAL,200.0,mg,,BID,ORAL,TREATMENT,2024-04-19,2024-04-21,1,3
COVID-THER-301,EX,COVID-THER-301-SITE002-0488,1,PLACEBO,0.0,mg,,BID,ORAL,TREATMENT,2024-05-06,2024-05-08,1,3
COVID-THER-301,EX,COVID-THER-301-SITE002-0491,1,ANTIVIRAL,200.0,mg,,BID,ORAL,TREATMENT,2024-03-23,2024-03-27,1,5
COVID-THER-301,EX,COVID-THER-301-SITE002-0494,1,PLACEBO,0.0,mg,,BID,ORAL,TREATMENT,2024-04-02,2024-04-05,1,4
COVID-THER-301,EX,COVID-THER-301-SITE002-0497,1,ANTIVIRAL,200.0,mg,,BID,ORAL,TREATMENT,2024-04-15,2024-04-16,1,2
COVID-THER-301,EX,COVID-THER-301-SITE002-0500,1,ANTIVIRAL,200.0,mg,,BID,ORAL,TREATMENT,2024-03-06,2024-03-08,1,3
COVID-THER-301,EX,COVID-THER-301-SITE003-0003,1,PLACEBO,0.0,mg,,BID,ORAL,TREATMENT,2024-03-27,2024-03-30,1,4
COVID-THER-301,EX,COVID-THER-301-SITE003-0006,1,ANTIVIRAL,200.0,mg,,BID,ORAL,TREATMENT,2024-05-07,2024-05-07,1,1
COVID-THER-301,EX,COVID-THER-301-SITE003-0006,2,ANTIVIRAL,200.0,mg,,BID,ORAL,TREATMENT,2024-05-08,2024-05-08,2,2
COVID-THER-301,EX,COVID-THER-301-SITE003-0009,1,PLACEBO,0.0,mg,,BID,ORAL,TREATMENT,2024-02-08,2024-02-12,1,5
COVID-THER-301,EX,COVID-THER-301-SITE003-0012,1,PLACEBO,0.0,mg,,BID,ORAL,TREATMENT,2024-04-24,2024-04-26,1,3
COVID-THER-301,EX,COVID-THER-301-SITE003-0015,1,ANTIVIRAL,200.0,mg,,BID,ORAL,TREATMENT,2024-03-10,2024-03-11,1,2
COVID-THER-301,EX,COVID-THER-301-SITE003-0018,1,ANTIVIRAL,200.0,mg,,BID,ORAL,TREATMENT,2024-02-11,2024-02-12,1,2
COVID-THER-301,EX,COVID-THER-301-SITE003-0021,1,PLACEBO,0.0,mg,,BID,ORAL,TREATMENT,2024-03-15,2024-03-18,1,4
COVID-THER-301,EX,COVID-THER-301-SITE003-0024,1,ANTIVIRAL,200.0,mg,,BID,ORAL,TREATMENT,2024-04-20,2024-04-21,1,2
COVID-THER-301,EX,COVID-THER-301-SITE003-0027,1,PLACEBO,0.0,mg,,BID,ORAL,TREATMENT,2024-04-30,2024-05-03,1,4
COVID-THER-301,EX,COVID-THER-301-SITE003-0030,1,ANTIVIRAL,200.0,mg,,BID,ORAL,TREATMENT,2024-03-26,2024-03-28,1,3
COVID-THER-301,EX,COVID-THER-301-SITE003-0033,1,PLACEBO,0.0,mg,,BID,ORAL,TREATMENT,2024-04-02,2024-04-04,1,3
COVID-THER-301,EX,COVID-THER-301-SITE003-0036,1,ANTIVIRAL,200.0,mg,,BID,ORAL,TREATMENT,2024-02-24,2024-02-25,1,2
COVID-THER-301,EX,COVID-THER-301-SITE003-0039,1,PLACEBO,0.0,mg,,BID,ORAL,TREATMENT,2024-04-22,2024-04-24,1,3
COVID-THER-301,EX,COVID-THER-301-SITE003-0042,1,PLACEBO,0.0,mg,,BID,ORAL,TREATMENT,2024-05-03,2024-05-05,1,3
COVID-THER-301,EX,COVID-THER-301-SITE003-0045,1,ANTIVIRAL,200.0,mg,,BID,ORAL,TREATMENT,2024-04-03,2024-04-06,1,4
COVID-THER-301,EX,COVID-THER-301-SITE003-0048,1,ANTIVIRAL,200.0,mg,,BID,ORAL,TREATMENT,2024-02-28,2024-02-29,1,2
COVID-THER-301,EX,COVID-THER-301-SITE003-0051,1,ANTIVIRAL,200.0,mg,,BID,ORAL,TREATMENT,2024-03-30,2024-04-01,1,3
COVID-THER-301,EX,COVID-THER-301-SITE003-0054,1,PLACEBO,0.0,mg,,BID,ORAL,TREATMENT,2024-04-03,2024-04-06,1,4
COVID-THER-301,EX,COVID-THER-301-SITE003-0057,1,PLACEBO,0.0,mg,,BID,ORAL,TREATMENT,2024-04-18,2024-04-19,1,2
COVID-THER-301,EX,COVID-THER-301-SITE003-0060,1,ANTIVIRAL,200.0,mg,,BID,ORAL,TREATMENT,2024-03-09,2024-03-13,1,5
COVID-THER-301,EX,COVID-THER-301-SITE003-0063,1,ANTIVIRAL,200.0,mg,,BID,ORAL,TREATMENT,2024-04-24,2024-04-27,1,4
COVID-THER-301,EX,COVID-THER-301-SITE003-0066,1,ANTIVIRAL,200.0,mg,,BID,ORAL,TREATMENT,2024-04-27,2024-04-30,1,4
COVID-THER-301,EX,COVID-THER-301-SITE003-0069,1,ANTIVIRAL,200.0,mg,,BID,ORAL,TREATMENT,2024-02-28,2024-03-03,1,5
COVID-THER-301,EX,COVID-THER-301-SITE003-0072,1,ANTIVIRAL,200.0,mg,,BID,ORAL,TREATMENT,2024-03-22,2024-03-24,1,3
COVID-THER-301,EX,COVID-THER-301-SITE003-0075,1,ANTIVIRAL,200.0,mg,,BID,ORAL,TREATMENT,2024-03-11,2024-03-13,1,3
COVID-THER-301,EX,COVID-THER-301-SITE003-0078,1,ANTIVIRAL,200.0,mg,,BID,ORAL,TREATMENT,2024-02-16,2024-02-17,1,2
COVID-THER-301,EX,COVID-THER-301-SITE003-0081,1,PLACEBO,0.0,mg,,BID,ORAL,TREATMENT,2024-02-09,2024-02-10,1,2
COVID-THER-301,EX,COVID-THER-301-SITE003-0084,1,PLACEBO,0.0,mg,,BID,ORAL,TREATMENT,2024-05-03,2024-05-04,1,2
COVID-THER-301,EX,COVID-THER-301-SITE003-0087,1,ANTIVIRAL,200.0,mg,,BID,ORAL,TREATMENT,2024-05-04,2024-05-08,1,5
COVID-THER-301,EX,COVID-THER-301-SITE003-0090,1,PLACEBO,0.0,mg,,BID,ORAL,TREATMENT,2024-03-28,2024-03-30,1,3
COVID-THER-301,EX,COVID-THER-301-SITE003-0093,1,ANTIVIRAL,200.0,mg,,BID,ORAL,TREATMENT,2024-04-08,2024-04-09,1,2
COVID-THER-301,EX,COVID-THER-301-SITE003-0096,1,ANTIVIRAL,200.0,mg,,BID,ORAL,TREATMENT,2024-04-28,2024-05-01,1,4
COVID-THER-301,EX,COVID-THER-301-SITE003-0099,1,PLACEBO,0.0,mg,,BID,ORAL,TREATMENT,2024-05-07,2024-05-09,1,3
COVID-THER-301,EX,COVID-THER-301-SITE003-0102,1,ANTIVIRAL,200.0,mg,,BID,ORAL,TREATMENT,2024-04-06,2024-04-08,1,3
COVID-THER-301,EX,COVID-THER-301-SITE003-0105,1,ANTIVIRAL,200.0,mg,,BID,ORAL,TREATMENT,2024-03-21,2024-03-24,1,4
COVID-THER-301,EX,COVID-THER-301-SITE003-0108,1,ANTIVIRAL,200.0,mg,,BID,ORAL,TREATMENT,2024-03-18,2024-03-19,1,2
COVID-THER-301,EX,COVID-THER-301-SITE003-0111,1,ANTIVIRAL,200.0,mg,,BID,ORAL,TREATMENT,2024-04-21,2024-04-24,1,4
COVID-THER-301,EX,COVID-THER-301-SITE003-0117,1,ANTIVIRAL,200.0,mg,,BID,ORAL,TREATMENT,2024-03-13,2024-03-16,1,4
COVID-THER-301,EX,COVID-THER-301-SITE003-0120,1,ANTIVIRAL,200.0,mg,,BID,ORAL,TREATMENT,2024-03-26,2024-03-29,1,4
COVID-THER-301,EX,COVID-THER-301-SITE003-0123,1,ANTIVIRAL,200.0,mg,,BID,ORAL,TREATMENT,2024-03-21,2024-03-23,1,3
COVID-THER-301,EX,COVID-THER-301-SITE003-0129,1,ANTIVIRAL,200.0,mg,,BID,ORAL,TREATMENT,2024-04-19,2024-04-21,1,3
COVID-THER-301,EX,COVID-THER-301-SITE003-0132,1,PLACEBO,0.0,mg,,BID,ORAL,TREATMENT,2024-02-17,2024-02-20,1,4
COVID-THER-301,EX,COVID-THER-301-SITE003-0135,1,PLACEBO,0.0,mg,,BID,ORAL,TREATMENT,2024-02-16,2024-02-18,1,3
COVID-THER-301,EX,COVID-THER-301-SITE003-0138,1,ANTIVIRAL,200.0,mg,,BID,ORAL,TREATMENT,2024-02-15,2024-02-16,1,2
COVID-THER-301,EX,COVID-THER-301-SITE003-0141,1,PLACEBO,0.0,mg,,BID,ORAL,TREATMENT,2024-04-29,2024-04-30,1,2
COVID-THER-301,EX,COVID-THER-301-SITE003-0144,1,ANTIVIRAL,200.0,mg,,BID,ORAL,TREATMENT,2024-04-29,2024-05-01,1,3
COVID-THER-301,EX,COVID-THER-301-SITE003-0147,1,ANTIVIRAL,200.0,mg,,BID,ORAL,TREATMENT,2024-03-03,2024-03-04,1,2
COVID-THER-301,EX,COVID-THER-301-SITE003-0150,1,PLACEBO,0.0,mg,,BID,ORAL,TREATMENT,2024-02-19,2024-02-21,1,3
COVID-THER-301,EX,COVID-THER-301-SITE003-0153,1,PLACEBO,0.0,mg,,BID,ORAL,TREATMENT,2024-04-12,2024-04-14,1,3
COVID-THER-301,EX,COVID-THER-301-SITE003-0156,1,ANTIVIRAL,200.0,mg,,BID,ORAL,TREATMENT,2024-02-06,2024-02-08,1,3
COVID-THER-301,EX,COVID-THER-301-SITE003-0159,1,PLACEBO,0.0,mg,,BID,ORAL,TREATMENT,2024-04-28,2024-05-02,1,5
COVID-THER-301,EX,COVID-THER-301-SITE003-0162,1,ANTIVIRAL,200.0,mg,,BID,ORAL,TREATMENT,2024-04-21,2024-04-22,1,2
COVID-THER-301,EX,COVID-THER-301-SITE003-0162,2,ANTIVIRAL,100.0,mg,,BID,ORAL,TREATMENT,2024-04-23,2024-04-23,3,3
COVID-THER-301,EX,COVID-THER-301-SITE003-0165,1,ANTIVIRAL,200.0,mg,,BID,ORAL,TREATMENT,2024-02-29,2024-03-01,1,2
COVID-THER-301,EX,COVID-THER-301-SITE003-0168,1,ANTIVIRAL,200.0,mg,,BID,ORAL,TREATMENT,2024-01-27,2024-01-28,1,2
COVID-THER-301,EX,COVID-THER-301-SITE003-0171,1,ANTIVIRAL,200.0,mg,,BID,ORAL,TREATMENT,2024-02-25,2024-02-27,1,3
COVID-THER-301,EX,COVID-THER-301-SITE003-0174,1,ANTIVIRAL,200.0,mg,,BID,ORAL,TREATMENT,2024-03-26,2024-03-27,1,2
COVID-THER-301,EX,COVID-THER-301-SITE003-0177,1,PLACEBO,0.0,mg,,BID,ORAL,TREATMENT,2024-02-24,2024-02-25,1,2
COVID-THER-301,EX,COVID-THER-301-SITE003-0180,1,ANTIVIRAL,200.0,mg,,BID,ORAL,TREATMENT,2024-02-15,2024-02-18,1,4
COVID-THER-301,EX,COVID-THER-301-SITE003-0183,1,PLACEBO,0.0,mg,,BID,ORAL,TREATMENT,2024-04-11,2024-04-14,1,4
COVID-THER-301,EX,COVID-THER-301-SITE003-0186,1,PLACEBO,0.0,mg,,BID,ORAL,TREATMENT,2024-04-04,2024-04-07,1,4
COVID-THER-301,EX,COVID-THER-301-SITE003-0189,1,ANTIVIRAL,200.0,mg,,BID,ORAL,TREATMENT,2024-04-01,2024-04-02,1,2
COVID-THER-301,EX,COVID-THER-301-SITE003-0192,1,PLACEBO,0.0,mg,,BID,ORAL,TREATMENT,2024-03-25,2024-03-27,1,3
COVID-THER-301,EX,COVID-THER-301-SITE003-0195,1,ANTIVIRAL,200.0,mg,,BID,ORAL,TREATMENT,2024-04-24,2024-04-27,1,4
COVID-THER-301,EX,COVID-THER-301-SITE003-0198,1,PLACEBO,0.0,mg,,BID,ORAL,TREATMENT,2024-03-14,2024-03-17,1,4
COVID-THER-301,EX,COVID-THER-301-SITE003-0204,1,PLACEBO,0.0,mg,,BID,ORAL,TREATMENT,2024-04-11,2024-04-12,1,2
COVID-THER-301,EX,COVID-THER-301-SITE003-0207,1,PLACEBO,0.0,mg,,BID,ORAL,TREATMENT,2024-02-21,2024-02-24,1,4
COVID-THER-301,EX,COVID-THER-301-SITE003-0210,1,ANTIVIRAL,200.0,mg,,BID,ORAL,TREATMENT,2024-03-27,2024-03-29,1,3
COVID-THER-301,EX,COVID-THER-301-SITE003-0213,1,PLACEBO,0.0,mg,,BID,ORAL,TREATMENT,2024-04-30,2024-05-03,1,4
COVID-THER-301,EX,COVID-THER-301-SITE003-0219,1,PLACEBO,0.0,mg,,BID,ORAL,TREATMENT,2024-03-21,2024-03-24,1,4
COVID-THER-301,EX,COVID-THER-301-SITE003-0222,1,PLACEBO,0.0,mg,,BID,ORAL,TREATMENT,2024-05-01,2024-05-04,1,4
COVID-THER-301,EX,COVID-THER-301-SITE003-0225,1,ANTIVIRAL,200.0,mg,,BID,ORAL,TREATMENT,2024-03-30,2024-04-02,1,4
COVID-THER-301,EX,COVID-THER-301-SITE003-0228,1,ANTIVIRAL,200.0,mg,,BID,ORAL,TREATMENT,2024-02-20,2024-02-21,1,2
COVID-THER-301,EX,COVID-THER-301-SITE003-0231,1,PLACEBO,0.0,mg,,BID,ORAL,TREATMENT,2024-03-01,2024-03-02,1,2
COVID-THER-301,EX,COVID-THER-301-SITE003-0234,1,PLACEBO,0.0,mg,,BID,ORAL,TREATMENT,2024-04-13,2024-04-14,1,2
COVID-THER-301,EX,COVID-THER-301-SITE003-0237,1,ANTIVIRAL,200.0,mg,,BID,ORAL,TREATMENT,2024-03-26,2024-03-29,1,4
COVID-THER-301,EX,COVID-THER-301-SITE003-0240,1,PLACEBO,0.0,mg,,BID,ORAL,TREATMENT,2024-04-05,2024-04-07,1,3
COVID-THER-301,EX,COVID-THER-301-SITE003-0243,1,ANTIVIRAL,200.0,mg,,BID,ORAL,TREATMENT,2024-02-25,2024-02-26,1,2
COVID-THER-301,EX,COVID-THER-301-SITE003-0246,1,PLACEBO,0.0,mg,,BID,ORAL,TREATMENT,2024-04-27,2024-04-30,1,4
COVID-THER-301,EX,COVID-THER-301-SITE003-0249,1,PLACEBO,0.0,mg,,BID,ORAL,TREATMENT,2024-02-13,2024-02-14,1,2
COVID-THER-301,EX,COVID-THER-301-SITE003-0252,1,ANTIVIRAL,200.0,mg,,BID,ORAL,TREATMENT,2024-03-07,2024-03-09,1,3
COVID-THER-301,EX,COVID-THER-301-SITE003-0255,1,ANTIVIRAL,200.0,mg,,BID,ORAL,TREATMENT,2024-04-17,2024-04-19,1,3
COVID-THER-301,EX,COVID-THER-301-SITE003-0258,1,ANTIVIRAL,200.0,mg,,BID,ORAL,TREATMENT,2024-04-19,2024-04-21,1,3
COVID-THER-301,EX,COVID-THER-301-SITE003-0261,1,PLACEBO,0.0,mg,,BID,ORAL,TREATMENT,2024-04-06,2024-04-07,1,2
COVID-THER-301,EX,COVID-THER-301-SITE003-0267,1,PLACEBO,0.0,mg,,BID,ORAL,TREATMENT,2024-02-07,2024-02-10,1,4
COVID-THER-301,EX,COVID-THER-301-SITE003-0270,1,PLACEBO,0.0,mg,,BID,ORAL,TREATMENT,2024-04-06,2024-04-08,1,3
COVID-THER-301,EX,COVID-THER-301-SITE003-0273,1,PLACEBO,0.0,mg,,BID,ORAL,TREATMENT,2024-04-26,2024-04-28,1,3
COVID-THER-301,EX,COVID-THER-301-SITE003-0276,1,ANTIVIRAL,200.0,mg,,BID,ORAL,TREATMENT,2024-03-27,2024-03-29,1,3
COVID-THER-301,EX,COVID-THER-301-SITE003-0279,1,ANTIVIRAL,200.0,mg,,BID,ORAL,TREATMENT,2024-04-26,2024-04-29,1,4
COVID-THER-301,EX,COVID-THER-301-SITE003-0282,1,ANTIVIRAL,200.0,mg,,BID,ORAL,TREATMENT,2024-04-01,2024-04-03,1,3
COVID-THER-301,EX,COVID-THER-301-SITE003-0285,1,ANTIVIRAL,200.0,mg,,BID,ORAL,TREATMENT,2024-04-22,2024-04-25,1,4
COVID-THER-301,EX,COVID-THER-301-SITE003-0288,1,PLACEBO,0.0,mg,,BID,ORAL,TREATMENT,2024-04-03,2024-04-06,1,4
COVID-THER-301,EX,COVID-THER-301-SITE003-0291,1,ANTIVIRAL,200.0,mg,,BID,ORAL,TREATMENT,2024-02-11,2024-02-13,1,3
COVID-THER-301,EX,COVID-THER-301-SITE003-0294,1,PLACEBO,0.0,mg,,BID,ORAL,TREATMENT,2024-02-11,2024-02-15,1,5
COVID-THER-301,EX,COVID-THER-301-SITE003-0297,1,ANTIVIRAL,200.0,mg,,BID,ORAL,TREATMENT,2024-05-07,2024-05-10,1,4
COVID-THER-301,EX,COVID-THER-301-SITE003-0300,1,PLACEBO,0.0,mg,,BID,ORAL,TREATMENT,2024-02-29,2024-03-02,1,3
COVID-THER-301,EX,COVID-THER-301-SITE003-0303,1,ANTIVIRAL,200.0,mg,,BID,ORAL,TREATMENT,2024-02-19,2024-02-19,1,1
COVID-THER-301,EX,COVID-THER-301-SITE003-0303,2,ANTIVIRAL,200.0,mg,,BID,ORAL,TREATMENT,2024-02-21,2024-02-21,3,3
COVID-THER-301,EX,COVID-THER-301-SITE003-0306,1,PLACEBO,0.0,mg,,BID,ORAL,TREATMENT,2024-04-27,2024-04-30,1,4
COVID-THER-301,EX,COVID-THER-301-SITE003-0312,1,PLACEBO,0.0,mg,,BID,ORAL,TREATMENT,2024-03-21,2024-03-24,1,4
COVID-THER-301,EX,COVID-THER-301-SITE003-0318,1,ANTIVIRAL,200.0,mg,,BID,ORAL,TREATMENT,2024-02-27,2024-02-28,1,2
COVID-THER-301,EX,COVID-THER-301-SITE003-0321,1,ANTIVIRAL,200.0,mg,,BID,ORAL,TREATMENT,2024-05-08,2024-05-12,1,5
COVID-THER-301,EX,COVID-THER-301-SITE003-0327,1,PLACEBO,0.0,mg,,BID,ORAL,TREATMENT,2024-03-24,2024-03-25,1,2
COVID-THER-301,EX,COVID-THER-301-SITE003-0330,1,ANTIVIRAL,200.0,mg,,BID,ORAL,TREATMENT,2024-04-07,2024-04-09,1,3
COVID-THER-301,EX,COVID-THER-301-SITE003-0333,1,PLACEBO,0.0,mg,,BID,ORAL,TREATMENT,2024-04-06,2024-04-10,1,5
COVID-THER-301,EX,COVID-THER-301-SITE003-0336,1,ANTIVIRAL,200.0,mg,,BID,ORAL,TREATMENT,2024-03-05,2024-03-07,1,3
COVID-THER-301,EX,COVID-THER-301-SITE003-0339,1,ANTIVIRAL,200.0,mg,,BID,ORAL,TREATMENT,2024-03-21,2024-03-24,1,4
COVID-THER-301,EX,COVID-THER-301-SITE003-0342,1,PLACEBO,0.0,mg,,BID,ORAL,TREATMENT,2024-04-16,2024-04-17,1,2
COVID-THER-301,EX,COVID-THER-301-SITE003-0351,1,PLACEBO,0.0,mg,,BID,ORAL,TREATMENT,2024-04-29,2024-04-30,1,2
COVID-THER-301,EX,COVID-THER-301-SITE003-0360,1,ANTIVIRAL,200.0,mg,,BID,ORAL,TREATMENT,2024-03-05,2024-03-08,1,4
COVID-THER-301,EX,COVID-THER-301-SITE003-0363,1,PLACEBO,0.0,mg,,BID,ORAL,TREATMENT,2024-04-13,2024-04-14,1,2
COVID-THER-301,EX,COVID-THER-301-SITE003-0366,1,ANTIVIRAL,200.0,mg,,BID,ORAL,TREATMENT,2024-04-15,2024-04-19,1,5
COVID-THER-301,EX,COVID-THER-301-SITE003-0369,1,ANTIVIRAL,200.0,mg,,BID,ORAL,TREATMENT,2024-03-30,2024-03-31,1,2
COVID-THER-301,EX,COVID-THER-301-SITE003-0372,1,ANTIVIRAL,200.0,mg,,BID,ORAL,TREATMENT,2024-04-15,2024-04-18,1,4
COVID-THER-301,EX,COVID-THER-301-SITE003-0375,1,PLACEBO,0.0,mg,,BID,ORAL,TREATMENT,2024-02-18,2024-02-21,1,4
COVID-THER-301,EX,COVID-THER-301-SITE003-0378,1,ANTIVIRAL,200.0,mg,,BID,ORAL,TREATMENT,2024-03-24,2024-03-25,1,2
COVID-THER-301,EX,COVID-THER-301-SITE003-0381,1,ANTIVIRAL,200.0,mg,,BID,ORAL,TREATMENT,2024-03-05,2024-03-06,1,2
COVID-THER-301,EX,COVID-THER-301-SITE003-0384,1,PLACEBO,0.0,mg,,BID,ORAL,TREATMENT,2024-01-30,2024-02-03,1,5
COVID-THER-301,EX,COVID-THER-301-SITE003-0387,1,ANTIVIRAL,200.0,mg,,BID,ORAL,TREATMENT,2024-03-08,2024-03-12,1,5
COVID-THER-301,EX,COVID-THER-301-SITE003-0390,1,ANTIVIRAL,200.0,mg,,BID,ORAL,TREATMENT,2024-04-22,2024-04-25,1,4
COVID-THER-301,EX,COVID-THER-301-SITE003-0393,1,ANTIVIRAL,200.0,mg,,BID,ORAL,TREATMENT,2024-04-19,2024-04-22,1,4
COVID-THER-301,EX,COVID-THER-301-SITE003-0396,1,PLACEBO,0.0,mg,,BID,ORAL,TREATMENT,2024-04-22,2024-04-25,1,4
COVID-THER-301,EX,COVID-THER-301-SITE003-0399,1,ANTIVIRAL,200.0,mg,,BID,ORAL,TREATMENT,2024-02-14,2024-02-17,1,4
COVID-THER-301,EX,COVID-THER-301-SITE003-0402,1,ANTIVIRAL,200.0,mg,,BID,ORAL,TREATMENT,2024-04-22,2024-04-23,1,2
COVID-THER-301,EX,COVID-THER-301-SITE003-0405,1,PLACEBO,0.0,mg,,BID,ORAL,TREATMENT,2024-02-26,2024-02-27,1,2
COVID-THER-301,EX,COVID-THER-301-SITE003-0408,1,ANTIVIRAL,200.0,mg,,BID,ORAL,TREATMENT,2024-04-13,2024-04-14,1,2
COVID-THER-301,EX,COVID-THER-301-SITE003-0411,1,ANTIVIRAL,200.0,mg,,BID,ORAL,TREATMENT,2024-04-12,2024-04-13,1,2
COVID-THER-301,EX,COVID-THER-301-SITE003-0414,1,PLACEBO,0.0,mg,,BID,ORAL,TREATMENT,2024-04-29,2024-05-02,1,4
COVID-THER-301,EX,COVID-THER-301-SITE003-0417,1,PLACEBO,0.0,mg,,BID,ORAL,TREATMENT,2024-04-30,2024-05-02,1,3
COVID-THER-301,EX,COVID-THER-301-SITE003-0423,1,PLACEBO,0.0,mg,,BID,ORAL,TREATMENT,2024-04-13,2024-04-15,1,3
COVID-THER-301,EX,COVID-THER-301-SITE003-0426,1,PLACEBO,0.0,mg,,BID,ORAL,TREATMENT,2024-05-06,2024-05-09,1,4
COVID-THER-301,EX,COVID-THER-301-SITE003-0429,1,PLACEBO,0.0,mg,,BID,ORAL,TREATMENT,2024-03-27,2024-03-30,1,4
COVID-THER-301,EX,COVID-THER-301-SITE003-0432,1,ANTIVIRAL,200.0,mg,,BID,ORAL,TREATMENT,2024-02-09,2024-02-11,1,3
COVID-THER-301,EX,COVID-THER-301-SITE003-0435,1,PLACEBO,0.0,mg,,BID,ORAL,TREATMENT,2024-01-31,2024-02-02,1,3
COVID-THER-301,EX,COVID-THER-301-SITE003-0438,1,ANTIVIRAL,200.0,mg,,BID,ORAL,TREATMENT,2024-04-04,2024-04-08,1,5
COVID-THER-301,EX,COVID-THER-301-SITE003-0441,1,ANTIVIRAL,200.0,mg,,BID,ORAL,TREATMENT,2024-02-25,2024-02-28,1,4
COVID-THER-301,EX,COVID-THER-301-SITE003-0444,1,ANTIVIRAL,200.0,mg,,BID,ORAL,TREATMENT,2024-03-04,2024-03-06,1,3
COVID-THER-301,EX,COVID-THER-301-SITE003-0447,1,PLACEBO,0.0,mg,,BID,ORAL,TREATMENT,2024-04-24,2024-04-25,1,2
COVID-THER-301,EX,COVID-THER-301-SITE003-0450,1,PLACEBO,0.0,mg,,BID,ORAL,TREATMENT,2024-02-13,2024-02-15,1,3
COVID-THER-301,EX,COVID-THER-301-SITE003-0453,1,ANTIVIRAL,200.0,mg,,BID,ORAL,TREATMENT,2024-02-12,2024-02-13,1,2
COVID-THER-301,EX,COVID-THER-301-SITE003-0456,1,ANTIVIRAL,200.0,mg,,BID,ORAL,TREATMENT,2024-05-07,2024-05-09,1,3
COVID-THER-301,EX,COVID-THER-301-SITE003-0462,1,ANTIVIRAL,200.0,mg,,BID,ORAL,TREATMENT,2024-04-02,2024-04-03,1,2
COVID-THER-301,EX,COVID-THER-301-SITE003-0465,1,ANTIVIRAL,200.0,mg,,BID,ORAL,TREATMENT,2024-04-24,2024-04-26,1,3
COVID-THER-301,EX,COVID-THER-301-SITE003-0468,1,PLACEBO,0.0,mg,,BID,ORAL,TREATMENT,2024-03-08,2024-03-09,1,2
COVID-THER-301,EX,COVID-THER-301-SITE003-0471,1,PLACEBO,0.0,mg,,BID,ORAL,TREATMENT,2024-04-12,2024-04-13,1,2
COVID-THER-301,EX,COVID-THER-301-SITE003-0474,1,ANTIVIRAL,200.0,mg,,BID,ORAL,TREATMENT,2024-03-10,2024-03-12,1,3
COVID-THER-301,EX,COVID-THER-301-SITE003-0477,1,PLACEBO,0.0,mg,,BID,ORAL,TREATMENT,2024-04-08,2024-04-10,1,3
COVID-THER-301,EX,COVID-THER-301-SITE003-0480,1,ANTIVIRAL,200.0,mg,,BID,ORAL,TREATMENT,2024-02-28,2024-03-02,1,4
COVID-THER-301,EX,COVID-THER-301-SITE003-0483,1,PLACEBO,0.0,mg,,BID,ORAL,TREATMENT,2024-03-01,2024-03-04,1,4
COVID-THER-301,EX,COVID-THER-301-SITE003-0486,1,PLACEBO,0.0,mg,,BID,ORAL,TREATMENT,2024-02-16,2024-02-19,1,4
COVID-THER-301,EX,COVID-THER-301-SITE003-0489,1,ANTIVIRAL,200.0,mg,,BID,ORAL,TREATMENT,2024-02-29,2024-03-04,1,5
COVID-THER-301,EX,COVID-THER-301-SITE003-0492,1,ANTIVIRAL,200.0,mg,,BID,ORAL,TREATMENT,2024-03-30,2024-04-02,1,4
COVID-THER-301,EX,COVID-THER-301-SITE003-0495,1,ANTIVIRAL,200.0,mg,,BID,ORAL,TREATMENT,2024-02-03,2024-02-06,1,4
COVID-THER-301,EX,COVID-THER-301-SITE003-0498,1,ANTIVIRAL,200.0,mg,,BID,ORAL,TREATMENT,2024-02-16,2024-02-18,1,3
