{
  "generator_version": "2.0",
  "sdtmig_version": "3.4",
  "generated_at": "2026-06-12T05:15:06.659034+00:00",
  "study_id": "COVID-THER-301",
  "protocol_name": "infectious_disease_covid",
  "seed": 1,
  "subjects": {
    "total_generated": 500,
    "enrolled": 460,
    "screen_failures": 40,
    "completed": 388,
    "deaths": 0,
    "total_adverse_events": 73
  },
  "arms": [
    {
      "armcd": "AV200",
      "arm": "Antiviral 200mg BID",
      "type": "",
      "n_randomized": 245,
      "n_completed": 204,
      "n_discontinued": 41,
      "discontinuation_reasons": {
        "WITHDRAWAL BY SUBJECT": 11,
        "PHYSICIAN DECISION": 9,
        "ADVERSE EVENT": 8,
        "LOST TO FOLLOW-UP": 7,
        "PROTOCOL VIOLATION": 6
      },
      "mean_exposure_days": 2.2,
      "total_aes": 38,
      "ae_rate_per_subject": 0.2,
      "subjects_with_ae": 36,
      "serious_ae_count": 9
    },
    {
      "armcd": "PBO",
      "arm": "Placebo",
      "type": "",
      "n_randomized": 215,
      "n_completed": 184,
      "n_discontinued": 31,
      "discontinuation_reasons": {
        "PHYSICIAN DECISION": 10,
        "WITHDRAWAL BY SUBJECT": 7,
        "ADVERSE EVENT": 6,
        "LOST TO FOLLOW-UP": 5,
        "PROTOCOL VIOLATION": 3
      },
      "mean_exposure_days": 2.1,
      "total_aes": 35,
      "ae_rate_per_subject": 0.2,
      "subjects_with_ae": 32,
      "serious_ae_count": 8
    }
  ],
  "sites": [
    {
      "siteid": "SITE001",
      "n_subjects": 167,
      "n_enrolled": 150,
      "n_screen_failures": 17,
      "country": "USA",
      "investigator": "Dr. Robert Chen",
      "n_completed": 124,
      "n_deaths": 0
    },
    {
      "siteid": "SITE002",
      "n_subjects": 167,
      "n_enrolled": 158,
      "n_screen_failures": 9,
      "country": "USA",
      "investigator": "Dr. Maria Santos",
      "n_completed": 136,
      "n_deaths": 0
    },
    {
      "siteid": "SITE003",
      "n_subjects": 166,
      "n_enrolled": 152,
      "n_screen_failures": 14,
      "country": "USA",
      "investigator": "Dr. James Wilson",
      "n_completed": 128,
      "n_deaths": 0
    }
  ],
  "domains": {
    "AE": {
      "record_count": 73,
      "variable_count": 35,
      "file": "ae.csv",
      "variables": [
        "STUDYID",
        "DOMAIN",
        "USUBJID",
        "AESEQ",
        "AELNKID",
        "AETERM",
        "AELLT",
        "AELLTCD",
        "AEDECOD",
        "AEPTCD",
        "AEHLT",
        "AEHLTCD",
        "AEHLGT",
        "AEHLGTCD",
        "AEBODSYS",
        "AEBDSYCD",
        "AESOC",
        "AESOCCD",
        "AESEV",
        "AESER",
        "AEACN",
        "AEREL",
        "AEOUT",
        "AESCONG",
        "AESDISAB",
        "AESDTH",
        "AESHOSP",
        "AESLIFE",
        "AESMIE",
        "EPOCH",
        "AESTDTC",
        "AEENDTC",
        "AESTDY",
        "AEENDY",
        "AEENRF"
      ]
    },
    "CM": {
      "record_count": 675,
      "variable_count": 17,
      "file": "cm.csv",
      "variables": [
        "STUDYID",
        "DOMAIN",
        "USUBJID",
        "CMSEQ",
        "CMTRT",
        "CMDECOD",
        "CMCAT",
        "CMINDC",
        "CMDOSE",
        "CMDOSU",
        "CMDOSFRQ",
        "CMROUTE",
        "EPOCH",
        "CMSTDTC",
        "CMENDTC",
        "CMSTDY",
        "CMENDY"
      ]
    },
    "DA": {
      "record_count": 4329,
      "variable_count": 16,
      "file": "da.csv",
      "variables": [
        "STUDYID",
        "DOMAIN",
        "USUBJID",
        "DASEQ",
        "DATESTCD",
        "DATEST",
        "DAORRES",
        "DAORRESU",
        "DASTRESC",
        "DASTRESN",
        "DASTRESU",
        "VISITNUM",
        "VISIT",
        "EPOCH",
        "DADTC",
        "DADY"
      ]
    },
    "DM": {
      "record_count": 500,
      "variable_count": 27,
      "file": "dm.csv",
      "variables": [
        "STUDYID",
        "DOMAIN",
        "USUBJID",
        "SUBJID",
        "RFSTDTC",
        "RFENDTC",
        "RFXSTDTC",
        "RFXENDTC",
        "RFICDTC",
        "RFPENDTC",
        "DTHDTC",
        "DTHFL",
        "SITEID",
        "INVNAM",
        "BRTHDTC",
        "AGE",
        "AGEU",
        "SEX",
        "RACE",
        "ETHNIC",
        "ARMCD",
        "ARM",
        "ACTARMCD",
        "ACTARM",
        "ARMNRS",
        "ACTARMUD",
        "COUNTRY"
      ]
    },
    "DS": {
      "record_count": 1460,
      "variable_count": 10,
      "file": "ds.csv",
      "variables": [
        "STUDYID",
        "DOMAIN",
        "USUBJID",
        "DSSEQ",
        "DSTERM",
        "DSDECOD",
        "DSCAT",
        "EPOCH",
        "DSSTDTC",
        "DSSTDY"
      ]
    },
    "DV": {
      "record_count": 429,
      "variable_count": 11,
      "file": "dv.csv",
      "variables": [
        "STUDYID",
        "DOMAIN",
        "USUBJID",
        "DVSEQ",
        "DVTERM",
        "DVDECOD",
        "DVCAT",
        "DVSCAT",
        "EPOCH",
        "DVSTDTC",
        "DVSTDY"
      ]
    },
    "EC": {
      "record_count": 2886,
      "variable_count": 23,
      "file": "ec.csv",
      "variables": [
        "STUDYID",
        "DOMAIN",
        "USUBJID",
        "ECSEQ",
        "ECTRT",
        "ECPRESP",
        "ECOCCUR",
        "ECDOSE",
        "ECDOSTXT",
        "ECDOSU",
        "ECDOSFRM",
        "ECDOSFRQ",
        "ECROUTE",
        "ECMOOD",
        "ECSTAT",
        "ECREASND",
        "EPOCH",
        "ECSTDTC",
        "ECENDTC",
        "ECSTDY",
        "ECENDY",
        "VISITNUM",
        "VISIT"
      ]
    },
    "EX": {
      "record_count": 467,
      "variable_count": 15,
      "file": "ex.csv",
      "variables": [
        "STUDYID",
        "DOMAIN",
        "USUBJID",
        "EXSEQ",
        "EXTRT",
        "EXDOSE",
        "EXDOSU",
        "EXDOSFRM",
        "EXDOSFRQ",
        "EXROUTE",
        "EPOCH",
        "EXSTDTC",
        "EXENDTC",
        "EXSTDY",
        "EXENDY"
      ]
    },
    "HO": {
      "record_count": 13,
      "variable_count": 12,
      "file": "ho.csv",
      "variables": [
        "STUDYID",
        "DOMAIN",
        "USUBJID",
        "HOSEQ",
        "HOTERM",
        "HODECOD",
        "HOCAT",
        "EPOCH",
        "HOSTDTC",
        "HOENDTC",
        "HOSTDY",
        "HOENDY"
      ]
    },
    "IE": {
      "record_count": 40,
      "variable_count": 14,
      "file": "ie.csv",
      "variables": [
        "STUDYID",
        "DOMAIN",
        "USUBJID",
        "IESEQ",
        "IETESTCD",
        "IETEST",
        "IECAT",
        "IEORRES",
        "IESTRESC",
        "VISITNUM",
        "VISIT",
        "EPOCH",
        "IEDTC",
        "IEDY"
      ]
    },
    "LB": {
      "record_count": 12446,
      "variable_count": 25,
      "file": "lb.csv",
      "variables": [
        "STUDYID",
        "DOMAIN",
        "USUBJID",
        "LBSEQ",
        "LBTESTCD",
        "LBTEST",
        "LBCAT",
        "LBORRES",
        "LBORRESU",
        "LBORNRLO",
        "LBORNRHI",
        "LBSTRESC",
        "LBSTRESN",
        "LBSTRESU",
        "LBSTNRLO",
        "LBSTNRHI",
        "LBNRIND",
        "LBSTAT",
        "LBLOBXFL",
        "LBBLFL",
        "VISITNUM",
        "VISIT",
        "EPOCH",
        "LBDTC",
        "LBDY"
      ]
    },
    "MH": {
      "record_count": 1213,
      "variable_count": 15,
      "file": "mh.csv",
      "variables": [
        "STUDYID",
        "DOMAIN",
        "USUBJID",
        "MHSEQ",
        "MHTERM",
        "MHDECOD",
        "MHCAT",
        "MHSCAT",
        "MHBODSYS",
        "EPOCH",
        "MHSTDTC",
        "MHENDTC",
        "MHSTDY",
        "MHENDY",
        "MHENRF"
      ]
    },
    "PE": {
      "record_count": 9200,
      "variable_count": 13,
      "file": "pe.csv",
      "variables": [
        "STUDYID",
        "DOMAIN",
        "USUBJID",
        "PESEQ",
        "PETESTCD",
        "PETEST",
        "PEORRES",
        "PESTRESC",
        "VISITNUM",
        "VISIT",
        "EPOCH",
        "PEDTC",
        "PEDY"
      ]
    },
    "RELREC": {
      "record_count": 50,
      "variable_count": 7,
      "file": "relrec.csv",
      "variables": [
        "STUDYID",
        "RDOMAIN",
        "USUBJID",
        "IDVAR",
        "IDVARVAL",
        "RELTYPE",
        "RELID"
      ]
    },
    "SC": {
      "record_count": 1995,
      "variable_count": 13,
      "file": "sc.csv",
      "variables": [
        "STUDYID",
        "DOMAIN",
        "USUBJID",
        "SCSEQ",
        "SCTESTCD",
        "SCTEST",
        "SCCAT",
        "SCORRES",
        "SCSTRESC",
        "SCSTRESN",
        "SCSTRESU",
        "SCDTC",
        "SCDY"
      ]
    },
    "SE": {
      "record_count": 1316,
      "variable_count": 11,
      "file": "se.csv",
      "variables": [
        "STUDYID",
        "DOMAIN",
        "USUBJID",
        "SESEQ",
        "ETCD",
        "ELEMENT",
        "EPOCH",
        "SESTDTC",
        "SEENDTC",
        "SESTDY",
        "SEENDY"
      ]
    },
    "SS": {
      "record_count": 780,
      "variable_count": 14,
      "file": "ss.csv",
      "variables": [
        "STUDYID",
        "DOMAIN",
        "USUBJID",
        "SSSEQ",
        "SSTESTCD",
        "SSTEST",
        "SSCAT",
        "SSORRES",
        "SSSTRESC",
        "VISITNUM",
        "VISIT",
        "EPOCH",
        "SSDTC",
        "SSDY"
      ]
    },
    "SU": {
      "record_count": 1380,
      "variable_count": 18,
      "file": "su.csv",
      "variables": [
        "STUDYID",
        "DOMAIN",
        "USUBJID",
        "SUSEQ",
        "SUTRT",
        "SUDECOD",
        "SUCAT",
        "SUSCAT",
        "SUOCCUR",
        "SUSTAT",
        "SUDOSE",
        "SUDOSU",
        "SUDOSFRQ",
        "EPOCH",
        "SUSTDTC",
        "SUENDTC",
        "SUSTDY",
        "SUENDY"
      ]
    },
    "SUPPAE": {
      "record_count": 73,
      "variable_count": 10,
      "file": "suppae.csv",
      "variables": [
        "STUDYID",
        "RDOMAIN",
        "USUBJID",
        "IDVAR",
        "IDVARVAL",
        "QNAM",
        "QLABEL",
        "QVAL",
        "QORIG",
        "QEVAL"
      ]
    },
    "SV": {
      "record_count": 1979,
      "variable_count": 13,
      "file": "sv.csv",
      "variables": [
        "STUDYID",
        "DOMAIN",
        "USUBJID",
        "SVSEQ",
        "VISITNUM",
        "VISIT",
        "SVPRESP",
        "SVOCCUR",
        "EPOCH",
        "SVSTDTC",
        "SVENDTC",
        "SVSTDY",
        "SVENDY"
      ]
    },
    "TA": {
      "record_count": 6,
      "variable_count": 10,
      "file": "ta.csv",
      "variables": [
        "STUDYID",
        "DOMAIN",
        "ARMCD",
        "ARM",
        "TAETORD",
        "ETCD",
        "ELEMENT",
        "TABRANCH",
        "TATRANS",
        "EPOCH"
      ]
    },
    "TE": {
      "record_count": 3,
      "variable_count": 7,
      "file": "te.csv",
      "variables": [
        "STUDYID",
        "DOMAIN",
        "ETCD",
        "ELEMENT",
        "TESTRL",
        "TEENRL",
        "TEDUR"
      ]
    },
    "TI": {
      "record_count": 10,
      "variable_count": 8,
      "file": "ti.csv",
      "variables": [
        "STUDYID",
        "DOMAIN",
        "IETESTCD",
        "IETEST",
        "IECAT",
        "IESCAT",
        "TIRL",
        "TIVERS"
      ]
    },
    "TS": {
      "record_count": 45,
      "variable_count": 11,
      "file": "ts.csv",
      "variables": [
        "STUDYID",
        "DOMAIN",
        "TSSEQ",
        "TSGRPID",
        "TSPARMCD",
        "TSPARM",
        "TSVAL",
        "TSVALNF",
        "TSVALCD",
        "TSVCDREF",
        "TSVCDVER"
      ]
    },
    "TV": {
      "record_count": 10,
      "variable_count": 9,
      "file": "tv.csv",
      "variables": [
        "STUDYID",
        "DOMAIN",
        "VISITNUM",
        "VISIT",
        "VISITDY",
        "ARMCD",
        "ARM",
        "TVSTRL",
        "TVENRL"
      ]
    },
    "VS": {
      "record_count": 14291,
      "variable_count": 19,
      "file": "vs.csv",
      "variables": [
        "STUDYID",
        "DOMAIN",
        "USUBJID",
        "VSSEQ",
        "VSTESTCD",
        "VSTEST",
        "VSORRES",
        "VSORRESU",
        "VSSTRESC",
        "VSSTRESN",
        "VSSTRESU",
        "VSSTAT",
        "VSLOBXFL",
        "VSBLFL",
        "VISITNUM",
        "VISIT",
        "EPOCH",
        "VSDTC",
        "VSDY"
      ]
    }
  },
  "disposition_flow": {
    "nodes": [
      "SCREENED",
      "ENROLLED",
      "SCREEN FAILURE",
      "COMPLETED",
      "PHYSICIAN DECISION",
      "WITHDRAWAL BY SUBJECT",
      "ADVERSE EVENT",
      "LOST TO FOLLOW-UP",
      "PROTOCOL VIOLATION"
    ],
    "links": [
      {
        "source": "SCREENED",
        "target": "ENROLLED",
        "value": 460
      },
      {
        "source": "SCREENED",
        "target": "SCREEN FAILURE",
        "value": 40
      },
      {
        "source": "ENROLLED",
        "target": "COMPLETED",
        "value": 388
      },
      {
        "source": "ENROLLED",
        "target": "PHYSICIAN DECISION",
        "value": 19
      },
      {
        "source": "ENROLLED",
        "target": "WITHDRAWAL BY SUBJECT",
        "value": 18
      },
      {
        "source": "ENROLLED",
        "target": "ADVERSE EVENT",
        "value": 14
      },
      {
        "source": "ENROLLED",
        "target": "LOST TO FOLLOW-UP",
        "value": 12
      },
      {
        "source": "ENROLLED",
        "target": "PROTOCOL VIOLATION",
        "value": 9
      }
    ]
  },
  "config_snapshot": {
    "study_id": "COVID-THER-301",
    "phase": "3",
    "n_subjects_default": 1000,
    "demographics": {
      "age_min": 18,
      "age_max": 75,
      "sex_distribution": {
        "M": 0.5,
        "F": 0.5
      },
      "race_distribution": {
        "WHITE": 0.65,
        "BLACK OR AFRICAN AMERICAN": 0.15,
        "ASIAN": 0.1,
        "OTHER": 0.1
      }
    },
    "enabled_domains": []
  }
}