{"subject_id":"EMPEROR-HFPEF-SITE001-0025","study_id":"EMPEROR-HFPEF","generated_at":"2026-06-16T10:19:31.925170+00:00","sdtmig_version":"3.4","flags":{"has_serious_ae":true,"has_fatal_ae":false,"has_protocol_deviation":true,"n_protocol_deviations":10,"n_adverse_events":9,"n_concomitant_meds":6,"max_ae_severity":"SEVERE","screen_failure":false,"discontinued_early":false,"discontinuation_reason":null,"death":false,"exposure_days":281},"timeline":[{"dtc":"2024-01-17","dy":"-21","event":"INFORMED CONSENT OBTAINED","domain":"DS","category":"milestone"},{"dtc":"2024-01-24","dy":"-14","event":"VISIT: SCREENING","domain":"SV","category":"visit"},{"dtc":"2024-02-07","dy":"1","event":"RANDOMIZED","domain":"DS","category":"milestone"},{"dtc":"2024-02-07","dy":"1","event":"FIRST DOSE: EMPAGLIFLOZIN","domain":"EX","category":"exposure"},{"dtc":"2024-02-07","dy":"1","event":"VISIT: RANDOMIZATION","domain":"SV","category":"visit"},{"dtc":"2024-02-09","dy":"3","event":"DEVIATION: MISSED DOSE","domain":"DV","category":"deviation"},{"dtc":"2024-02-18","dy":"12","event":"DEVIATION: MISSED DOSE","domain":"DV","category":"deviation"},{"dtc":"2024-02-26","dy":"20","event":"DEVIATION: MISSED DOSE","domain":"DV","category":"deviation"},{"dtc":"2024-03-05","dy":"28","event":"DEVIATION: VISIT OCCURRED OUTSIDE VISIT WINDOW","domain":"DV","category":"deviation"},{"dtc":"2024-03-05","dy":"28","event":"VISIT: WEEK 4","domain":"SV","category":"visit"},{"dtc":"2024-04-26","dy":"80","event":"VISIT: WEEK 12","domain":"SV","category":"visit"},{"dtc":"2024-05-09","dy":"93","event":"AE: Dehydration (MODERATE)","domain":"AE","category":"adverse_event"},{"dtc":"2024-05-09","dy":"93","event":"CM START: ORAL REHYDRATION SALTS","domain":"CM","category":"concomitant_med"},{"dtc":"2024-05-18","dy":"102","event":"DEVIATION: MISSED DOSE","domain":"DV","category":"deviation"},{"dtc":"2024-05-22","dy":"106","event":"DEVIATION: MISSED DOSE","domain":"DV","category":"deviation"},{"dtc":"2024-06-02","dy":"117","event":"AE: Atrial fibrillation (MODERATE)","domain":"AE","category":"adverse_event"},{"dtc":"2024-06-02","dy":"117","event":"CM START: PARACETAMOL","domain":"CM","category":"concomitant_med"},{"dtc":"2024-06-06","dy":"121","event":"AE: Dizziness (SEVERE) [SERIOUS]","domain":"AE","category":"adverse_event"},{"dtc":"2024-06-06","dy":"121","event":"CM START: MECLIZINE","domain":"CM","category":"concomitant_med"},{"dtc":"2024-06-07","dy":"122","event":"AE: Dizziness (MODERATE)","domain":"AE","category":"adverse_event"},{"dtc":"2024-06-07","dy":"122","event":"CM START: MECLIZINE","domain":"CM","category":"concomitant_med"},{"dtc":"2024-07-19","dy":"164","event":"AE: Fatigue (MILD)","domain":"AE","category":"adverse_event"},{"dtc":"2024-07-28","dy":"173","event":"VISIT: WEEK 24","domain":"SV","category":"visit"},{"dtc":"2024-08-12","dy":"188","event":"CM START: ASPIRIN","domain":"CM","category":"concomitant_med"},{"dtc":"2024-08-14","dy":"190","event":"DEVIATION: MISSED DOSE","domain":"DV","category":"deviation"},{"dtc":"2024-08-25","dy":"201","event":"DEVIATION: MISSED DOSE","domain":"DV","category":"deviation"},{"dtc":"2024-08-28","dy":"204","event":"AE: Fatigue (MILD)","domain":"AE","category":"adverse_event"},{"dtc":"2024-09-12","dy":"219","event":"DEVIATION: MISSED DOSE","domain":"DV","category":"deviation"},{"dtc":"2024-10-01","dy":"238","event":"DEVIATION: MISSED DOSE","domain":"DV","category":"deviation"},{"dtc":"2024-10-09","dy":"246","event":"AE: Urinary tract infection (MILD)","domain":"AE","category":"adverse_event"},{"dtc":"2024-10-09","dy":"246","event":"VISIT: WEEK 36","domain":"SV","category":"visit"},{"dtc":"2024-10-09","dy":"246","event":"CM START: TRIMETHOPRIM","domain":"CM","category":"concomitant_med"},{"dtc":"2024-11-14","dy":"282","event":"LAST DOSE: EMPAGLIFLOZIN","domain":"EX","category":"exposure"},{"dtc":"2025-01-08","dy":"337","event":"AE: Atrial fibrillation (MILD)","domain":"AE","category":"adverse_event"},{"dtc":"2025-01-15","dy":"344","event":"AE: Blood creatinine increased (MILD)","domain":"AE","category":"adverse_event"},{"dtc":"2025-01-31","dy":"360","event":"VISIT: WEEK 52","domain":"SV","category":"visit"},{"dtc":"2025-03-03","dy":"391","event":"VISIT: FOLLOW-UP","domain":"SV","category":"visit"},{"dtc":"2025-03-20","dy":"408","event":"COMPLETED","domain":"DS","category":"milestone"}],"section_1_demographics":{"usubjid":"EMPEROR-HFPEF-SITE001-0025","subjid":"0025","siteid":"SITE001","age":"38","ageu":"YEARS","sex":"M","race":"WHITE","ethnicity":"NOT HISPANIC OR LATINO","country":"USA","arm":"Empagliflozin 10mg QD","armcd":"EMPA10","actarm":"Empagliflozin 10mg QD","actarmcd":"EMPA10","randomization_date":null,"informed_consent_date":"2024-01-17","reference_start_date":"2024-02-07","reference_end_date":"2025-03-20","screen_failure":false,"death_flag":null,"death_date":null,"subject_characteristics":[{"testcd":"ALCUSE","test":"Alcohol Use","orres":"CURRENT DRINKER","stresc":"CURRENT DRINKER","visit":null,"dtc":"2024-01-17"},{"testcd":"BMI","test":"Body Mass Index","orres":"28.5","stresc":"28.5","visit":null,"dtc":"2024-01-17"},{"testcd":"DURDIS","test":"Duration of Disease","orres":"97 months","stresc":"97","visit":null,"dtc":"2024-01-17"},{"testcd":"TOBUSE","test":"Tobacco Use","orres":"NEVER SMOKED","stresc":"NEVER SMOKED","visit":null,"dtc":"2024-01-17"}]},"section_2_medical_history":{"items":[{"seq":"1","term":"GASTROESOPHAGEAL REFLUX DISEASE","decod":"GASTROESOPHAGEAL REFLUX DISEASE","cat":"GASTROINTESTINAL","scat":null,"presp":null,"occur":null,"status":null,"onset_dtc":"2016-01-19","end_dtc":"2023-11-29","visit":null}]},"section_3_inclusion_exclusion":{"criteria":[]},"section_4_trial_participation":{"visits":[{"visitnum":"1.0","visit":"SCREENING","start_dtc":"2024-01-24","end_dtc":"2024-01-24","updes":null},{"visitnum":"2.0","visit":"RANDOMIZATION","start_dtc":"2024-02-07","end_dtc":"2024-02-07","updes":null},{"visitnum":"3.0","visit":"WEEK 4","start_dtc":"2024-03-05","end_dtc":"2024-03-05","updes":null},{"visitnum":"4.0","visit":"WEEK 12","start_dtc":"2024-04-26","end_dtc":"2024-04-26","updes":null},{"visitnum":"5.0","visit":"WEEK 24","start_dtc":"2024-07-28","end_dtc":"2024-07-28","updes":null},{"visitnum":"6.0","visit":"WEEK 36","start_dtc":"2024-10-09","end_dtc":"2024-10-09","updes":null},{"visitnum":"7.0","visit":"WEEK 52","start_dtc":"2025-01-31","end_dtc":"2025-01-31","updes":null},{"visitnum":"8.0","visit":"FOLLOW-UP","start_dtc":"2025-03-03","end_dtc":"2025-03-03","updes":null}],"epochs":[{"seq":"1","etcd":"SCRN","element":"Screening","start_dtc":"2024-01-24","end_dtc":"2024-02-07","updes":null},{"seq":"2","etcd":"TRT","element":"Treatment","start_dtc":"2024-02-07","end_dtc":"2025-02-05","updes":null},{"seq":"3","etcd":"FU","element":"Follow-up","start_dtc":"2025-02-05","end_dtc":"2025-03-06","updes":null}],"visit_count":8},"section_5_concomitant_medications":{"medications":[{"seq":"1","trt":"ORAL REHYDRATION SALTS","decod":"ORAL REHYDRATION SALTS","cat":"CONCOMITANT","dose":null,"doseu":null,"dosef":"PRN","route":"ORAL","indication":"DEHYDRATION","start_dtc":"2024-05-09","end_dtc":"2024-06-06","ongoing":null,"visit":null},{"seq":"2","trt":"PARACETAMOL","decod":"PARACETAMOL","cat":"CONCOMITANT","dose":"500","doseu":null,"dosef":"PRN","route":"ORAL","indication":"ATRIAL FIBRILLATION","start_dtc":"2024-06-02","end_dtc":"2024-06-06","ongoing":null,"visit":null},{"seq":"3","trt":"MECLIZINE","decod":"MECLIZINE","cat":"CONCOMITANT","dose":"25","doseu":null,"dosef":"PRN","route":"ORAL","indication":"DIZZINESS","start_dtc":"2024-06-06","end_dtc":"2024-06-28","ongoing":null,"visit":null},{"seq":"4","trt":"MECLIZINE","decod":"MECLIZINE","cat":"CONCOMITANT","dose":"25","doseu":null,"dosef":"PRN","route":"ORAL","indication":"DIZZINESS","start_dtc":"2024-06-07","end_dtc":"2024-06-25","ongoing":null,"visit":null},{"seq":"5","trt":"ASPIRIN","decod":"ASPIRIN","cat":"CONCOMITANT","dose":null,"doseu":null,"dosef":"QD","route":"ORAL","indication":null,"start_dtc":"2024-08-12","end_dtc":"2024-08-31","ongoing":null,"visit":null},{"seq":"6","trt":"TRIMETHOPRIM","decod":"TRIMETHOPRIM","cat":"CONCOMITANT","dose":"200.0","doseu":null,"dosef":"BID","route":"ORAL","indication":"URINARY TRACT INFECTION","start_dtc":"2024-10-09","end_dtc":"2024-11-06","ongoing":null,"visit":null}]},"section_6_exposure":{"exposure_as_administered":[{"seq":"1","trt":"EMPAGLIFLOZIN","dose":"10.0","doseu":null,"dosef":"QD","route":"ORAL","lot":null,"start_dtc":"2024-02-07","end_dtc":"2024-06-06","start_dy":"1","end_dy":"121","epoch":"TREATMENT","visit":null},{"seq":"2","trt":"EMPAGLIFLOZIN","dose":"10.0","doseu":null,"dosef":"QD","route":"ORAL","lot":null,"start_dtc":"2024-06-21","end_dtc":"2024-11-14","start_dy":"136","end_dy":"282","epoch":"TREATMENT","visit":null}],"exposure_as_collected":[{"seq":"1","trt":"EMPAGLIFLOZIN","dose":"10.0","doseu":null,"dosef":"QD","route":"ORAL","start_dtc":"2024-02-07","end_dtc":"2024-02-07","visit":"RANDOMIZATION"},{"seq":"2","trt":"EMPAGLIFLOZIN","dose":"10.0","doseu":null,"dosef":"QD","route":"ORAL","start_dtc":"2024-02-08","end_dtc":"2024-02-08","visit":"RANDOMIZATION"},{"seq":"3","trt":"EMPAGLIFLOZIN","dose":null,"doseu":null,"dosef":"QD","route":"ORAL","start_dtc":"2024-02-09","end_dtc":"2024-02-09","visit":"RANDOMIZATION"},{"seq":"4","trt":"EMPAGLIFLOZIN","dose":"10.0","doseu":null,"dosef":"QD","route":"ORAL","start_dtc":"2024-02-10","end_dtc":"2024-02-10","visit":"RANDOMIZATION"},{"seq":"5","trt":"EMPAGLIFLOZIN","dose":"10.0","doseu":null,"dosef":"QD","route":"ORAL","start_dtc":"2024-02-11","end_dtc":"2024-02-11","visit":null},{"seq":"6","trt":"EMPAGLIFLOZIN","dose":"10.0","doseu":null,"dosef":"QD","route":"ORAL","start_dtc":"2024-02-12","end_dtc":"2024-02-12","visit":null},{"seq":"7","trt":"EMPAGLIFLOZIN","dose":"10.0","doseu":null,"dosef":"QD","route":"ORAL","start_dtc":"2024-02-13","end_dtc":"2024-02-13","visit":null},{"seq":"8","trt":"EMPAGLIFLOZIN","dose":"10.0","doseu":null,"dosef":"QD","route":"ORAL","start_dtc":"2024-02-14","end_dtc":"2024-02-14","visit":null},{"seq":"9","trt":"EMPAGLIFLOZIN","dose":"10.0","doseu":null,"dosef":"QD","route":"ORAL","start_dtc":"2024-02-15","end_dtc":"2024-02-15","visit":null},{"seq":"10","trt":"EMPAGLIFLOZIN","dose":"10.0","doseu":null,"dosef":"QD","route":"ORAL","start_dtc":"2024-02-16","end_dtc":"2024-02-16","visit":null},{"seq":"11","trt":"EMPAGLIFLOZIN","dose":"10.0","doseu":null,"dosef":"QD","route":"ORAL","start_dtc":"2024-02-17","end_dtc":"2024-02-17","visit":null},{"seq":"12","trt":"EMPAGLIFLOZIN","dose":null,"doseu":null,"dosef":"QD","route":"ORAL","start_dtc":"2024-02-18","end_dtc":"2024-02-18","visit":null},{"seq":"13","trt":"EMPAGLIFLOZIN","dose":"10.0","doseu":null,"dosef":"QD","route":"ORAL","start_dtc":"2024-02-19","end_dtc":"2024-02-19","visit":null},{"seq":"14","trt":"EMPAGLIFLOZIN","dose":"10.0","doseu":null,"dosef":"QD","route":"ORAL","start_dtc":"2024-02-20","end_dtc":"2024-02-20","visit":null},{"seq":"15","trt":"EMPAGLIFLOZIN","dose":"10.0","doseu":null,"dosef":"QD","route":"ORAL","start_dtc":"2024-02-21","end_dtc":"2024-02-21","visit":null},{"seq":"16","trt":"EMPAGLIFLOZIN","dose":"10.0","doseu":null,"dosef":"QD","route":"ORAL","start_dtc":"2024-02-22","end_dtc":"2024-02-22","visit":null},{"seq":"17","trt":"EMPAGLIFLOZIN","dose":"10.0","doseu":null,"dosef":"QD","route":"ORAL","start_dtc":"2024-02-23","end_dtc":"2024-02-23","visit":null},{"seq":"18","trt":"EMPAGLIFLOZIN","dose":"10.0","doseu":null,"dosef":"QD","route":"ORAL","start_dtc":"2024-02-24","end_dtc":"2024-02-24","visit":null},{"seq":"19","trt":"EMPAGLIFLOZIN","dose":"10.0","doseu":null,"dosef":"QD","route":"ORAL","start_dtc":"2024-02-25","end_dtc":"2024-02-25","visit":null},{"seq":"20","trt":"EMPAGLIFLOZIN","dose":null,"doseu":null,"dosef":"QD","route":"ORAL","start_dtc":"2024-02-26","end_dtc":"2024-02-26","visit":null},{"seq":"21","trt":"EMPAGLIFLOZIN","dose":"10.0","doseu":null,"dosef":"QD","route":"ORAL","start_dtc":"2024-02-27","end_dtc":"2024-02-27","visit":null},{"seq":"22","trt":"EMPAGLIFLOZIN","dose":"10.0","doseu":null,"dosef":"QD","route":"ORAL","start_dtc":"2024-02-28","end_dtc":"2024-02-28","visit":null},{"seq":"23","trt":"EMPAGLIFLOZIN","dose":"10.0","doseu":null,"dosef":"QD","route":"ORAL","start_dtc":"2024-02-29","end_dtc":"2024-02-29","visit":null},{"seq":"24","trt":"EMPAGLIFLOZIN","dose":"10.0","doseu":null,"dosef":"QD","route":"ORAL","start_dtc":"2024-03-01","end_dtc":"2024-03-01","visit":null},{"seq":"25","trt":"EMPAGLIFLOZIN","dose":"10.0","doseu":null,"dosef":"QD","route":"ORAL","start_dtc":"2024-03-02","end_dtc":"2024-03-02","visit":null},{"seq":"26","trt":"EMPAGLIFLOZIN","dose":"10.0","doseu":null,"dosef":"QD","route":"ORAL","start_dtc":"2024-03-03","end_dtc":"2024-03-03","visit":"WEEK 4"},{"seq":"27","trt":"EMPAGLIFLOZIN","dose":"10.0","doseu":null,"dosef":"QD","route":"ORAL","start_dtc":"2024-03-04","end_dtc":"2024-03-04","visit":"WEEK 4"},{"seq":"28","trt":"EMPAGLIFLOZIN","dose":"10.0","doseu":null,"dosef":"QD","route":"ORAL","start_dtc":"2024-03-05","end_dtc":"2024-03-05","visit":"WEEK 4"},{"seq":"29","trt":"EMPAGLIFLOZIN","dose":"10.0","doseu":null,"dosef":"QD","route":"ORAL","start_dtc":"2024-03-06","end_dtc":"2024-03-06","visit":"WEEK 4"},{"seq":"30","trt":"EMPAGLIFLOZIN","dose":"10.0","doseu":null,"dosef":"QD","route":"ORAL","start_dtc":"2024-03-07","end_dtc":"2024-03-07","visit":"WEEK 4"},{"seq":"31","trt":"EMPAGLIFLOZIN","dose":"10.0","doseu":null,"dosef":"QD","route":"ORAL","start_dtc":"2024-03-08","end_dtc":"2024-03-08","visit":"WEEK 4"},{"seq":"32","trt":"EMPAGLIFLOZIN","dose":"10.0","doseu":null,"dosef":"QD","route":"ORAL","start_dtc":"2024-03-09","end_dtc":"2024-03-09","visit":"WEEK 4"},{"seq":"33","trt":"EMPAGLIFLOZIN","dose":"10.0","doseu":null,"dosef":"QD","route":"ORAL","start_dtc":"2024-03-10","end_dtc":"2024-03-10","visit":null},{"seq":"34","trt":"EMPAGLIFLOZIN","dose":"10.0","doseu":null,"dosef":"QD","route":"ORAL","start_dtc":"2024-03-11","end_dtc":"2024-03-11","visit":null},{"seq":"35","trt":"EMPAGLIFLOZIN","dose":"10.0","doseu":null,"dosef":"QD","route":"ORAL","start_dtc":"2024-03-12","end_dtc":"2024-03-12","visit":null},{"seq":"36","trt":"EMPAGLIFLOZIN","dose":"10.0","doseu":null,"dosef":"QD","route":"ORAL","start_dtc":"2024-03-13","end_dtc":"2024-03-13","visit":null},{"seq":"37","trt":"EMPAGLIFLOZIN","dose":"10.0","doseu":null,"dosef":"QD","route":"ORAL","start_dtc":"2024-03-14","end_dtc":"2024-03-14","visit":null},{"seq":"38","trt":"EMPAGLIFLOZIN","dose":"10.0","doseu":null,"dosef":"QD","route":"ORAL","start_dtc":"2024-03-15","end_dtc":"2024-03-15","visit":null},{"seq":"39","trt":"EMPAGLIFLOZIN","dose":"10.0","doseu":null,"dosef":"QD","route":"ORAL","start_dtc":"2024-03-16","end_dtc":"2024-03-16","visit":null},{"seq":"40","trt":"EMPAGLIFLOZIN","dose":"10.0","doseu":null,"dosef":"QD","route":"ORAL","start_dtc":"2024-03-17","end_dtc":"2024-03-17","visit":null},{"seq":"41","trt":"EMPAGLIFLOZIN","dose":"10.0","doseu":null,"dosef":"QD","route":"ORAL","start_dtc":"2024-03-18","end_dtc":"2024-03-18","visit":null},{"seq":"42","trt":"EMPAGLIFLOZIN","dose":"10.0","doseu":null,"dosef":"QD","route":"ORAL","start_dtc":"2024-03-19","end_dtc":"2024-03-19","visit":null},{"seq":"43","trt":"EMPAGLIFLOZIN","dose":"10.0","doseu":null,"dosef":"QD","route":"ORAL","start_dtc":"2024-03-20","end_dtc":"2024-03-20","visit":null},{"seq":"44","trt":"EMPAGLIFLOZIN","dose":"10.0","doseu":null,"dosef":"QD","route":"ORAL","start_dtc":"2024-03-21","end_dtc":"2024-03-21","visit":null},{"seq":"45","trt":"EMPAGLIFLOZIN","dose":"10.0","doseu":null,"dosef":"QD","route":"ORAL","start_dtc":"2024-03-22","end_dtc":"2024-03-22","visit":null},{"seq":"46","trt":"EMPAGLIFLOZIN","dose":"10.0","doseu":null,"dosef":"QD","route":"ORAL","start_dtc":"2024-03-23","end_dtc":"2024-03-23","visit":null},{"seq":"47","trt":"EMPAGLIFLOZIN","dose":"10.0","doseu":null,"dosef":"QD","route":"ORAL","start_dtc":"2024-03-24","end_dtc":"2024-03-24","visit":null},{"seq":"48","trt":"EMPAGLIFLOZIN","dose":"10.0","doseu":null,"dosef":"QD","route":"ORAL","start_dtc":"2024-03-25","end_dtc":"2024-03-25","visit":null},{"seq":"49","trt":"EMPAGLIFLOZIN","dose":"10.0","doseu":null,"dosef":"QD","route":"ORAL","start_dtc":"2024-03-26","end_dtc":"2024-03-26","visit":null},{"seq":"50","trt":"EMPAGLIFLOZIN","dose":"10.0","doseu":null,"dosef":"QD","route":"ORAL","start_dtc":"2024-03-27","end_dtc":"2024-03-27","visit":null},{"seq":"51","trt":"EMPAGLIFLOZIN","dose":"10.0","doseu":null,"dosef":"QD","route":"ORAL","start_dtc":"2024-03-28","end_dtc":"2024-03-28","visit":null},{"seq":"52","trt":"EMPAGLIFLOZIN","dose":"10.0","doseu":null,"dosef":"QD","route":"ORAL","start_dtc":"2024-03-29","end_dtc":"2024-03-29","visit":null},{"seq":"53","trt":"EMPAGLIFLOZIN","dose":"10.0","doseu":null,"dosef":"QD","route":"ORAL","start_dtc":"2024-03-30","end_dtc":"2024-03-30","visit":null},{"seq":"54","trt":"EMPAGLIFLOZIN","dose":"10.0","doseu":null,"dosef":"QD","route":"ORAL","start_dtc":"2024-03-31","end_dtc":"2024-03-31","visit":null},{"seq":"55","trt":"EMPAGLIFLOZIN","dose":"10.0","doseu":null,"dosef":"QD","route":"ORAL","start_dtc":"2024-04-01","end_dtc":"2024-04-01","visit":null},{"seq":"56","trt":"EMPAGLIFLOZIN","dose":"10.0","doseu":null,"dosef":"QD","route":"ORAL","start_dtc":"2024-04-02","end_dtc":"2024-04-02","visit":null},{"seq":"57","trt":"EMPAGLIFLOZIN","dose":"10.0","doseu":null,"dosef":"QD","route":"ORAL","start_dtc":"2024-04-03","end_dtc":"2024-04-03","visit":null},{"seq":"58","trt":"EMPAGLIFLOZIN","dose":"10.0","doseu":null,"dosef":"QD","route":"ORAL","start_dtc":"2024-04-04","end_dtc":"2024-04-04","visit":null},{"seq":"59","trt":"EMPAGLIFLOZIN","dose":"10.0","doseu":null,"dosef":"QD","route":"ORAL","start_dtc":"2024-04-05","end_dtc":"2024-04-05","visit":null},{"seq":"60","trt":"EMPAGLIFLOZIN","dose":"10.0","doseu":null,"dosef":"QD","route":"ORAL","start_dtc":"2024-04-06","end_dtc":"2024-04-06","visit":null},{"seq":"61","trt":"EMPAGLIFLOZIN","dose":"10.0","doseu":null,"dosef":"QD","route":"ORAL","start_dtc":"2024-04-07","end_dtc":"2024-04-07","visit":null},{"seq":"62","trt":"EMPAGLIFLOZIN","dose":"10.0","doseu":null,"dosef":"QD","route":"ORAL","start_dtc":"2024-04-08","end_dtc":"2024-04-08","visit":null},{"seq":"63","trt":"EMPAGLIFLOZIN","dose":"10.0","doseu":null,"dosef":"QD","route":"ORAL","start_dtc":"2024-04-09","end_dtc":"2024-04-09","visit":null},{"seq":"64","trt":"EMPAGLIFLOZIN","dose":"10.0","doseu":null,"dosef":"QD","route":"ORAL","start_dtc":"2024-04-10","end_dtc":"2024-04-10","visit":null},{"seq":"65","trt":"EMPAGLIFLOZIN","dose":"10.0","doseu":null,"dosef":"QD","route":"ORAL","start_dtc":"2024-04-11","end_dtc":"2024-04-11","visit":null},{"seq":"66","trt":"EMPAGLIFLOZIN","dose":"10.0","doseu":null,"dosef":"QD","route":"ORAL","start_dtc":"2024-04-12","end_dtc":"2024-04-12","visit":null},{"seq":"67","trt":"EMPAGLIFLOZIN","dose":"10.0","doseu":null,"dosef":"QD","route":"ORAL","start_dtc":"2024-04-13","end_dtc":"2024-04-13","visit":null},{"seq":"68","trt":"EMPAGLIFLOZIN","dose":"10.0","doseu":null,"dosef":"QD","route":"ORAL","start_dtc":"2024-04-14","end_dtc":"2024-04-14","visit":null},{"seq":"69","trt":"EMPAGLIFLOZIN","dose":"10.0","doseu":null,"dosef":"QD","route":"ORAL","start_dtc":"2024-04-15","end_dtc":"2024-04-15","visit":null},{"seq":"70","trt":"EMPAGLIFLOZIN","dose":"10.0","doseu":null,"dosef":"QD","route":"ORAL","start_dtc":"2024-04-16","end_dtc":"2024-04-16","visit":null},{"seq":"71","trt":"EMPAGLIFLOZIN","dose":"10.0","doseu":null,"dosef":"QD","route":"ORAL","start_dtc":"2024-04-17","end_dtc":"2024-04-17","visit":null},{"seq":"72","trt":"EMPAGLIFLOZIN","dose":"10.0","doseu":null,"dosef":"QD","route":"ORAL","start_dtc":"2024-04-18","end_dtc":"2024-04-18","visit":null},{"seq":"73","trt":"EMPAGLIFLOZIN","dose":"10.0","doseu":null,"dosef":"QD","route":"ORAL","start_dtc":"2024-04-19","end_dtc":"2024-04-19","visit":null},{"seq":"74","trt":"EMPAGLIFLOZIN","dose":"10.0","doseu":null,"dosef":"QD","route":"ORAL","start_dtc":"2024-04-20","end_dtc":"2024-04-20","visit":null},{"seq":"75","trt":"EMPAGLIFLOZIN","dose":"10.0","doseu":null,"dosef":"QD","route":"ORAL","start_dtc":"2024-04-21","end_dtc":"2024-04-21","visit":null},{"seq":"76","trt":"EMPAGLIFLOZIN","dose":"10.0","doseu":null,"dosef":"QD","route":"ORAL","start_dtc":"2024-04-22","end_dtc":"2024-04-22","visit":null},{"seq":"77","trt":"EMPAGLIFLOZIN","dose":"10.0","doseu":null,"dosef":"QD","route":"ORAL","start_dtc":"2024-04-23","end_dtc":"2024-04-23","visit":null},{"seq":"78","trt":"EMPAGLIFLOZIN","dose":"10.0","doseu":null,"dosef":"QD","route":"ORAL","start_dtc":"2024-04-24","end_dtc":"2024-04-24","visit":null},{"seq":"79","trt":"EMPAGLIFLOZIN","dose":"10.0","doseu":null,"dosef":"QD","route":"ORAL","start_dtc":"2024-04-25","end_dtc":"2024-04-25","visit":null},{"seq":"80","trt":"EMPAGLIFLOZIN","dose":"10.0","doseu":null,"dosef":"QD","route":"ORAL","start_dtc":"2024-04-26","end_dtc":"2024-04-26","visit":null},{"seq":"81","trt":"EMPAGLIFLOZIN","dose":"10.0","doseu":null,"dosef":"QD","route":"ORAL","start_dtc":"2024-04-27","end_dtc":"2024-04-27","visit":null},{"seq":"82","trt":"EMPAGLIFLOZIN","dose":"10.0","doseu":null,"dosef":"QD","route":"ORAL","start_dtc":"2024-04-28","end_dtc":"2024-04-28","visit":"WEEK 12"},{"seq":"83","trt":"EMPAGLIFLOZIN","dose":"10.0","doseu":null,"dosef":"QD","route":"ORAL","start_dtc":"2024-04-29","end_dtc":"2024-04-29","visit":"WEEK 12"},{"seq":"84","trt":"EMPAGLIFLOZIN","dose":"10.0","doseu":null,"dosef":"QD","route":"ORAL","start_dtc":"2024-04-30","end_dtc":"2024-04-30","visit":"WEEK 12"},{"seq":"85","trt":"EMPAGLIFLOZIN","dose":"10.0","doseu":null,"dosef":"QD","route":"ORAL","start_dtc":"2024-05-01","end_dtc":"2024-05-01","visit":"WEEK 12"},{"seq":"86","trt":"EMPAGLIFLOZIN","dose":"10.0","doseu":null,"dosef":"QD","route":"ORAL","start_dtc":"2024-05-02","end_dtc":"2024-05-02","visit":"WEEK 12"},{"seq":"87","trt":"EMPAGLIFLOZIN","dose":"10.0","doseu":null,"dosef":"QD","route":"ORAL","start_dtc":"2024-05-03","end_dtc":"2024-05-03","visit":"WEEK 12"},{"seq":"88","trt":"EMPAGLIFLOZIN","dose":"10.0","doseu":null,"dosef":"QD","route":"ORAL","start_dtc":"2024-05-04","end_dtc":"2024-05-04","visit":"WEEK 12"},{"seq":"89","trt":"EMPAGLIFLOZIN","dose":"10.0","doseu":null,"dosef":"QD","route":"ORAL","start_dtc":"2024-05-05","end_dtc":"2024-05-05","visit":null},{"seq":"90","trt":"EMPAGLIFLOZIN","dose":"10.0","doseu":null,"dosef":"QD","route":"ORAL","start_dtc":"2024-05-06","end_dtc":"2024-05-06","visit":null},{"seq":"91","trt":"EMPAGLIFLOZIN","dose":"10.0","doseu":null,"dosef":"QD","route":"ORAL","start_dtc":"2024-05-07","end_dtc":"2024-05-07","visit":null},{"seq":"92","trt":"EMPAGLIFLOZIN","dose":"10.0","doseu":null,"dosef":"QD","route":"ORAL","start_dtc":"2024-05-08","end_dtc":"2024-05-08","visit":null},{"seq":"93","trt":"EMPAGLIFLOZIN","dose":"10.0","doseu":null,"dosef":"QD","route":"ORAL","start_dtc":"2024-05-09","end_dtc":"2024-05-09","visit":null},{"seq":"94","trt":"EMPAGLIFLOZIN","dose":"10.0","doseu":null,"dosef":"QD","route":"ORAL","start_dtc":"2024-05-10","end_dtc":"2024-05-10","visit":null},{"seq":"95","trt":"EMPAGLIFLOZIN","dose":null,"doseu":null,"dosef":"QD","route":"ORAL","start_dtc":"2024-05-11","end_dtc":"2024-05-11","visit":null},{"seq":"96","trt":"EMPAGLIFLOZIN","dose":"10.0","doseu":null,"dosef":"QD","route":"ORAL","start_dtc":"2024-05-12","end_dtc":"2024-05-12","visit":null},{"seq":"97","trt":"EMPAGLIFLOZIN","dose":"10.0","doseu":null,"dosef":"QD","route":"ORAL","start_dtc":"2024-05-13","end_dtc":"2024-05-13","visit":null},{"seq":"98","trt":"EMPAGLIFLOZIN","dose":"10.0","doseu":null,"dosef":"QD","route":"ORAL","start_dtc":"2024-05-14","end_dtc":"2024-05-14","visit":null},{"seq":"99","trt":"EMPAGLIFLOZIN","dose":"10.0","doseu":null,"dosef":"QD","route":"ORAL","start_dtc":"2024-05-15","end_dtc":"2024-05-15","visit":null},{"seq":"100","trt":"EMPAGLIFLOZIN","dose":"10.0","doseu":null,"dosef":"QD","route":"ORAL","start_dtc":"2024-05-16","end_dtc":"2024-05-16","visit":null},{"seq":"101","trt":"EMPAGLIFLOZIN","dose":"10.0","doseu":null,"dosef":"QD","route":"ORAL","start_dtc":"2024-05-17","end_dtc":"2024-05-17","visit":null},{"seq":"102","trt":"EMPAGLIFLOZIN","dose":null,"doseu":null,"dosef":"QD","route":"ORAL","start_dtc":"2024-05-18","end_dtc":"2024-05-18","visit":null},{"seq":"103","trt":"EMPAGLIFLOZIN","dose":"10.0","doseu":null,"dosef":"QD","route":"ORAL","start_dtc":"2024-05-19","end_dtc":"2024-05-19","visit":null},{"seq":"104","trt":"EMPAGLIFLOZIN","dose":"10.0","doseu":null,"dosef":"QD","route":"ORAL","start_dtc":"2024-05-20","end_dtc":"2024-05-20","visit":null},{"seq":"105","trt":"EMPAGLIFLOZIN","dose":"10.0","doseu":null,"dosef":"QD","route":"ORAL","start_dtc":"2024-05-21","end_dtc":"2024-05-21","visit":null},{"seq":"106","trt":"EMPAGLIFLOZIN","dose":null,"doseu":null,"dosef":"QD","route":"ORAL","start_dtc":"2024-05-22","end_dtc":"2024-05-22","visit":null},{"seq":"107","trt":"EMPAGLIFLOZIN","dose":"10.0","doseu":null,"dosef":"QD","route":"ORAL","start_dtc":"2024-05-23","end_dtc":"2024-05-23","visit":null},{"seq":"108","trt":"EMPAGLIFLOZIN","dose":"10.0","doseu":null,"dosef":"QD","route":"ORAL","start_dtc":"2024-05-24","end_dtc":"2024-05-24","visit":null},{"seq":"109","trt":"EMPAGLIFLOZIN","dose":"10.0","doseu":null,"dosef":"QD","route":"ORAL","start_dtc":"2024-05-25","end_dtc":"2024-05-25","visit":null},{"seq":"110","trt":"EMPAGLIFLOZIN","dose":"10.0","doseu":null,"dosef":"QD","route":"ORAL","start_dtc":"2024-05-26","end_dtc":"2024-05-26","visit":null},{"seq":"111","trt":"EMPAGLIFLOZIN","dose":"10.0","doseu":null,"dosef":"QD","route":"ORAL","start_dtc":"2024-05-27","end_dtc":"2024-05-27","visit":null},{"seq":"112","trt":"EMPAGLIFLOZIN","dose":"10.0","doseu":null,"dosef":"QD","route":"ORAL","start_dtc":"2024-05-28","end_dtc":"2024-05-28","visit":null},{"seq":"113","trt":"EMPAGLIFLOZIN","dose":"10.0","doseu":null,"dosef":"QD","route":"ORAL","start_dtc":"2024-05-29","end_dtc":"2024-05-29","visit":null},{"seq":"114","trt":"EMPAGLIFLOZIN","dose":"10.0","doseu":null,"dosef":"QD","route":"ORAL","start_dtc":"2024-05-30","end_dtc":"2024-05-30","visit":null},{"seq":"115","trt":"EMPAGLIFLOZIN","dose":"10.0","doseu":null,"dosef":"QD","route":"ORAL","start_dtc":"2024-05-31","end_dtc":"2024-05-31","visit":null},{"seq":"116","trt":"EMPAGLIFLOZIN","dose":"10.0","doseu":null,"dosef":"QD","route":"ORAL","start_dtc":"2024-06-01","end_dtc":"2024-06-01","visit":null},{"seq":"117","trt":"EMPAGLIFLOZIN","dose":"10.0","doseu":null,"dosef":"QD","route":"ORAL","start_dtc":"2024-06-02","end_dtc":"2024-06-02","visit":null},{"seq":"118","trt":"EMPAGLIFLOZIN","dose":"10.0","doseu":null,"dosef":"QD","route":"ORAL","start_dtc":"2024-06-03","end_dtc":"2024-06-03","visit":null},{"seq":"119","trt":"EMPAGLIFLOZIN","dose":"10.0","doseu":null,"dosef":"QD","route":"ORAL","start_dtc":"2024-06-04","end_dtc":"2024-06-04","visit":null},{"seq":"120","trt":"EMPAGLIFLOZIN","dose":"10.0","doseu":null,"dosef":"QD","route":"ORAL","start_dtc":"2024-06-05","end_dtc":"2024-06-05","visit":null},{"seq":"121","trt":"EMPAGLIFLOZIN","dose":"10.0","doseu":null,"dosef":"QD","route":"ORAL","start_dtc":"2024-06-06","end_dtc":"2024-06-06","visit":null},{"seq":"122","trt":"EMPAGLIFLOZIN","dose":"10.0","doseu":null,"dosef":"QD","route":"ORAL","start_dtc":"2024-06-21","end_dtc":"2024-06-21","visit":null},{"seq":"123","trt":"EMPAGLIFLOZIN","dose":"10.0","doseu":null,"dosef":"QD","route":"ORAL","start_dtc":"2024-06-22","end_dtc":"2024-06-22","visit":null},{"seq":"124","trt":"EMPAGLIFLOZIN","dose":"10.0","doseu":null,"dosef":"QD","route":"ORAL","start_dtc":"2024-06-23","end_dtc":"2024-06-23","visit":null},{"seq":"125","trt":"EMPAGLIFLOZIN","dose":"10.0","doseu":null,"dosef":"QD","route":"ORAL","start_dtc":"2024-06-24","end_dtc":"2024-06-24","visit":null},{"seq":"126","trt":"EMPAGLIFLOZIN","dose":"10.0","doseu":null,"dosef":"QD","route":"ORAL","start_dtc":"2024-06-25","end_dtc":"2024-06-25","visit":null},{"seq":"127","trt":"EMPAGLIFLOZIN","dose":"10.0","doseu":null,"dosef":"QD","route":"ORAL","start_dtc":"2024-06-26","end_dtc":"2024-06-26","visit":null},{"seq":"128","trt":"EMPAGLIFLOZIN","dose":"10.0","doseu":null,"dosef":"QD","route":"ORAL","start_dtc":"2024-06-27","end_dtc":"2024-06-27","visit":null},{"seq":"129","trt":"EMPAGLIFLOZIN","dose":"10.0","doseu":null,"dosef":"QD","route":"ORAL","start_dtc":"2024-06-28","end_dtc":"2024-06-28","visit":null},{"seq":"130","trt":"EMPAGLIFLOZIN","dose":"10.0","doseu":null,"dosef":"QD","route":"ORAL","start_dtc":"2024-06-29","end_dtc":"2024-06-29","visit":null},{"seq":"131","trt":"EMPAGLIFLOZIN","dose":"10.0","doseu":null,"dosef":"QD","route":"ORAL","start_dtc":"2024-06-30","end_dtc":"2024-06-30","visit":null},{"seq":"132","trt":"EMPAGLIFLOZIN","dose":"10.0","doseu":null,"dosef":"QD","route":"ORAL","start_dtc":"2024-07-01","end_dtc":"2024-07-01","visit":null},{"seq":"133","trt":"EMPAGLIFLOZIN","dose":"10.0","doseu":null,"dosef":"QD","route":"ORAL","start_dtc":"2024-07-02","end_dtc":"2024-07-02","visit":null},{"seq":"134","trt":"EMPAGLIFLOZIN","dose":"10.0","doseu":null,"dosef":"QD","route":"ORAL","start_dtc":"2024-07-03","end_dtc":"2024-07-03","visit":null},{"seq":"135","trt":"EMPAGLIFLOZIN","dose":"10.0","doseu":null,"dosef":"QD","route":"ORAL","start_dtc":"2024-07-04","end_dtc":"2024-07-04","visit":null},{"seq":"136","trt":"EMPAGLIFLOZIN","dose":"10.0","doseu":null,"dosef":"QD","route":"ORAL","start_dtc":"2024-07-05","end_dtc":"2024-07-05","visit":null},{"seq":"137","trt":"EMPAGLIFLOZIN","dose":"10.0","doseu":null,"dosef":"QD","route":"ORAL","start_dtc":"2024-07-06","end_dtc":"2024-07-06","visit":null},{"seq":"138","trt":"EMPAGLIFLOZIN","dose":"10.0","doseu":null,"dosef":"QD","route":"ORAL","start_dtc":"2024-07-07","end_dtc":"2024-07-07","visit":null},{"seq":"139","trt":"EMPAGLIFLOZIN","dose":"10.0","doseu":null,"dosef":"QD","route":"ORAL","start_dtc":"2024-07-08","end_dtc":"2024-07-08","visit":null},{"seq":"140","trt":"EMPAGLIFLOZIN","dose":"10.0","doseu":null,"dosef":"QD","route":"ORAL","start_dtc":"2024-07-09","end_dtc":"2024-07-09","visit":null},{"seq":"141","trt":"EMPAGLIFLOZIN","dose":"10.0","doseu":null,"dosef":"QD","route":"ORAL","start_dtc":"2024-07-10","end_dtc":"2024-07-10","visit":null},{"seq":"142","trt":"EMPAGLIFLOZIN","dose":"10.0","doseu":null,"dosef":"QD","route":"ORAL","start_dtc":"2024-07-11","end_dtc":"2024-07-11","visit":null},{"seq":"143","trt":"EMPAGLIFLOZIN","dose":"10.0","doseu":null,"dosef":"QD","route":"ORAL","start_dtc":"2024-07-12","end_dtc":"2024-07-12","visit":null},{"seq":"144","trt":"EMPAGLIFLOZIN","dose":"10.0","doseu":null,"dosef":"QD","route":"ORAL","start_dtc":"2024-07-13","end_dtc":"2024-07-13","visit":null},{"seq":"145","trt":"EMPAGLIFLOZIN","dose":"10.0","doseu":null,"dosef":"QD","route":"ORAL","start_dtc":"2024-07-14","end_dtc":"2024-07-14","visit":null},{"seq":"146","trt":"EMPAGLIFLOZIN","dose":"10.0","doseu":null,"dosef":"QD","route":"ORAL","start_dtc":"2024-07-15","end_dtc":"2024-07-15","visit":null},{"seq":"147","trt":"EMPAGLIFLOZIN","dose":"10.0","doseu":null,"dosef":"QD","route":"ORAL","start_dtc":"2024-07-16","end_dtc":"2024-07-16","visit":null},{"seq":"148","trt":"EMPAGLIFLOZIN","dose":"10.0","doseu":null,"dosef":"QD","route":"ORAL","start_dtc":"2024-07-17","end_dtc":"2024-07-17","visit":null},{"seq":"149","trt":"EMPAGLIFLOZIN","dose":"10.0","doseu":null,"dosef":"QD","route":"ORAL","start_dtc":"2024-07-18","end_dtc":"2024-07-18","visit":null},{"seq":"150","trt":"EMPAGLIFLOZIN","dose":"10.0","doseu":null,"dosef":"QD","route":"ORAL","start_dtc":"2024-07-19","end_dtc":"2024-07-19","visit":null},{"seq":"151","trt":"EMPAGLIFLOZIN","dose":"10.0","doseu":null,"dosef":"QD","route":"ORAL","start_dtc":"2024-07-20","end_dtc":"2024-07-20","visit":null},{"seq":"152","trt":"EMPAGLIFLOZIN","dose":"10.0","doseu":null,"dosef":"QD","route":"ORAL","start_dtc":"2024-07-21","end_dtc":"2024-07-21","visit":"WEEK 24"},{"seq":"153","trt":"EMPAGLIFLOZIN","dose":"10.0","doseu":null,"dosef":"QD","route":"ORAL","start_dtc":"2024-07-22","end_dtc":"2024-07-22","visit":"WEEK 24"},{"seq":"154","trt":"EMPAGLIFLOZIN","dose":"10.0","doseu":null,"dosef":"QD","route":"ORAL","start_dtc":"2024-07-23","end_dtc":"2024-07-23","visit":"WEEK 24"},{"seq":"155","trt":"EMPAGLIFLOZIN","dose":"10.0","doseu":null,"dosef":"QD","route":"ORAL","start_dtc":"2024-07-24","end_dtc":"2024-07-24","visit":"WEEK 24"},{"seq":"156","trt":"EMPAGLIFLOZIN","dose":"10.0","doseu":null,"dosef":"QD","route":"ORAL","start_dtc":"2024-07-25","end_dtc":"2024-07-25","visit":"WEEK 24"},{"seq":"157","trt":"EMPAGLIFLOZIN","dose":"10.0","doseu":null,"dosef":"QD","route":"ORAL","start_dtc":"2024-07-26","end_dtc":"2024-07-26","visit":"WEEK 24"},{"seq":"158","trt":"EMPAGLIFLOZIN","dose":"10.0","doseu":null,"dosef":"QD","route":"ORAL","start_dtc":"2024-07-27","end_dtc":"2024-07-27","visit":"WEEK 24"},{"seq":"159","trt":"EMPAGLIFLOZIN","dose":"10.0","doseu":null,"dosef":"QD","route":"ORAL","start_dtc":"2024-07-28","end_dtc":"2024-07-28","visit":null},{"seq":"160","trt":"EMPAGLIFLOZIN","dose":"10.0","doseu":null,"dosef":"QD","route":"ORAL","start_dtc":"2024-07-29","end_dtc":"2024-07-29","visit":null},{"seq":"161","trt":"EMPAGLIFLOZIN","dose":"10.0","doseu":null,"dosef":"QD","route":"ORAL","start_dtc":"2024-07-30","end_dtc":"2024-07-30","visit":null},{"seq":"162","trt":"EMPAGLIFLOZIN","dose":"10.0","doseu":null,"dosef":"QD","route":"ORAL","start_dtc":"2024-07-31","end_dtc":"2024-07-31","visit":null},{"seq":"163","trt":"EMPAGLIFLOZIN","dose":"10.0","doseu":null,"dosef":"QD","route":"ORAL","start_dtc":"2024-08-01","end_dtc":"2024-08-01","visit":null},{"seq":"164","trt":"EMPAGLIFLOZIN","dose":"10.0","doseu":null,"dosef":"QD","route":"ORAL","start_dtc":"2024-08-02","end_dtc":"2024-08-02","visit":null},{"seq":"165","trt":"EMPAGLIFLOZIN","dose":"10.0","doseu":null,"dosef":"QD","route":"ORAL","start_dtc":"2024-08-03","end_dtc":"2024-08-03","visit":null},{"seq":"166","trt":"EMPAGLIFLOZIN","dose":"10.0","doseu":null,"dosef":"QD","route":"ORAL","start_dtc":"2024-08-04","end_dtc":"2024-08-04","visit":null},{"seq":"167","trt":"EMPAGLIFLOZIN","dose":"10.0","doseu":null,"dosef":"QD","route":"ORAL","start_dtc":"2024-08-05","end_dtc":"2024-08-05","visit":null},{"seq":"168","trt":"EMPAGLIFLOZIN","dose":"10.0","doseu":null,"dosef":"QD","route":"ORAL","start_dtc":"2024-08-06","end_dtc":"2024-08-06","visit":null},{"seq":"169","trt":"EMPAGLIFLOZIN","dose":"10.0","doseu":null,"dosef":"QD","route":"ORAL","start_dtc":"2024-08-07","end_dtc":"2024-08-07","visit":null},{"seq":"170","trt":"EMPAGLIFLOZIN","dose":"10.0","doseu":null,"dosef":"QD","route":"ORAL","start_dtc":"2024-08-08","end_dtc":"2024-08-08","visit":null},{"seq":"171","trt":"EMPAGLIFLOZIN","dose":"10.0","doseu":null,"dosef":"QD","route":"ORAL","start_dtc":"2024-08-09","end_dtc":"2024-08-09","visit":null},{"seq":"172","trt":"EMPAGLIFLOZIN","dose":"10.0","doseu":null,"dosef":"QD","route":"ORAL","start_dtc":"2024-08-10","end_dtc":"2024-08-10","visit":null},{"seq":"173","trt":"EMPAGLIFLOZIN","dose":"10.0","doseu":null,"dosef":"QD","route":"ORAL","start_dtc":"2024-08-11","end_dtc":"2024-08-11","visit":null},{"seq":"174","trt":"EMPAGLIFLOZIN","dose":"10.0","doseu":null,"dosef":"QD","route":"ORAL","start_dtc":"2024-08-12","end_dtc":"2024-08-12","visit":null},{"seq":"175","trt":"EMPAGLIFLOZIN","dose":"10.0","doseu":null,"dosef":"QD","route":"ORAL","start_dtc":"2024-08-13","end_dtc":"2024-08-13","visit":null},{"seq":"176","trt":"EMPAGLIFLOZIN","dose":null,"doseu":null,"dosef":"QD","route":"ORAL","start_dtc":"2024-08-14","end_dtc":"2024-08-14","visit":null},{"seq":"177","trt":"EMPAGLIFLOZIN","dose":"10.0","doseu":null,"dosef":"QD","route":"ORAL","start_dtc":"2024-08-15","end_dtc":"2024-08-15","visit":null},{"seq":"178","trt":"EMPAGLIFLOZIN","dose":"10.0","doseu":null,"dosef":"QD","route":"ORAL","start_dtc":"2024-08-16","end_dtc":"2024-08-16","visit":null},{"seq":"179","trt":"EMPAGLIFLOZIN","dose":"10.0","doseu":null,"dosef":"QD","route":"ORAL","start_dtc":"2024-08-17","end_dtc":"2024-08-17","visit":null},{"seq":"180","trt":"EMPAGLIFLOZIN","dose":"10.0","doseu":null,"dosef":"QD","route":"ORAL","start_dtc":"2024-08-18","end_dtc":"2024-08-18","visit":null},{"seq":"181","trt":"EMPAGLIFLOZIN","dose":"10.0","doseu":null,"dosef":"QD","route":"ORAL","start_dtc":"2024-08-19","end_dtc":"2024-08-19","visit":null},{"seq":"182","trt":"EMPAGLIFLOZIN","dose":"10.0","doseu":null,"dosef":"QD","route":"ORAL","start_dtc":"2024-08-20","end_dtc":"2024-08-20","visit":null},{"seq":"183","trt":"EMPAGLIFLOZIN","dose":"10.0","doseu":null,"dosef":"QD","route":"ORAL","start_dtc":"2024-08-21","end_dtc":"2024-08-21","visit":null},{"seq":"184","trt":"EMPAGLIFLOZIN","dose":"10.0","doseu":null,"dosef":"QD","route":"ORAL","start_dtc":"2024-08-22","end_dtc":"2024-08-22","visit":null},{"seq":"185","trt":"EMPAGLIFLOZIN","dose":"10.0","doseu":null,"dosef":"QD","route":"ORAL","start_dtc":"2024-08-23","end_dtc":"2024-08-23","visit":null},{"seq":"186","trt":"EMPAGLIFLOZIN","dose":"10.0","doseu":null,"dosef":"QD","route":"ORAL","start_dtc":"2024-08-24","end_dtc":"2024-08-24","visit":null},{"seq":"187","trt":"EMPAGLIFLOZIN","dose":null,"doseu":null,"dosef":"QD","route":"ORAL","start_dtc":"2024-08-25","end_dtc":"2024-08-25","visit":null},{"seq":"188","trt":"EMPAGLIFLOZIN","dose":"10.0","doseu":null,"dosef":"QD","route":"ORAL","start_dtc":"2024-08-26","end_dtc":"2024-08-26","visit":null},{"seq":"189","trt":"EMPAGLIFLOZIN","dose":"10.0","doseu":null,"dosef":"QD","route":"ORAL","start_dtc":"2024-08-27","end_dtc":"2024-08-27","visit":null},{"seq":"190","trt":"EMPAGLIFLOZIN","dose":"10.0","doseu":null,"dosef":"QD","route":"ORAL","start_dtc":"2024-08-28","end_dtc":"2024-08-28","visit":null},{"seq":"191","trt":"EMPAGLIFLOZIN","dose":"10.0","doseu":null,"dosef":"QD","route":"ORAL","start_dtc":"2024-08-29","end_dtc":"2024-08-29","visit":null},{"seq":"192","trt":"EMPAGLIFLOZIN","dose":"10.0","doseu":null,"dosef":"QD","route":"ORAL","start_dtc":"2024-08-30","end_dtc":"2024-08-30","visit":null},{"seq":"193","trt":"EMPAGLIFLOZIN","dose":"10.0","doseu":null,"dosef":"QD","route":"ORAL","start_dtc":"2024-08-31","end_dtc":"2024-08-31","visit":null},{"seq":"194","trt":"EMPAGLIFLOZIN","dose":"10.0","doseu":null,"dosef":"QD","route":"ORAL","start_dtc":"2024-09-01","end_dtc":"2024-09-01","visit":null},{"seq":"195","trt":"EMPAGLIFLOZIN","dose":"10.0","doseu":null,"dosef":"QD","route":"ORAL","start_dtc":"2024-09-02","end_dtc":"2024-09-02","visit":null},{"seq":"196","trt":"EMPAGLIFLOZIN","dose":"10.0","doseu":null,"dosef":"QD","route":"ORAL","start_dtc":"2024-09-03","end_dtc":"2024-09-03","visit":null},{"seq":"197","trt":"EMPAGLIFLOZIN","dose":"10.0","doseu":null,"dosef":"QD","route":"ORAL","start_dtc":"2024-09-04","end_dtc":"2024-09-04","visit":null},{"seq":"198","trt":"EMPAGLIFLOZIN","dose":"10.0","doseu":null,"dosef":"QD","route":"ORAL","start_dtc":"2024-09-05","end_dtc":"2024-09-05","visit":null},{"seq":"199","trt":"EMPAGLIFLOZIN","dose":"10.0","doseu":null,"dosef":"QD","route":"ORAL","start_dtc":"2024-09-06","end_dtc":"2024-09-06","visit":null},{"seq":"200","trt":"EMPAGLIFLOZIN","dose":"10.0","doseu":null,"dosef":"QD","route":"ORAL","start_dtc":"2024-09-07","end_dtc":"2024-09-07","visit":null},{"seq":"201","trt":"EMPAGLIFLOZIN","dose":"10.0","doseu":null,"dosef":"QD","route":"ORAL","start_dtc":"2024-09-08","end_dtc":"2024-09-08","visit":null},{"seq":"202","trt":"EMPAGLIFLOZIN","dose":"10.0","doseu":null,"dosef":"QD","route":"ORAL","start_dtc":"2024-09-09","end_dtc":"2024-09-09","visit":null},{"seq":"203","trt":"EMPAGLIFLOZIN","dose":"10.0","doseu":null,"dosef":"QD","route":"ORAL","start_dtc":"2024-09-10","end_dtc":"2024-09-10","visit":null},{"seq":"204","trt":"EMPAGLIFLOZIN","dose":"10.0","doseu":null,"dosef":"QD","route":"ORAL","start_dtc":"2024-09-11","end_dtc":"2024-09-11","visit":null},{"seq":"205","trt":"EMPAGLIFLOZIN","dose":null,"doseu":null,"dosef":"QD","route":"ORAL","start_dtc":"2024-09-12","end_dtc":"2024-09-12","visit":null},{"seq":"206","trt":"EMPAGLIFLOZIN","dose":"10.0","doseu":null,"dosef":"QD","route":"ORAL","start_dtc":"2024-09-13","end_dtc":"2024-09-13","visit":null},{"seq":"207","trt":"EMPAGLIFLOZIN","dose":"10.0","doseu":null,"dosef":"QD","route":"ORAL","start_dtc":"2024-09-14","end_dtc":"2024-09-14","visit":null},{"seq":"208","trt":"EMPAGLIFLOZIN","dose":"10.0","doseu":null,"dosef":"QD","route":"ORAL","start_dtc":"2024-09-15","end_dtc":"2024-09-15","visit":null},{"seq":"209","trt":"EMPAGLIFLOZIN","dose":"10.0","doseu":null,"dosef":"QD","route":"ORAL","start_dtc":"2024-09-16","end_dtc":"2024-09-16","visit":null},{"seq":"210","trt":"EMPAGLIFLOZIN","dose":"10.0","doseu":null,"dosef":"QD","route":"ORAL","start_dtc":"2024-09-17","end_dtc":"2024-09-17","visit":null},{"seq":"211","trt":"EMPAGLIFLOZIN","dose":"10.0","doseu":null,"dosef":"QD","route":"ORAL","start_dtc":"2024-09-18","end_dtc":"2024-09-18","visit":null},{"seq":"212","trt":"EMPAGLIFLOZIN","dose":"10.0","doseu":null,"dosef":"QD","route":"ORAL","start_dtc":"2024-09-19","end_dtc":"2024-09-19","visit":null},{"seq":"213","trt":"EMPAGLIFLOZIN","dose":"10.0","doseu":null,"dosef":"QD","route":"ORAL","start_dtc":"2024-09-20","end_dtc":"2024-09-20","visit":null},{"seq":"214","trt":"EMPAGLIFLOZIN","dose":"10.0","doseu":null,"dosef":"QD","route":"ORAL","start_dtc":"2024-09-21","end_dtc":"2024-09-21","visit":null},{"seq":"215","trt":"EMPAGLIFLOZIN","dose":"10.0","doseu":null,"dosef":"QD","route":"ORAL","start_dtc":"2024-09-22","end_dtc":"2024-09-22","visit":null},{"seq":"216","trt":"EMPAGLIFLOZIN","dose":"10.0","doseu":null,"dosef":"QD","route":"ORAL","start_dtc":"2024-09-23","end_dtc":"2024-09-23","visit":null},{"seq":"217","trt":"EMPAGLIFLOZIN","dose":"10.0","doseu":null,"dosef":"QD","route":"ORAL","start_dtc":"2024-09-24","end_dtc":"2024-09-24","visit":null},{"seq":"218","trt":"EMPAGLIFLOZIN","dose":"10.0","doseu":null,"dosef":"QD","route":"ORAL","start_dtc":"2024-09-25","end_dtc":"2024-09-25","visit":null},{"seq":"219","trt":"EMPAGLIFLOZIN","dose":"10.0","doseu":null,"dosef":"QD","route":"ORAL","start_dtc":"2024-09-26","end_dtc":"2024-09-26","visit":null},{"seq":"220","trt":"EMPAGLIFLOZIN","dose":"10.0","doseu":null,"dosef":"QD","route":"ORAL","start_dtc":"2024-09-27","end_dtc":"2024-09-27","visit":null},{"seq":"221","trt":"EMPAGLIFLOZIN","dose":"10.0","doseu":null,"dosef":"QD","route":"ORAL","start_dtc":"2024-09-28","end_dtc":"2024-09-28","visit":null},{"seq":"222","trt":"EMPAGLIFLOZIN","dose":"10.0","doseu":null,"dosef":"QD","route":"ORAL","start_dtc":"2024-09-29","end_dtc":"2024-09-29","visit":null},{"seq":"223","trt":"EMPAGLIFLOZIN","dose":"10.0","doseu":null,"dosef":"QD","route":"ORAL","start_dtc":"2024-09-30","end_dtc":"2024-09-30","visit":null},{"seq":"224","trt":"EMPAGLIFLOZIN","dose":null,"doseu":null,"dosef":"QD","route":"ORAL","start_dtc":"2024-10-01","end_dtc":"2024-10-01","visit":null},{"seq":"225","trt":"EMPAGLIFLOZIN","dose":"10.0","doseu":null,"dosef":"QD","route":"ORAL","start_dtc":"2024-10-02","end_dtc":"2024-10-02","visit":null},{"seq":"226","trt":"EMPAGLIFLOZIN","dose":"10.0","doseu":null,"dosef":"QD","route":"ORAL","start_dtc":"2024-10-03","end_dtc":"2024-10-03","visit":null},{"seq":"227","trt":"EMPAGLIFLOZIN","dose":"10.0","doseu":null,"dosef":"QD","route":"ORAL","start_dtc":"2024-10-04","end_dtc":"2024-10-04","visit":null},{"seq":"228","trt":"EMPAGLIFLOZIN","dose":"10.0","doseu":null,"dosef":"QD","route":"ORAL","start_dtc":"2024-10-05","end_dtc":"2024-10-05","visit":null},{"seq":"229","trt":"EMPAGLIFLOZIN","dose":"10.0","doseu":null,"dosef":"QD","route":"ORAL","start_dtc":"2024-10-06","end_dtc":"2024-10-06","visit":null},{"seq":"230","trt":"EMPAGLIFLOZIN","dose":"10.0","doseu":null,"dosef":"QD","route":"ORAL","start_dtc":"2024-10-07","end_dtc":"2024-10-07","visit":null},{"seq":"231","trt":"EMPAGLIFLOZIN","dose":"10.0","doseu":null,"dosef":"QD","route":"ORAL","start_dtc":"2024-10-08","end_dtc":"2024-10-08","visit":null},{"seq":"232","trt":"EMPAGLIFLOZIN","dose":"10.0","doseu":null,"dosef":"QD","route":"ORAL","start_dtc":"2024-10-09","end_dtc":"2024-10-09","visit":null},{"seq":"233","trt":"EMPAGLIFLOZIN","dose":"10.0","doseu":null,"dosef":"QD","route":"ORAL","start_dtc":"2024-10-10","end_dtc":"2024-10-10","visit":null},{"seq":"234","trt":"EMPAGLIFLOZIN","dose":"10.0","doseu":null,"dosef":"QD","route":"ORAL","start_dtc":"2024-10-11","end_dtc":"2024-10-11","visit":null},{"seq":"235","trt":"EMPAGLIFLOZIN","dose":"10.0","doseu":null,"dosef":"QD","route":"ORAL","start_dtc":"2024-10-12","end_dtc":"2024-10-12","visit":null},{"seq":"236","trt":"EMPAGLIFLOZIN","dose":"10.0","doseu":null,"dosef":"QD","route":"ORAL","start_dtc":"2024-10-13","end_dtc":"2024-10-13","visit":"WEEK 36"},{"seq":"237","trt":"EMPAGLIFLOZIN","dose":"10.0","doseu":null,"dosef":"QD","route":"ORAL","start_dtc":"2024-10-14","end_dtc":"2024-10-14","visit":"WEEK 36"},{"seq":"238","trt":"EMPAGLIFLOZIN","dose":"10.0","doseu":null,"dosef":"QD","route":"ORAL","start_dtc":"2024-10-15","end_dtc":"2024-10-15","visit":"WEEK 36"},{"seq":"239","trt":"EMPAGLIFLOZIN","dose":"10.0","doseu":null,"dosef":"QD","route":"ORAL","start_dtc":"2024-10-16","end_dtc":"2024-10-16","visit":"WEEK 36"},{"seq":"240","trt":"EMPAGLIFLOZIN","dose":"10.0","doseu":null,"dosef":"QD","route":"ORAL","start_dtc":"2024-10-17","end_dtc":"2024-10-17","visit":"WEEK 36"},{"seq":"241","trt":"EMPAGLIFLOZIN","dose":"10.0","doseu":null,"dosef":"QD","route":"ORAL","start_dtc":"2024-10-18","end_dtc":"2024-10-18","visit":"WEEK 36"},{"seq":"242","trt":"EMPAGLIFLOZIN","dose":"10.0","doseu":null,"dosef":"QD","route":"ORAL","start_dtc":"2024-10-19","end_dtc":"2024-10-19","visit":"WEEK 36"},{"seq":"243","trt":"EMPAGLIFLOZIN","dose":"10.0","doseu":null,"dosef":"QD","route":"ORAL","start_dtc":"2024-10-20","end_dtc":"2024-10-20","visit":null},{"seq":"244","trt":"EMPAGLIFLOZIN","dose":"10.0","doseu":null,"dosef":"QD","route":"ORAL","start_dtc":"2024-10-21","end_dtc":"2024-10-21","visit":null},{"seq":"245","trt":"EMPAGLIFLOZIN","dose":"10.0","doseu":null,"dosef":"QD","route":"ORAL","start_dtc":"2024-10-22","end_dtc":"2024-10-22","visit":null},{"seq":"246","trt":"EMPAGLIFLOZIN","dose":"10.0","doseu":null,"dosef":"QD","route":"ORAL","start_dtc":"2024-10-23","end_dtc":"2024-10-23","visit":null},{"seq":"247","trt":"EMPAGLIFLOZIN","dose":"10.0","doseu":null,"dosef":"QD","route":"ORAL","start_dtc":"2024-10-24","end_dtc":"2024-10-24","visit":null},{"seq":"248","trt":"EMPAGLIFLOZIN","dose":"10.0","doseu":null,"dosef":"QD","route":"ORAL","start_dtc":"2024-10-25","end_dtc":"2024-10-25","visit":null},{"seq":"249","trt":"EMPAGLIFLOZIN","dose":"10.0","doseu":null,"dosef":"QD","route":"ORAL","start_dtc":"2024-10-26","end_dtc":"2024-10-26","visit":null},{"seq":"250","trt":"EMPAGLIFLOZIN","dose":"10.0","doseu":null,"dosef":"QD","route":"ORAL","start_dtc":"2024-10-27","end_dtc":"2024-10-27","visit":null},{"seq":"251","trt":"EMPAGLIFLOZIN","dose":"10.0","doseu":null,"dosef":"QD","route":"ORAL","start_dtc":"2024-10-28","end_dtc":"2024-10-28","visit":null},{"seq":"252","trt":"EMPAGLIFLOZIN","dose":"10.0","doseu":null,"dosef":"QD","route":"ORAL","start_dtc":"2024-10-29","end_dtc":"2024-10-29","visit":null},{"seq":"253","trt":"EMPAGLIFLOZIN","dose":"10.0","doseu":null,"dosef":"QD","route":"ORAL","start_dtc":"2024-10-30","end_dtc":"2024-10-30","visit":null},{"seq":"254","trt":"EMPAGLIFLOZIN","dose":"10.0","doseu":null,"dosef":"QD","route":"ORAL","start_dtc":"2024-10-31","end_dtc":"2024-10-31","visit":null},{"seq":"255","trt":"EMPAGLIFLOZIN","dose":"10.0","doseu":null,"dosef":"QD","route":"ORAL","start_dtc":"2024-11-01","end_dtc":"2024-11-01","visit":null},{"seq":"256","trt":"EMPAGLIFLOZIN","dose":"10.0","doseu":null,"dosef":"QD","route":"ORAL","start_dtc":"2024-11-02","end_dtc":"2024-11-02","visit":null},{"seq":"257","trt":"EMPAGLIFLOZIN","dose":"10.0","doseu":null,"dosef":"QD","route":"ORAL","start_dtc":"2024-11-03","end_dtc":"2024-11-03","visit":null},{"seq":"258","trt":"EMPAGLIFLOZIN","dose":"10.0","doseu":null,"dosef":"QD","route":"ORAL","start_dtc":"2024-11-04","end_dtc":"2024-11-04","visit":null},{"seq":"259","trt":"EMPAGLIFLOZIN","dose":"10.0","doseu":null,"dosef":"QD","route":"ORAL","start_dtc":"2024-11-05","end_dtc":"2024-11-05","visit":null},{"seq":"260","trt":"EMPAGLIFLOZIN","dose":"10.0","doseu":null,"dosef":"QD","route":"ORAL","start_dtc":"2024-11-06","end_dtc":"2024-11-06","visit":null},{"seq":"261","trt":"EMPAGLIFLOZIN","dose":"10.0","doseu":null,"dosef":"QD","route":"ORAL","start_dtc":"2024-11-07","end_dtc":"2024-11-07","visit":null},{"seq":"262","trt":"EMPAGLIFLOZIN","dose":"10.0","doseu":null,"dosef":"QD","route":"ORAL","start_dtc":"2024-11-08","end_dtc":"2024-11-08","visit":null},{"seq":"263","trt":"EMPAGLIFLOZIN","dose":"10.0","doseu":null,"dosef":"QD","route":"ORAL","start_dtc":"2024-11-09","end_dtc":"2024-11-09","visit":null},{"seq":"264","trt":"EMPAGLIFLOZIN","dose":"10.0","doseu":null,"dosef":"QD","route":"ORAL","start_dtc":"2024-11-10","end_dtc":"2024-11-10","visit":null},{"seq":"265","trt":"EMPAGLIFLOZIN","dose":"10.0","doseu":null,"dosef":"QD","route":"ORAL","start_dtc":"2024-11-11","end_dtc":"2024-11-11","visit":null},{"seq":"266","trt":"EMPAGLIFLOZIN","dose":"10.0","doseu":null,"dosef":"QD","route":"ORAL","start_dtc":"2024-11-12","end_dtc":"2024-11-12","visit":null},{"seq":"267","trt":"EMPAGLIFLOZIN","dose":"10.0","doseu":null,"dosef":"QD","route":"ORAL","start_dtc":"2024-11-13","end_dtc":"2024-11-13","visit":null},{"seq":"268","trt":"EMPAGLIFLOZIN","dose":"10.0","doseu":null,"dosef":"QD","route":"ORAL","start_dtc":"2024-11-14","end_dtc":"2024-11-14","visit":null}]},"section_7_adverse_events":{"summary":{"total_aes":9,"serious_aes":1,"fatal_aes":0,"by_severity":{"MODERATE":3,"SEVERE":1,"MILD":5},"by_soc":{"Metabolism and nutrition disorders":1,"Cardiac disorders":2,"Nervous system disorders":2,"General disorders and administration site conditions":2,"Infections and infestations":1,"Investigations":1}},"events":[{"seq":"1","term":"DEHYDRATION","decod":"Dehydration","llt":"Dehydration","hlt":"Fluid intake decreased and dehydration","hlgt":"Fluid and electrolyte conditions NEC","soc":"Metabolism and nutrition disorders","bodsys":"Metabolism and nutrition disorders","severity":"MODERATE","serious":"N","causality":"UNLIKELY RELATED","action_taken":"DOSE NOT CHANGED","outcome":"RECOVERED/RESOLVED","fatal":"N","hospitalization":"N","life_threatening":"N","onset_dtc":"2024-05-09","end_dtc":"2024-05-30","onset_dy":"93","end_dy":"114","duration":null,"epoch":"TREATMENT","visit":null,"supplemental":{}},{"seq":"2","term":"ATRIAL FIBRILLATION","decod":"Atrial fibrillation","llt":"Atrial fibrillation","hlt":"Atrial arrhythmias","hlgt":"Cardiac arrhythmias","soc":"Cardiac disorders","bodsys":"Cardiac disorders","severity":"MODERATE","serious":"N","causality":"NOT RELATED","action_taken":"DOSE NOT CHANGED","outcome":"RECOVERED/RESOLVED","fatal":"N","hospitalization":"N","life_threatening":"N","onset_dtc":"2024-06-02","end_dtc":"2024-06-15","onset_dy":"117","end_dy":"130","duration":null,"epoch":"TREATMENT","visit":null,"supplemental":{}},{"seq":"3","term":"DIZZINESS","decod":"Dizziness","llt":"Dizziness","hlt":"Dizziness and vertigo symptoms","hlgt":"Neurological signs and symptoms NEC","soc":"Nervous system disorders","bodsys":"Nervous system disorders","severity":"SEVERE","serious":"Y","causality":"NOT RELATED","action_taken":"DOSE NOT CHANGED","outcome":"RECOVERED/RESOLVED","fatal":"N","hospitalization":"N","life_threatening":"N","onset_dtc":"2024-06-06","end_dtc":"2024-07-15","onset_dy":"121","end_dy":"160","duration":null,"epoch":"TREATMENT","visit":null,"supplemental":{}},{"seq":"4","term":"DIZZINESS","decod":"Dizziness","llt":"Dizziness","hlt":"Dizziness and vertigo symptoms","hlgt":"Neurological signs and symptoms NEC","soc":"Nervous system disorders","bodsys":"Nervous system disorders","severity":"MODERATE","serious":"N","causality":"POSSIBLY RELATED","action_taken":"DRUG INTERRUPTED","outcome":"RECOVERED/RESOLVED","fatal":"N","hospitalization":"N","life_threatening":"N","onset_dtc":"2024-06-07","end_dtc":"2024-06-21","onset_dy":"122","end_dy":"136","duration":null,"epoch":"TREATMENT","visit":null,"supplemental":{}},{"seq":"5","term":"FATIGUE","decod":"Fatigue","llt":"Fatigue","hlt":"Asthenic conditions","hlgt":"General system disorders NEC","soc":"General disorders and administration site conditions","bodsys":"General disorders and administration site conditions","severity":"MILD","serious":"N","causality":"POSSIBLY RELATED","action_taken":"DOSE NOT CHANGED","outcome":"RECOVERED/RESOLVED","fatal":"N","hospitalization":"N","life_threatening":"N","onset_dtc":"2024-07-19","end_dtc":"2024-07-24","onset_dy":"164","end_dy":"169","duration":null,"epoch":"TREATMENT","visit":null,"supplemental":{}},{"seq":"6","term":"FATIGUE","decod":"Fatigue","llt":"Fatigue","hlt":"Asthenic conditions","hlgt":"General system disorders NEC","soc":"General disorders and administration site conditions","bodsys":"General disorders and administration site conditions","severity":"MILD","serious":"N","causality":"UNLIKELY RELATED","action_taken":"DOSE NOT CHANGED","outcome":"UNKNOWN","fatal":"N","hospitalization":"N","life_threatening":"N","onset_dtc":"2024-08-28","end_dtc":"2024-09-11","onset_dy":"204","end_dy":"218","duration":null,"epoch":"TREATMENT","visit":null,"supplemental":{}},{"seq":"7","term":"URINARY TRACT INFECTION","decod":"Urinary tract infection","llt":"Urinary tract infection","hlt":"Urinary tract infections","hlgt":"Infections NEC","soc":"Infections and infestations","bodsys":"Infections and infestations","severity":"MILD","serious":"N","causality":"NOT RELATED","action_taken":"DOSE NOT CHANGED","outcome":"NOT RECOVERED/NOT RESOLVED","fatal":"N","hospitalization":"N","life_threatening":"N","onset_dtc":"2024-10-09","end_dtc":null,"onset_dy":"246","end_dy":null,"duration":null,"epoch":"TREATMENT","visit":null,"supplemental":{}},{"seq":"8","term":"ATRIAL FIBRILLATION","decod":"Atrial fibrillation","llt":"Atrial fibrillation","hlt":"Atrial arrhythmias","hlgt":"Cardiac arrhythmias","soc":"Cardiac disorders","bodsys":"Cardiac disorders","severity":"MILD","serious":"N","causality":"POSSIBLY RELATED","action_taken":"DOSE NOT CHANGED","outcome":"RECOVERED/RESOLVED","fatal":"N","hospitalization":"N","life_threatening":"N","onset_dtc":"2025-01-08","end_dtc":"2025-01-12","onset_dy":"337","end_dy":"341","duration":null,"epoch":"TREATMENT","visit":null,"supplemental":{}},{"seq":"9","term":"BLOOD CREATININE INCREASED","decod":"Blood creatinine increased","llt":"Blood creatinine increased","hlt":"Renal function analyses","hlgt":"Renal and urinary tract investigations and urinalyses","soc":"Investigations","bodsys":"Investigations","severity":"MILD","serious":"N","causality":"PROBABLY RELATED","action_taken":"DOSE NOT CHANGED","outcome":"NOT RECOVERED/NOT RESOLVED","fatal":"N","hospitalization":"N","life_threatening":"N","onset_dtc":"2025-01-15","end_dtc":null,"onset_dy":"344","end_dy":null,"duration":null,"epoch":"TREATMENT","visit":null,"supplemental":{}}]},"section_8_laboratory_results":{"summary":{"total_records":49,"abnormal_count":0,"abnormal_pct":0.0},"shift_summary":[{"testcd":"ALT","baseline_value":36.21,"baseline_nrind":"NORMAL","worst_post_baseline_value":40.24,"worst_post_baseline_nrind":"NORMAL","worst_visit":"WEEK 12"},{"testcd":"AST","baseline_value":24.78,"baseline_nrind":"NORMAL","worst_post_baseline_value":25.57,"worst_post_baseline_nrind":"NORMAL","worst_visit":"WEEK 4"},{"testcd":"CREAT","baseline_value":75.05,"baseline_nrind":"NORMAL","worst_post_baseline_value":79.62,"worst_post_baseline_nrind":"NORMAL","worst_visit":"FOLLOW-UP"},{"testcd":"GLUC","baseline_value":4.7,"baseline_nrind":"NORMAL","worst_post_baseline_value":4.71,"worst_post_baseline_nrind":"NORMAL","worst_visit":"RANDOMIZATION"},{"testcd":"HGB","baseline_value":143.16,"baseline_nrind":"NORMAL","worst_post_baseline_value":139.98,"worst_post_baseline_nrind":"NORMAL","worst_visit":"WEEK 52"},{"testcd":"PLAT","baseline_value":201.72,"baseline_nrind":"NORMAL","worst_post_baseline_value":217.76,"worst_post_baseline_nrind":"NORMAL","worst_visit":"WEEK 12"},{"testcd":"WBC","baseline_value":10.5,"baseline_nrind":"NORMAL","worst_post_baseline_value":10.68,"worst_post_baseline_nrind":"NORMAL","worst_visit":"WEEK 12"}],"results":[{"seq":"1","testcd":"ALT","test":"Alanine Aminotransferase","cat":"CHEMISTRY","orres":"36.21","orresu":"U/L","stresc":"36.21","stresn":"36.21","stresu":"U/L","stnrlo":"7","stnrhi":"56","nrind":"NORMAL","fast":null,"dtc":"2024-01-24","dy":"-14","visit":"SCREENING","visitnum":"1.0","epoch":"SCREENING","spec":null,"method":null},{"seq":"2","testcd":"AST","test":"Aspartate Aminotransferase","cat":"CHEMISTRY","orres":"24.78","orresu":"U/L","stresc":"24.78","stresn":"24.78","stresu":"U/L","stnrlo":"10","stnrhi":"40","nrind":"NORMAL","fast":null,"dtc":"2024-01-24","dy":"-14","visit":"SCREENING","visitnum":"1.0","epoch":"SCREENING","spec":null,"method":null},{"seq":"3","testcd":"CREAT","test":"Creatinine","cat":"CHEMISTRY","orres":null,"orresu":null,"stresc":null,"stresn":null,"stresu":null,"stnrlo":null,"stnrhi":null,"nrind":null,"fast":null,"dtc":"2024-01-24","dy":"-14","visit":"SCREENING","visitnum":"1.0","epoch":"SCREENING","spec":null,"method":null},{"seq":"4","testcd":"GLUC","test":"Glucose","cat":"CHEMISTRY","orres":"4.7","orresu":"mmol/L","stresc":"4.7","stresn":"4.7","stresu":"mmol/L","stnrlo":"3.9","stnrhi":"5.6","nrind":"NORMAL","fast":null,"dtc":"2024-01-24","dy":"-14","visit":"SCREENING","visitnum":"1.0","epoch":"SCREENING","spec":null,"method":null},{"seq":"5","testcd":"HGB","test":"Hemoglobin","cat":"HEMATOLOGY","orres":"143.16","orresu":"g/L","stresc":"143.16","stresn":"143.16","stresu":"g/L","stnrlo":"130","stnrhi":"175","nrind":"NORMAL","fast":null,"dtc":"2024-01-24","dy":"-14","visit":"SCREENING","visitnum":"1.0","epoch":"SCREENING","spec":null,"method":null},{"seq":"6","testcd":"PLAT","test":"Platelets","cat":"HEMATOLOGY","orres":"201.72","orresu":"10^9/L","stresc":"201.72","stresn":"201.72","stresu":"10^9/L","stnrlo":"150","stnrhi":"400","nrind":"NORMAL","fast":null,"dtc":"2024-01-24","dy":"-14","visit":"SCREENING","visitnum":"1.0","epoch":"SCREENING","spec":null,"method":null},{"seq":"7","testcd":"WBC","test":"Leukocytes","cat":"HEMATOLOGY","orres":"10.5","orresu":"10^9/L","stresc":"10.5","stresn":"10.5","stresu":"10^9/L","stnrlo":"4.0","stnrhi":"11.0","nrind":"NORMAL","fast":null,"dtc":"2024-01-24","dy":"-14","visit":"SCREENING","visitnum":"1.0","epoch":"SCREENING","spec":null,"method":null},{"seq":"8","testcd":"ALT","test":"Alanine Aminotransferase","cat":"CHEMISTRY","orres":"38.43","orresu":"U/L","stresc":"38.43","stresn":"38.43","stresu":"U/L","stnrlo":"7","stnrhi":"56","nrind":"NORMAL","fast":null,"dtc":"2024-02-07","dy":"1","visit":"RANDOMIZATION","visitnum":"2.0","epoch":"TREATMENT","spec":null,"method":null},{"seq":"9","testcd":"AST","test":"Aspartate Aminotransferase","cat":"CHEMISTRY","orres":"24.79","orresu":"U/L","stresc":"24.79","stresn":"24.79","stresu":"U/L","stnrlo":"10","stnrhi":"40","nrind":"NORMAL","fast":null,"dtc":"2024-02-07","dy":"1","visit":"RANDOMIZATION","visitnum":"2.0","epoch":"TREATMENT","spec":null,"method":null},{"seq":"10","testcd":"CREAT","test":"Creatinine","cat":"CHEMISTRY","orres":"75.05","orresu":"umol/L","stresc":"75.05","stresn":"75.05","stresu":"umol/L","stnrlo":"62","stnrhi":"106","nrind":"NORMAL","fast":null,"dtc":"2024-02-07","dy":"1","visit":"RANDOMIZATION","visitnum":"2.0","epoch":"TREATMENT","spec":null,"method":null},{"seq":"11","testcd":"GLUC","test":"Glucose","cat":"CHEMISTRY","orres":"4.71","orresu":"mmol/L","stresc":"4.71","stresn":"4.71","stresu":"mmol/L","stnrlo":"3.9","stnrhi":"5.6","nrind":"NORMAL","fast":null,"dtc":"2024-02-07","dy":"1","visit":"RANDOMIZATION","visitnum":"2.0","epoch":"TREATMENT","spec":null,"method":null},{"seq":"12","testcd":"HGB","test":"Hemoglobin","cat":"HEMATOLOGY","orres":"142.21","orresu":"g/L","stresc":"142.21","stresn":"142.21","stresu":"g/L","stnrlo":"130","stnrhi":"175","nrind":"NORMAL","fast":null,"dtc":"2024-02-07","dy":"1","visit":"RANDOMIZATION","visitnum":"2.0","epoch":"TREATMENT","spec":null,"method":null},{"seq":"13","testcd":"PLAT","test":"Platelets","cat":"HEMATOLOGY","orres":"211.74","orresu":"10^9/L","stresc":"211.74","stresn":"211.74","stresu":"10^9/L","stnrlo":"150","stnrhi":"400","nrind":"NORMAL","fast":null,"dtc":"2024-02-07","dy":"1","visit":"RANDOMIZATION","visitnum":"2.0","epoch":"TREATMENT","spec":null,"method":null},{"seq":"14","testcd":"WBC","test":"Leukocytes","cat":"HEMATOLOGY","orres":"10.56","orresu":"10^9/L","stresc":"10.56","stresn":"10.56","stresu":"10^9/L","stnrlo":"4.0","stnrhi":"11.0","nrind":"NORMAL","fast":null,"dtc":"2024-02-07","dy":"1","visit":"RANDOMIZATION","visitnum":"2.0","epoch":"TREATMENT","spec":null,"method":null},{"seq":"15","testcd":"ALT","test":"Alanine Aminotransferase","cat":"CHEMISTRY","orres":"39.28","orresu":"U/L","stresc":"39.28","stresn":"39.28","stresu":"U/L","stnrlo":"7","stnrhi":"56","nrind":"NORMAL","fast":null,"dtc":"2024-03-05","dy":"28","visit":"WEEK 4","visitnum":"3.0","epoch":"TREATMENT","spec":null,"method":null},{"seq":"16","testcd":"AST","test":"Aspartate Aminotransferase","cat":"CHEMISTRY","orres":"25.57","orresu":"U/L","stresc":"25.57","stresn":"25.57","stresu":"U/L","stnrlo":"10","stnrhi":"40","nrind":"NORMAL","fast":null,"dtc":"2024-03-05","dy":"28","visit":"WEEK 4","visitnum":"3.0","epoch":"TREATMENT","spec":null,"method":null},{"seq":"17","testcd":"CREAT","test":"Creatinine","cat":"CHEMISTRY","orres":"77.54","orresu":"umol/L","stresc":"77.54","stresn":"77.54","stresu":"umol/L","stnrlo":"62","stnrhi":"106","nrind":"NORMAL","fast":null,"dtc":"2024-03-05","dy":"28","visit":"WEEK 4","visitnum":"3.0","epoch":"TREATMENT","spec":null,"method":null},{"seq":"18","testcd":"GLUC","test":"Glucose","cat":"CHEMISTRY","orres":"4.64","orresu":"mmol/L","stresc":"4.64","stresn":"4.64","stresu":"mmol/L","stnrlo":"3.9","stnrhi":"5.6","nrind":"NORMAL","fast":null,"dtc":"2024-03-05","dy":"28","visit":"WEEK 4","visitnum":"3.0","epoch":"TREATMENT","spec":null,"method":null},{"seq":"19","testcd":"HGB","test":"Hemoglobin","cat":"HEMATOLOGY","orres":"142.16","orresu":"g/L","stresc":"142.16","stresn":"142.16","stresu":"g/L","stnrlo":"130","stnrhi":"175","nrind":"NORMAL","fast":null,"dtc":"2024-03-05","dy":"28","visit":"WEEK 4","visitnum":"3.0","epoch":"TREATMENT","spec":null,"method":null},{"seq":"20","testcd":"PLAT","test":"Platelets","cat":"HEMATOLOGY","orres":"207.07","orresu":"10^9/L","stresc":"207.07","stresn":"207.07","stresu":"10^9/L","stnrlo":"150","stnrhi":"400","nrind":"NORMAL","fast":null,"dtc":"2024-03-05","dy":"28","visit":"WEEK 4","visitnum":"3.0","epoch":"TREATMENT","spec":null,"method":null},{"seq":"21","testcd":"WBC","test":"Leukocytes","cat":"HEMATOLOGY","orres":"10.66","orresu":"10^9/L","stresc":"10.66","stresn":"10.66","stresu":"10^9/L","stnrlo":"4.0","stnrhi":"11.0","nrind":"NORMAL","fast":null,"dtc":"2024-03-05","dy":"28","visit":"WEEK 4","visitnum":"3.0","epoch":"TREATMENT","spec":null,"method":null},{"seq":"22","testcd":"ALT","test":"Alanine Aminotransferase","cat":"CHEMISTRY","orres":"40.24","orresu":"U/L","stresc":"40.24","stresn":"40.24","stresu":"U/L","stnrlo":"7","stnrhi":"56","nrind":"NORMAL","fast":null,"dtc":"2024-04-26","dy":"80","visit":"WEEK 12","visitnum":"4.0","epoch":"TREATMENT","spec":null,"method":null},{"seq":"23","testcd":"AST","test":"Aspartate Aminotransferase","cat":"CHEMISTRY","orres":"24.05","orresu":"U/L","stresc":"24.05","stresn":"24.05","stresu":"U/L","stnrlo":"10","stnrhi":"40","nrind":"NORMAL","fast":null,"dtc":"2024-04-26","dy":"80","visit":"WEEK 12","visitnum":"4.0","epoch":"TREATMENT","spec":null,"method":null},{"seq":"24","testcd":"CREAT","test":"Creatinine","cat":"CHEMISTRY","orres":"75.78","orresu":"umol/L","stresc":"75.78","stresn":"75.78","stresu":"umol/L","stnrlo":"62","stnrhi":"106","nrind":"NORMAL","fast":null,"dtc":"2024-04-26","dy":"80","visit":"WEEK 12","visitnum":"4.0","epoch":"TREATMENT","spec":null,"method":null},{"seq":"25","testcd":"GLUC","test":"Glucose","cat":"CHEMISTRY","orres":"4.66","orresu":"mmol/L","stresc":"4.66","stresn":"4.66","stresu":"mmol/L","stnrlo":"3.9","stnrhi":"5.6","nrind":"NORMAL","fast":null,"dtc":"2024-04-26","dy":"80","visit":"WEEK 12","visitnum":"4.0","epoch":"TREATMENT","spec":null,"method":null},{"seq":"26","testcd":"HGB","test":"Hemoglobin","cat":"HEMATOLOGY","orres":"142.1","orresu":"g/L","stresc":"142.1","stresn":"142.1","stresu":"g/L","stnrlo":"130","stnrhi":"175","nrind":"NORMAL","fast":null,"dtc":"2024-04-26","dy":"80","visit":"WEEK 12","visitnum":"4.0","epoch":"TREATMENT","spec":null,"method":null},{"seq":"27","testcd":"PLAT","test":"Platelets","cat":"HEMATOLOGY","orres":"217.76","orresu":"10^9/L","stresc":"217.76","stresn":"217.76","stresu":"10^9/L","stnrlo":"150","stnrhi":"400","nrind":"NORMAL","fast":null,"dtc":"2024-04-26","dy":"80","visit":"WEEK 12","visitnum":"4.0","epoch":"TREATMENT","spec":null,"method":null},{"seq":"28","testcd":"WBC","test":"Leukocytes","cat":"HEMATOLOGY","orres":"10.68","orresu":"10^9/L","stresc":"10.68","stresn":"10.68","stresu":"10^9/L","stnrlo":"4.0","stnrhi":"11.0","nrind":"NORMAL","fast":null,"dtc":"2024-04-26","dy":"80","visit":"WEEK 12","visitnum":"4.0","epoch":"TREATMENT","spec":null,"method":null},{"seq":"29","testcd":"ALT","test":"Alanine Aminotransferase","cat":"CHEMISTRY","orres":"39.12","orresu":"U/L","stresc":"39.12","stresn":"39.12","stresu":"U/L","stnrlo":"7","stnrhi":"56","nrind":"NORMAL","fast":null,"dtc":"2024-07-28","dy":"173","visit":"WEEK 24","visitnum":"5.0","epoch":"TREATMENT","spec":null,"method":null},{"seq":"30","testcd":"AST","test":"Aspartate Aminotransferase","cat":"CHEMISTRY","orres":"24.27","orresu":"U/L","stresc":"24.27","stresn":"24.27","stresu":"U/L","stnrlo":"10","stnrhi":"40","nrind":"NORMAL","fast":null,"dtc":"2024-07-28","dy":"173","visit":"WEEK 24","visitnum":"5.0","epoch":"TREATMENT","spec":null,"method":null},{"seq":"31","testcd":"CREAT","test":"Creatinine","cat":"CHEMISTRY","orres":"79.59","orresu":"umol/L","stresc":"79.59","stresn":"79.59","stresu":"umol/L","stnrlo":"62","stnrhi":"106","nrind":"NORMAL","fast":null,"dtc":"2024-07-28","dy":"173","visit":"WEEK 24","visitnum":"5.0","epoch":"TREATMENT","spec":null,"method":null},{"seq":"32","testcd":"GLUC","test":"Glucose","cat":"CHEMISTRY","orres":"4.61","orresu":"mmol/L","stresc":"4.61","stresn":"4.61","stresu":"mmol/L","stnrlo":"3.9","stnrhi":"5.6","nrind":"NORMAL","fast":null,"dtc":"2024-07-28","dy":"173","visit":"WEEK 24","visitnum":"5.0","epoch":"TREATMENT","spec":null,"method":null},{"seq":"33","testcd":"HGB","test":"Hemoglobin","cat":"HEMATOLOGY","orres":"141.16","orresu":"g/L","stresc":"141.16","stresn":"141.16","stresu":"g/L","stnrlo":"130","stnrhi":"175","nrind":"NORMAL","fast":null,"dtc":"2024-07-28","dy":"173","visit":"WEEK 24","visitnum":"5.0","epoch":"TREATMENT","spec":null,"method":null},{"seq":"34","testcd":"PLAT","test":"Platelets","cat":"HEMATOLOGY","orres":"217.68","orresu":"10^9/L","stresc":"217.68","stresn":"217.68","stresu":"10^9/L","stnrlo":"150","stnrhi":"400","nrind":"NORMAL","fast":null,"dtc":"2024-07-28","dy":"173","visit":"WEEK 24","visitnum":"5.0","epoch":"TREATMENT","spec":null,"method":null},{"seq":"35","testcd":"WBC","test":"Leukocytes","cat":"HEMATOLOGY","orres":"10.21","orresu":"10^9/L","stresc":"10.21","stresn":"10.21","stresu":"10^9/L","stnrlo":"4.0","stnrhi":"11.0","nrind":"NORMAL","fast":null,"dtc":"2024-07-28","dy":"173","visit":"WEEK 24","visitnum":"5.0","epoch":"TREATMENT","spec":null,"method":null},{"seq":"36","testcd":"ALT","test":"Alanine Aminotransferase","cat":"CHEMISTRY","orres":null,"orresu":null,"stresc":null,"stresn":null,"stresu":null,"stnrlo":null,"stnrhi":null,"nrind":null,"fast":null,"dtc":"2025-01-31","dy":"360","visit":"WEEK 52","visitnum":"7.0","epoch":"TREATMENT","spec":null,"method":null},{"seq":"37","testcd":"AST","test":"Aspartate Aminotransferase","cat":"CHEMISTRY","orres":"24.23","orresu":"U/L","stresc":"24.23","stresn":"24.23","stresu":"U/L","stnrlo":"10","stnrhi":"40","nrind":"NORMAL","fast":null,"dtc":"2025-01-31","dy":"360","visit":"WEEK 52","visitnum":"7.0","epoch":"TREATMENT","spec":null,"method":null},{"seq":"38","testcd":"CREAT","test":"Creatinine","cat":"CHEMISTRY","orres":"78.28","orresu":"umol/L","stresc":"78.28","stresn":"78.28","stresu":"umol/L","stnrlo":"62","stnrhi":"106","nrind":"NORMAL","fast":null,"dtc":"2025-01-31","dy":"360","visit":"WEEK 52","visitnum":"7.0","epoch":"TREATMENT","spec":null,"method":null},{"seq":"39","testcd":"GLUC","test":"Glucose","cat":"CHEMISTRY","orres":"4.67","orresu":"mmol/L","stresc":"4.67","stresn":"4.67","stresu":"mmol/L","stnrlo":"3.9","stnrhi":"5.6","nrind":"NORMAL","fast":null,"dtc":"2025-01-31","dy":"360","visit":"WEEK 52","visitnum":"7.0","epoch":"TREATMENT","spec":null,"method":null},{"seq":"40","testcd":"HGB","test":"Hemoglobin","cat":"HEMATOLOGY","orres":"139.98","orresu":"g/L","stresc":"139.98","stresn":"139.98","stresu":"g/L","stnrlo":"130","stnrhi":"175","nrind":"NORMAL","fast":null,"dtc":"2025-01-31","dy":"360","visit":"WEEK 52","visitnum":"7.0","epoch":"TREATMENT","spec":null,"method":null},{"seq":"41","testcd":"PLAT","test":"Platelets","cat":"HEMATOLOGY","orres":"208.17","orresu":"10^9/L","stresc":"208.17","stresn":"208.17","stresu":"10^9/L","stnrlo":"150","stnrhi":"400","nrind":"NORMAL","fast":null,"dtc":"2025-01-31","dy":"360","visit":"WEEK 52","visitnum":"7.0","epoch":"TREATMENT","spec":null,"method":null},{"seq":"42","testcd":"WBC","test":"Leukocytes","cat":"HEMATOLOGY","orres":"9.88","orresu":"10^9/L","stresc":"9.88","stresn":"9.88","stresu":"10^9/L","stnrlo":"4.0","stnrhi":"11.0","nrind":"NORMAL","fast":null,"dtc":"2025-01-31","dy":"360","visit":"WEEK 52","visitnum":"7.0","epoch":"TREATMENT","spec":null,"method":null},{"seq":"43","testcd":"ALT","test":"Alanine Aminotransferase","cat":"CHEMISTRY","orres":"39.72","orresu":"U/L","stresc":"39.72","stresn":"39.72","stresu":"U/L","stnrlo":"7","stnrhi":"56","nrind":"NORMAL","fast":null,"dtc":"2025-03-03","dy":"391","visit":"FOLLOW-UP","visitnum":"8.0","epoch":"FOLLOW-UP","spec":null,"method":null},{"seq":"44","testcd":"AST","test":"Aspartate Aminotransferase","cat":"CHEMISTRY","orres":"23.72","orresu":"U/L","stresc":"23.72","stresn":"23.72","stresu":"U/L","stnrlo":"10","stnrhi":"40","nrind":"NORMAL","fast":null,"dtc":"2025-03-03","dy":"391","visit":"FOLLOW-UP","visitnum":"8.0","epoch":"FOLLOW-UP","spec":null,"method":null},{"seq":"45","testcd":"CREAT","test":"Creatinine","cat":"CHEMISTRY","orres":"79.62","orresu":"umol/L","stresc":"79.62","stresn":"79.62","stresu":"umol/L","stnrlo":"62","stnrhi":"106","nrind":"NORMAL","fast":null,"dtc":"2025-03-03","dy":"391","visit":"FOLLOW-UP","visitnum":"8.0","epoch":"FOLLOW-UP","spec":null,"method":null},{"seq":"46","testcd":"GLUC","test":"Glucose","cat":"CHEMISTRY","orres":"4.51","orresu":"mmol/L","stresc":"4.51","stresn":"4.51","stresu":"mmol/L","stnrlo":"3.9","stnrhi":"5.6","nrind":"NORMAL","fast":null,"dtc":"2025-03-03","dy":"391","visit":"FOLLOW-UP","visitnum":"8.0","epoch":"FOLLOW-UP","spec":null,"method":null},{"seq":"47","testcd":"HGB","test":"Hemoglobin","cat":"HEMATOLOGY","orres":"141.13","orresu":"g/L","stresc":"141.13","stresn":"141.13","stresu":"g/L","stnrlo":"130","stnrhi":"175","nrind":"NORMAL","fast":null,"dtc":"2025-03-03","dy":"391","visit":"FOLLOW-UP","visitnum":"8.0","epoch":"FOLLOW-UP","spec":null,"method":null},{"seq":"48","testcd":"PLAT","test":"Platelets","cat":"HEMATOLOGY","orres":"201.28","orresu":"10^9/L","stresc":"201.28","stresn":"201.28","stresu":"10^9/L","stnrlo":"150","stnrhi":"400","nrind":"NORMAL","fast":null,"dtc":"2025-03-03","dy":"391","visit":"FOLLOW-UP","visitnum":"8.0","epoch":"FOLLOW-UP","spec":null,"method":null},{"seq":"49","testcd":"WBC","test":"Leukocytes","cat":"HEMATOLOGY","orres":"9.59","orresu":"10^9/L","stresc":"9.59","stresn":"9.59","stresu":"10^9/L","stnrlo":"4.0","stnrhi":"11.0","nrind":"NORMAL","fast":null,"dtc":"2025-03-03","dy":"391","visit":"FOLLOW-UP","visitnum":"8.0","epoch":"FOLLOW-UP","spec":null,"method":null}]},"section_9_vital_signs":{"summary":{"total_records":48},"trends":{"BMI":[{"visit":"SCREENING","visitnum":"1.0","dtc":"2024-01-24","value":"28.5","unit":"kg/m2"},{"visit":"RANDOMIZATION","visitnum":"2.0","dtc":"2024-02-07","value":"28.3","unit":"kg/m2"},{"visit":"WEEK 4","visitnum":"3.0","dtc":"2024-03-05","value":"27.6","unit":"kg/m2"},{"visit":"WEEK 24","visitnum":"5.0","dtc":"2024-07-28","value":"28.1","unit":"kg/m2"},{"visit":"WEEK 52","visitnum":"7.0","dtc":"2025-01-31","value":"28.0","unit":"kg/m2"},{"visit":"FOLLOW-UP","visitnum":"8.0","dtc":"2025-03-03","value":"27.9","unit":"kg/m2"}],"DIABP":[{"visit":"SCREENING","visitnum":"1.0","dtc":"2024-01-24","value":"48.3","unit":"mmHg"},{"visit":"RANDOMIZATION","visitnum":"2.0","dtc":"2024-02-07","value":"50.1","unit":"mmHg"},{"visit":"WEEK 4","visitnum":"3.0","dtc":"2024-03-05","value":"49.8","unit":"mmHg"},{"visit":"WEEK 24","visitnum":"5.0","dtc":"2024-07-28","value":"49.8","unit":"mmHg"},{"visit":"WEEK 52","visitnum":"7.0","dtc":"2025-01-31","value":"50.1","unit":"mmHg"},{"visit":"FOLLOW-UP","visitnum":"8.0","dtc":"2025-03-03","value":"51.6","unit":"mmHg"}],"HEIGHT":[{"visit":"SCREENING","visitnum":"1.0","dtc":"2024-01-24","value":"184.8","unit":"cm"},{"visit":"RANDOMIZATION","visitnum":"2.0","dtc":"2024-02-07","value":"184.7","unit":"cm"},{"visit":"WEEK 4","visitnum":"3.0","dtc":"2024-03-05","value":"184.3","unit":"cm"},{"visit":"WEEK 24","visitnum":"5.0","dtc":"2024-07-28","value":"184.5","unit":"cm"},{"visit":"WEEK 52","visitnum":"7.0","dtc":"2025-01-31","value":"184.3","unit":"cm"},{"visit":"FOLLOW-UP","visitnum":"8.0","dtc":"2025-03-03","value":"184.9","unit":"cm"}],"PULSE":[{"visit":"SCREENING","visitnum":"1.0","dtc":"2024-01-24","value":"49.6","unit":"beats/min"},{"visit":"RANDOMIZATION","visitnum":"2.0","dtc":"2024-02-07","value":"48.1","unit":"beats/min"},{"visit":"WEEK 4","visitnum":"3.0","dtc":"2024-03-05","value":"55.8","unit":"beats/min"},{"visit":"WEEK 24","visitnum":"5.0","dtc":"2024-07-28","value":"62.5","unit":"beats/min"},{"visit":"WEEK 52","visitnum":"7.0","dtc":"2025-01-31","value":"60.7","unit":"beats/min"},{"visit":"FOLLOW-UP","visitnum":"8.0","dtc":"2025-03-03","value":"53.9","unit":"beats/min"}],"RESP":[{"visit":"SCREENING","visitnum":"1.0","dtc":"2024-01-24","value":"18.0","unit":"breaths/min"},{"visit":"RANDOMIZATION","visitnum":"2.0","dtc":"2024-02-07","value":"18.3","unit":"breaths/min"},{"visit":"WEEK 4","visitnum":"3.0","dtc":"2024-03-05","value":"16.9","unit":"breaths/min"},{"visit":"WEEK 24","visitnum":"5.0","dtc":"2024-07-28","value":"16.3","unit":"breaths/min"},{"visit":"WEEK 52","visitnum":"7.0","dtc":"2025-01-31","value":"16.8","unit":"breaths/min"},{"visit":"FOLLOW-UP","visitnum":"8.0","dtc":"2025-03-03","value":"15.3","unit":"breaths/min"}],"SYSBP":[{"visit":"SCREENING","visitnum":"1.0","dtc":"2024-01-24","value":"152.7","unit":"mmHg"},{"visit":"RANDOMIZATION","visitnum":"2.0","dtc":"2024-02-07","value":"153.6","unit":"mmHg"},{"visit":"WEEK 4","visitnum":"3.0","dtc":"2024-03-05","value":"157.1","unit":"mmHg"},{"visit":"WEEK 24","visitnum":"5.0","dtc":"2024-07-28","value":"157.1","unit":"mmHg"},{"visit":"WEEK 52","visitnum":"7.0","dtc":"2025-01-31","value":"158.1","unit":"mmHg"},{"visit":"FOLLOW-UP","visitnum":"8.0","dtc":"2025-03-03","value":"158.0","unit":"mmHg"}],"TEMP":[{"visit":"SCREENING","visitnum":"1.0","dtc":"2024-01-24","value":"36.7","unit":"C"},{"visit":"RANDOMIZATION","visitnum":"2.0","dtc":"2024-02-07","value":"36.6","unit":"C"},{"visit":"WEEK 4","visitnum":"3.0","dtc":"2024-03-05","value":"36.8","unit":"C"},{"visit":"WEEK 24","visitnum":"5.0","dtc":"2024-07-28","value":"36.6","unit":"C"},{"visit":"WEEK 52","visitnum":"7.0","dtc":"2025-01-31","value":"36.7","unit":"C"},{"visit":"FOLLOW-UP","visitnum":"8.0","dtc":"2025-03-03","value":"36.8","unit":"C"}],"WEIGHT":[{"visit":"SCREENING","visitnum":"1.0","dtc":"2024-01-24","value":"97.4","unit":"kg"},{"visit":"RANDOMIZATION","visitnum":"2.0","dtc":"2024-02-07","value":"96.6","unit":"kg"},{"visit":"WEEK 4","visitnum":"3.0","dtc":"2024-03-05","value":"93.8","unit":"kg"},{"visit":"WEEK 24","visitnum":"5.0","dtc":"2024-07-28","value":"95.5","unit":"kg"},{"visit":"WEEK 52","visitnum":"7.0","dtc":"2025-01-31","value":"95.1","unit":"kg"},{"visit":"FOLLOW-UP","visitnum":"8.0","dtc":"2025-03-03","value":"95.5","unit":"kg"}]},"results":[{"seq":"1","testcd":"BMI","test":"BMI","cat":null,"orres":"28.5","orresu":"kg/m2","stresc":"28.5","stresn":"28.5","stresu":"kg/m2","stnrlo":null,"stnrhi":null,"nrind":null,"pos":null,"loc":null,"dtc":"2024-01-24","dy":"-14","visit":"SCREENING","visitnum":"1.0","epoch":"SCREENING"},{"seq":"2","testcd":"DIABP","test":"Diastolic Blood Pressure","cat":null,"orres":"48.3","orresu":"mmHg","stresc":"48.3","stresn":"48.3","stresu":"mmHg","stnrlo":null,"stnrhi":null,"nrind":null,"pos":null,"loc":null,"dtc":"2024-01-24","dy":"-14","visit":"SCREENING","visitnum":"1.0","epoch":"SCREENING"},{"seq":"3","testcd":"HEIGHT","test":"Height","cat":null,"orres":"184.8","orresu":"cm","stresc":"184.8","stresn":"184.8","stresu":"cm","stnrlo":null,"stnrhi":null,"nrind":null,"pos":null,"loc":null,"dtc":"2024-01-24","dy":"-14","visit":"SCREENING","visitnum":"1.0","epoch":"SCREENING"},{"seq":"4","testcd":"PULSE","test":"Pulse Rate","cat":null,"orres":"49.6","orresu":"beats/min","stresc":"49.6","stresn":"49.6","stresu":"beats/min","stnrlo":null,"stnrhi":null,"nrind":null,"pos":null,"loc":null,"dtc":"2024-01-24","dy":"-14","visit":"SCREENING","visitnum":"1.0","epoch":"SCREENING"},{"seq":"5","testcd":"RESP","test":"Respiratory Rate","cat":null,"orres":"18.0","orresu":"breaths/min","stresc":"18.0","stresn":"18.0","stresu":"breaths/min","stnrlo":null,"stnrhi":null,"nrind":null,"pos":null,"loc":null,"dtc":"2024-01-24","dy":"-14","visit":"SCREENING","visitnum":"1.0","epoch":"SCREENING"},{"seq":"6","testcd":"SYSBP","test":"Systolic Blood Pressure","cat":null,"orres":"152.7","orresu":"mmHg","stresc":"152.7","stresn":"152.7","stresu":"mmHg","stnrlo":null,"stnrhi":null,"nrind":null,"pos":null,"loc":null,"dtc":"2024-01-24","dy":"-14","visit":"SCREENING","visitnum":"1.0","epoch":"SCREENING"},{"seq":"7","testcd":"TEMP","test":"Temperature","cat":null,"orres":"36.7","orresu":"C","stresc":"36.7","stresn":"36.7","stresu":"C","stnrlo":null,"stnrhi":null,"nrind":null,"pos":null,"loc":null,"dtc":"2024-01-24","dy":"-14","visit":"SCREENING","visitnum":"1.0","epoch":"SCREENING"},{"seq":"8","testcd":"WEIGHT","test":"Weight","cat":null,"orres":"97.4","orresu":"kg","stresc":"97.4","stresn":"97.4","stresu":"kg","stnrlo":null,"stnrhi":null,"nrind":null,"pos":null,"loc":null,"dtc":"2024-01-24","dy":"-14","visit":"SCREENING","visitnum":"1.0","epoch":"SCREENING"},{"seq":"9","testcd":"BMI","test":"BMI","cat":null,"orres":"28.3","orresu":"kg/m2","stresc":"28.3","stresn":"28.3","stresu":"kg/m2","stnrlo":null,"stnrhi":null,"nrind":null,"pos":null,"loc":null,"dtc":"2024-02-07","dy":"1","visit":"RANDOMIZATION","visitnum":"2.0","epoch":"TREATMENT"},{"seq":"10","testcd":"DIABP","test":"Diastolic Blood Pressure","cat":null,"orres":"50.1","orresu":"mmHg","stresc":"50.1","stresn":"50.1","stresu":"mmHg","stnrlo":null,"stnrhi":null,"nrind":null,"pos":null,"loc":null,"dtc":"2024-02-07","dy":"1","visit":"RANDOMIZATION","visitnum":"2.0","epoch":"TREATMENT"},{"seq":"11","testcd":"HEIGHT","test":"Height","cat":null,"orres":"184.7","orresu":"cm","stresc":"184.7","stresn":"184.7","stresu":"cm","stnrlo":null,"stnrhi":null,"nrind":null,"pos":null,"loc":null,"dtc":"2024-02-07","dy":"1","visit":"RANDOMIZATION","visitnum":"2.0","epoch":"TREATMENT"},{"seq":"12","testcd":"PULSE","test":"Pulse Rate","cat":null,"orres":"48.1","orresu":"beats/min","stresc":"48.1","stresn":"48.1","stresu":"beats/min","stnrlo":null,"stnrhi":null,"nrind":null,"pos":null,"loc":null,"dtc":"2024-02-07","dy":"1","visit":"RANDOMIZATION","visitnum":"2.0","epoch":"TREATMENT"},{"seq":"13","testcd":"RESP","test":"Respiratory Rate","cat":null,"orres":"18.3","orresu":"breaths/min","stresc":"18.3","stresn":"18.3","stresu":"breaths/min","stnrlo":null,"stnrhi":null,"nrind":null,"pos":null,"loc":null,"dtc":"2024-02-07","dy":"1","visit":"RANDOMIZATION","visitnum":"2.0","epoch":"TREATMENT"},{"seq":"14","testcd":"SYSBP","test":"Systolic Blood Pressure","cat":null,"orres":"153.6","orresu":"mmHg","stresc":"153.6","stresn":"153.6","stresu":"mmHg","stnrlo":null,"stnrhi":null,"nrind":null,"pos":null,"loc":null,"dtc":"2024-02-07","dy":"1","visit":"RANDOMIZATION","visitnum":"2.0","epoch":"TREATMENT"},{"seq":"15","testcd":"TEMP","test":"Temperature","cat":null,"orres":"36.6","orresu":"C","stresc":"36.6","stresn":"36.6","stresu":"C","stnrlo":null,"stnrhi":null,"nrind":null,"pos":null,"loc":null,"dtc":"2024-02-07","dy":"1","visit":"RANDOMIZATION","visitnum":"2.0","epoch":"TREATMENT"},{"seq":"16","testcd":"WEIGHT","test":"Weight","cat":null,"orres":"96.6","orresu":"kg","stresc":"96.6","stresn":"96.6","stresu":"kg","stnrlo":null,"stnrhi":null,"nrind":null,"pos":null,"loc":null,"dtc":"2024-02-07","dy":"1","visit":"RANDOMIZATION","visitnum":"2.0","epoch":"TREATMENT"},{"seq":"17","testcd":"BMI","test":"BMI","cat":null,"orres":"27.6","orresu":"kg/m2","stresc":"27.6","stresn":"27.6","stresu":"kg/m2","stnrlo":null,"stnrhi":null,"nrind":null,"pos":null,"loc":null,"dtc":"2024-03-05","dy":"28","visit":"WEEK 4","visitnum":"3.0","epoch":"TREATMENT"},{"seq":"18","testcd":"DIABP","test":"Diastolic Blood Pressure","cat":null,"orres":"49.8","orresu":"mmHg","stresc":"49.8","stresn":"49.8","stresu":"mmHg","stnrlo":null,"stnrhi":null,"nrind":null,"pos":null,"loc":null,"dtc":"2024-03-05","dy":"28","visit":"WEEK 4","visitnum":"3.0","epoch":"TREATMENT"},{"seq":"19","testcd":"HEIGHT","test":"Height","cat":null,"orres":"184.3","orresu":"cm","stresc":"184.3","stresn":"184.3","stresu":"cm","stnrlo":null,"stnrhi":null,"nrind":null,"pos":null,"loc":null,"dtc":"2024-03-05","dy":"28","visit":"WEEK 4","visitnum":"3.0","epoch":"TREATMENT"},{"seq":"20","testcd":"PULSE","test":"Pulse Rate","cat":null,"orres":"55.8","orresu":"beats/min","stresc":"55.8","stresn":"55.8","stresu":"beats/min","stnrlo":null,"stnrhi":null,"nrind":null,"pos":null,"loc":null,"dtc":"2024-03-05","dy":"28","visit":"WEEK 4","visitnum":"3.0","epoch":"TREATMENT"},{"seq":"21","testcd":"RESP","test":"Respiratory Rate","cat":null,"orres":"16.9","orresu":"breaths/min","stresc":"16.9","stresn":"16.9","stresu":"breaths/min","stnrlo":null,"stnrhi":null,"nrind":null,"pos":null,"loc":null,"dtc":"2024-03-05","dy":"28","visit":"WEEK 4","visitnum":"3.0","epoch":"TREATMENT"},{"seq":"22","testcd":"SYSBP","test":"Systolic Blood Pressure","cat":null,"orres":"157.1","orresu":"mmHg","stresc":"157.1","stresn":"157.1","stresu":"mmHg","stnrlo":null,"stnrhi":null,"nrind":null,"pos":null,"loc":null,"dtc":"2024-03-05","dy":"28","visit":"WEEK 4","visitnum":"3.0","epoch":"TREATMENT"},{"seq":"23","testcd":"TEMP","test":"Temperature","cat":null,"orres":"36.8","orresu":"C","stresc":"36.8","stresn":"36.8","stresu":"C","stnrlo":null,"stnrhi":null,"nrind":null,"pos":null,"loc":null,"dtc":"2024-03-05","dy":"28","visit":"WEEK 4","visitnum":"3.0","epoch":"TREATMENT"},{"seq":"24","testcd":"WEIGHT","test":"Weight","cat":null,"orres":"93.8","orresu":"kg","stresc":"93.8","stresn":"93.8","stresu":"kg","stnrlo":null,"stnrhi":null,"nrind":null,"pos":null,"loc":null,"dtc":"2024-03-05","dy":"28","visit":"WEEK 4","visitnum":"3.0","epoch":"TREATMENT"},{"seq":"25","testcd":"BMI","test":"BMI","cat":null,"orres":"28.1","orresu":"kg/m2","stresc":"28.1","stresn":"28.1","stresu":"kg/m2","stnrlo":null,"stnrhi":null,"nrind":null,"pos":null,"loc":null,"dtc":"2024-07-28","dy":"173","visit":"WEEK 24","visitnum":"5.0","epoch":"TREATMENT"},{"seq":"26","testcd":"DIABP","test":"Diastolic Blood Pressure","cat":null,"orres":"49.8","orresu":"mmHg","stresc":"49.8","stresn":"49.8","stresu":"mmHg","stnrlo":null,"stnrhi":null,"nrind":null,"pos":null,"loc":null,"dtc":"2024-07-28","dy":"173","visit":"WEEK 24","visitnum":"5.0","epoch":"TREATMENT"},{"seq":"27","testcd":"HEIGHT","test":"Height","cat":null,"orres":"184.5","orresu":"cm","stresc":"184.5","stresn":"184.5","stresu":"cm","stnrlo":null,"stnrhi":null,"nrind":null,"pos":null,"loc":null,"dtc":"2024-07-28","dy":"173","visit":"WEEK 24","visitnum":"5.0","epoch":"TREATMENT"},{"seq":"28","testcd":"PULSE","test":"Pulse Rate","cat":null,"orres":"62.5","orresu":"beats/min","stresc":"62.5","stresn":"62.5","stresu":"beats/min","stnrlo":null,"stnrhi":null,"nrind":null,"pos":null,"loc":null,"dtc":"2024-07-28","dy":"173","visit":"WEEK 24","visitnum":"5.0","epoch":"TREATMENT"},{"seq":"29","testcd":"RESP","test":"Respiratory Rate","cat":null,"orres":"16.3","orresu":"breaths/min","stresc":"16.3","stresn":"16.3","stresu":"breaths/min","stnrlo":null,"stnrhi":null,"nrind":null,"pos":null,"loc":null,"dtc":"2024-07-28","dy":"173","visit":"WEEK 24","visitnum":"5.0","epoch":"TREATMENT"},{"seq":"30","testcd":"SYSBP","test":"Systolic Blood Pressure","cat":null,"orres":"157.1","orresu":"mmHg","stresc":"157.1","stresn":"157.1","stresu":"mmHg","stnrlo":null,"stnrhi":null,"nrind":null,"pos":null,"loc":null,"dtc":"2024-07-28","dy":"173","visit":"WEEK 24","visitnum":"5.0","epoch":"TREATMENT"},{"seq":"31","testcd":"TEMP","test":"Temperature","cat":null,"orres":"36.6","orresu":"C","stresc":"36.6","stresn":"36.6","stresu":"C","stnrlo":null,"stnrhi":null,"nrind":null,"pos":null,"loc":null,"dtc":"2024-07-28","dy":"173","visit":"WEEK 24","visitnum":"5.0","epoch":"TREATMENT"},{"seq":"32","testcd":"WEIGHT","test":"Weight","cat":null,"orres":"95.5","orresu":"kg","stresc":"95.5","stresn":"95.5","stresu":"kg","stnrlo":null,"stnrhi":null,"nrind":null,"pos":null,"loc":null,"dtc":"2024-07-28","dy":"173","visit":"WEEK 24","visitnum":"5.0","epoch":"TREATMENT"},{"seq":"33","testcd":"BMI","test":"BMI","cat":null,"orres":"28.0","orresu":"kg/m2","stresc":"28.0","stresn":"28.0","stresu":"kg/m2","stnrlo":null,"stnrhi":null,"nrind":null,"pos":null,"loc":null,"dtc":"2025-01-31","dy":"360","visit":"WEEK 52","visitnum":"7.0","epoch":"TREATMENT"},{"seq":"34","testcd":"DIABP","test":"Diastolic Blood Pressure","cat":null,"orres":"50.1","orresu":"mmHg","stresc":"50.1","stresn":"50.1","stresu":"mmHg","stnrlo":null,"stnrhi":null,"nrind":null,"pos":null,"loc":null,"dtc":"2025-01-31","dy":"360","visit":"WEEK 52","visitnum":"7.0","epoch":"TREATMENT"},{"seq":"35","testcd":"HEIGHT","test":"Height","cat":null,"orres":"184.3","orresu":"cm","stresc":"184.3","stresn":"184.3","stresu":"cm","stnrlo":null,"stnrhi":null,"nrind":null,"pos":null,"loc":null,"dtc":"2025-01-31","dy":"360","visit":"WEEK 52","visitnum":"7.0","epoch":"TREATMENT"},{"seq":"36","testcd":"PULSE","test":"Pulse Rate","cat":null,"orres":"60.7","orresu":"beats/min","stresc":"60.7","stresn":"60.7","stresu":"beats/min","stnrlo":null,"stnrhi":null,"nrind":null,"pos":null,"loc":null,"dtc":"2025-01-31","dy":"360","visit":"WEEK 52","visitnum":"7.0","epoch":"TREATMENT"},{"seq":"37","testcd":"RESP","test":"Respiratory Rate","cat":null,"orres":"16.8","orresu":"breaths/min","stresc":"16.8","stresn":"16.8","stresu":"breaths/min","stnrlo":null,"stnrhi":null,"nrind":null,"pos":null,"loc":null,"dtc":"2025-01-31","dy":"360","visit":"WEEK 52","visitnum":"7.0","epoch":"TREATMENT"},{"seq":"38","testcd":"SYSBP","test":"Systolic Blood Pressure","cat":null,"orres":"158.1","orresu":"mmHg","stresc":"158.1","stresn":"158.1","stresu":"mmHg","stnrlo":null,"stnrhi":null,"nrind":null,"pos":null,"loc":null,"dtc":"2025-01-31","dy":"360","visit":"WEEK 52","visitnum":"7.0","epoch":"TREATMENT"},{"seq":"39","testcd":"TEMP","test":"Temperature","cat":null,"orres":"36.7","orresu":"C","stresc":"36.7","stresn":"36.7","stresu":"C","stnrlo":null,"stnrhi":null,"nrind":null,"pos":null,"loc":null,"dtc":"2025-01-31","dy":"360","visit":"WEEK 52","visitnum":"7.0","epoch":"TREATMENT"},{"seq":"40","testcd":"WEIGHT","test":"Weight","cat":null,"orres":"95.1","orresu":"kg","stresc":"95.1","stresn":"95.1","stresu":"kg","stnrlo":null,"stnrhi":null,"nrind":null,"pos":null,"loc":null,"dtc":"2025-01-31","dy":"360","visit":"WEEK 52","visitnum":"7.0","epoch":"TREATMENT"},{"seq":"41","testcd":"BMI","test":"BMI","cat":null,"orres":"27.9","orresu":"kg/m2","stresc":"27.9","stresn":"27.9","stresu":"kg/m2","stnrlo":null,"stnrhi":null,"nrind":null,"pos":null,"loc":null,"dtc":"2025-03-03","dy":"391","visit":"FOLLOW-UP","visitnum":"8.0","epoch":"FOLLOW-UP"},{"seq":"42","testcd":"DIABP","test":"Diastolic Blood Pressure","cat":null,"orres":"51.6","orresu":"mmHg","stresc":"51.6","stresn":"51.6","stresu":"mmHg","stnrlo":null,"stnrhi":null,"nrind":null,"pos":null,"loc":null,"dtc":"2025-03-03","dy":"391","visit":"FOLLOW-UP","visitnum":"8.0","epoch":"FOLLOW-UP"},{"seq":"43","testcd":"HEIGHT","test":"Height","cat":null,"orres":"184.9","orresu":"cm","stresc":"184.9","stresn":"184.9","stresu":"cm","stnrlo":null,"stnrhi":null,"nrind":null,"pos":null,"loc":null,"dtc":"2025-03-03","dy":"391","visit":"FOLLOW-UP","visitnum":"8.0","epoch":"FOLLOW-UP"},{"seq":"44","testcd":"PULSE","test":"Pulse Rate","cat":null,"orres":"53.9","orresu":"beats/min","stresc":"53.9","stresn":"53.9","stresu":"beats/min","stnrlo":null,"stnrhi":null,"nrind":null,"pos":null,"loc":null,"dtc":"2025-03-03","dy":"391","visit":"FOLLOW-UP","visitnum":"8.0","epoch":"FOLLOW-UP"},{"seq":"45","testcd":"RESP","test":"Respiratory Rate","cat":null,"orres":"15.3","orresu":"breaths/min","stresc":"15.3","stresn":"15.3","stresu":"breaths/min","stnrlo":null,"stnrhi":null,"nrind":null,"pos":null,"loc":null,"dtc":"2025-03-03","dy":"391","visit":"FOLLOW-UP","visitnum":"8.0","epoch":"FOLLOW-UP"},{"seq":"46","testcd":"SYSBP","test":"Systolic Blood Pressure","cat":null,"orres":"158.0","orresu":"mmHg","stresc":"158.0","stresn":"158.0","stresu":"mmHg","stnrlo":null,"stnrhi":null,"nrind":null,"pos":null,"loc":null,"dtc":"2025-03-03","dy":"391","visit":"FOLLOW-UP","visitnum":"8.0","epoch":"FOLLOW-UP"},{"seq":"47","testcd":"TEMP","test":"Temperature","cat":null,"orres":"36.8","orresu":"C","stresc":"36.8","stresn":"36.8","stresu":"C","stnrlo":null,"stnrhi":null,"nrind":null,"pos":null,"loc":null,"dtc":"2025-03-03","dy":"391","visit":"FOLLOW-UP","visitnum":"8.0","epoch":"FOLLOW-UP"},{"seq":"48","testcd":"WEIGHT","test":"Weight","cat":null,"orres":"95.5","orresu":"kg","stresc":"95.5","stresn":"95.5","stresu":"kg","stnrlo":null,"stnrhi":null,"nrind":null,"pos":null,"loc":null,"dtc":"2025-03-03","dy":"391","visit":"FOLLOW-UP","visitnum":"8.0","epoch":"FOLLOW-UP"}]},"section_10_questionnaires_and_scores":{"questionnaires":[],"findings_about":[]},"section_11_protocol_deviations":{"deviations":[{"seq":"1","term":"Missed EMPAGLIFLOZIN dose on 2024-02-09","decod":"MISSED DOSE","cat":"MINOR","scat":"DOSING","start_dtc":"2024-02-09","end_dtc":null,"visit":null},{"seq":"2","term":"Missed EMPAGLIFLOZIN dose on 2024-02-18","decod":"MISSED DOSE","cat":"MINOR","scat":"DOSING","start_dtc":"2024-02-18","end_dtc":null,"visit":null},{"seq":"3","term":"Missed EMPAGLIFLOZIN dose on 2024-02-26","decod":"MISSED DOSE","cat":"MINOR","scat":"DOSING","start_dtc":"2024-02-26","end_dtc":null,"visit":null},{"seq":"4","term":"Visit WEEK 4 occurred 1 days early (Day 28 vs planned Day 29)","decod":"VISIT OCCURRED OUTSIDE VISIT WINDOW","cat":"MINOR","scat":"VISIT WINDOW","start_dtc":"2024-03-05","end_dtc":null,"visit":null},{"seq":"5","term":"Missed EMPAGLIFLOZIN dose on 2024-05-18","decod":"MISSED DOSE","cat":"MINOR","scat":"DOSING","start_dtc":"2024-05-18","end_dtc":null,"visit":null},{"seq":"6","term":"Missed EMPAGLIFLOZIN dose on 2024-05-22","decod":"MISSED DOSE","cat":"MINOR","scat":"DOSING","start_dtc":"2024-05-22","end_dtc":null,"visit":null},{"seq":"7","term":"Missed EMPAGLIFLOZIN dose on 2024-08-14","decod":"MISSED DOSE","cat":"MINOR","scat":"DOSING","start_dtc":"2024-08-14","end_dtc":null,"visit":null},{"seq":"8","term":"Missed EMPAGLIFLOZIN dose on 2024-08-25","decod":"MISSED DOSE","cat":"MINOR","scat":"DOSING","start_dtc":"2024-08-25","end_dtc":null,"visit":null},{"seq":"9","term":"Missed EMPAGLIFLOZIN dose on 2024-09-12","decod":"MISSED DOSE","cat":"MINOR","scat":"DOSING","start_dtc":"2024-09-12","end_dtc":null,"visit":null},{"seq":"10","term":"Missed EMPAGLIFLOZIN dose on 2024-10-01","decod":"MISSED DOSE","cat":"MINOR","scat":"DOSING","start_dtc":"2024-10-01","end_dtc":null,"visit":null}],"total":10},"section_12_disposition":{"completion_status":"COMPLETED","disposition_records":[{"seq":"1","term":"INFORMED CONSENT OBTAINED","decod":"INFORMED CONSENT OBTAINED","cat":"PROTOCOL MILESTONE","scat":null,"dtc":"2024-01-17","dy":null,"visit":null,"epoch":"SCREENING"},{"seq":"2","term":"RANDOMIZED","decod":"RANDOMIZED","cat":"PROTOCOL MILESTONE","scat":null,"dtc":"2024-02-07","dy":null,"visit":null,"epoch":"TREATMENT"},{"seq":"3","term":"COMPLETED","decod":"COMPLETED","cat":"DISPOSITION EVENT","scat":null,"dtc":"2025-03-20","dy":null,"visit":null,"epoch":"FOLLOW-UP"}],"death":null},"section_13_hospitalizations":{"items":[],"total":0},"section_14_substance_use":{"items":[{"seq":"1","substance":"ALCOHOL","decod":"ALCOHOL","cat":"ALCOHOL","scat":null,"usage":"Y","dose":null,"dosu":null,"freq":null,"start_dtc":"2011-01-20","end_dtc":"2017-01-18"},{"seq":"2","substance":"COFFEE","decod":"COFFEE","cat":"CAFFEINE","scat":null,"usage":"Y","dose":"1.0","dosu":"CUPS/DAY","freq":"QD","start_dtc":"2017-01-18","end_dtc":null},{"seq":"3","substance":"CIGARETTES","decod":"CIGARETTES","cat":"TOBACCO","scat":"CIGARETTES","usage":"N","dose":null,"dosu":null,"freq":null,"start_dtc":null,"end_dtc":null}],"total":3},"section_15_subject_status":{"items":[{"seq":"1","testcd":"SURVSTAT","test":"Survival Status","orres":"ALIVE","stresc":"ALIVE","dtc":"2025-03-07","visit":"FOLLOW-UP","epoch":"FOLLOW-UP"}],"total":1}}