{"subject_id":"EMPEROR-HFPEF-SITE001-0031","study_id":"EMPEROR-HFPEF","generated_at":"2026-06-16T10:19:32.199675+00:00","sdtmig_version":"3.4","flags":{"has_serious_ae":true,"has_fatal_ae":false,"has_protocol_deviation":true,"n_protocol_deviations":5,"n_adverse_events":13,"n_concomitant_meds":4,"max_ae_severity":"SEVERE","screen_failure":false,"discontinued_early":false,"discontinuation_reason":null,"death":false,"exposure_days":363},"timeline":[{"dtc":"2024-02-13","dy":"-24","event":"VISIT: SCREENING","domain":"SV","category":"visit"},{"dtc":"2024-02-25","dy":"-12","event":"INFORMED CONSENT OBTAINED","domain":"DS","category":"milestone"},{"dtc":"2024-03-08","dy":"1","event":"RANDOMIZED","domain":"DS","category":"milestone"},{"dtc":"2024-03-08","dy":"1","event":"FIRST DOSE: EMPAGLIFLOZIN","domain":"EX","category":"exposure"},{"dtc":"2024-03-08","dy":"1","event":"VISIT: RANDOMIZATION","domain":"SV","category":"visit"},{"dtc":"2024-03-11","dy":"4","event":"AE: Diabetic ketoacidosis (MILD)","domain":"AE","category":"adverse_event"},{"dtc":"2024-04-03","dy":"27","event":"VISIT: WEEK 4","domain":"SV","category":"visit"},{"dtc":"2024-04-06","dy":"30","event":"DEVIATION: MISSED DOSE","domain":"DV","category":"deviation"},{"dtc":"2024-06-05","dy":"90","event":"VISIT: WEEK 12","domain":"SV","category":"visit"},{"dtc":"2024-07-17","dy":"132","event":"AE: Atrial fibrillation (MILD)","domain":"AE","category":"adverse_event"},{"dtc":"2024-07-18","dy":"133","event":"AE: Cardiac failure (MODERATE)","domain":"AE","category":"adverse_event"},{"dtc":"2024-07-23","dy":"138","event":"AE: Blood creatinine increased (MODERATE)","domain":"AE","category":"adverse_event"},{"dtc":"2024-07-23","dy":"138","event":"CM START: PARACETAMOL","domain":"CM","category":"concomitant_med"},{"dtc":"2024-07-25","dy":"140","event":"AE: Hypotension (MILD)","domain":"AE","category":"adverse_event"},{"dtc":"2024-08-10","dy":"156","event":"AE: Cardiac failure (MODERATE)","domain":"AE","category":"adverse_event"},{"dtc":"2024-08-11","dy":"157","event":"AE: Cardiac failure (MODERATE)","domain":"AE","category":"adverse_event"},{"dtc":"2024-08-11","dy":"157","event":"CM START: PARACETAMOL","domain":"CM","category":"concomitant_med"},{"dtc":"2024-08-22","dy":"168","event":"DEVIATION: VISIT OCCURRED OUTSIDE VISIT WINDOW","domain":"DV","category":"deviation"},{"dtc":"2024-08-22","dy":"168","event":"VISIT: WEEK 24","domain":"SV","category":"visit"},{"dtc":"2024-09-02","dy":"179","event":"AE: Dehydration (MODERATE)","domain":"AE","category":"adverse_event"},{"dtc":"2024-09-02","dy":"179","event":"CM START: ORAL REHYDRATION SALTS","domain":"CM","category":"concomitant_med"},{"dtc":"2024-09-23","dy":"200","event":"DEVIATION: MISSED DOSE","domain":"DV","category":"deviation"},{"dtc":"2024-09-25","dy":"202","event":"AE: Urinary tract infection (MILD)","domain":"AE","category":"adverse_event"},{"dtc":"2024-10-06","dy":"213","event":"AE: Atrial fibrillation (MILD)","domain":"AE","category":"adverse_event"},{"dtc":"2024-10-17","dy":"224","event":"DEVIATION: MISSED DOSE","domain":"DV","category":"deviation"},{"dtc":"2024-11-19","dy":"257","event":"DEVIATION: VISIT OCCURRED OUTSIDE VISIT WINDOW","domain":"DV","category":"deviation"},{"dtc":"2024-11-19","dy":"257","event":"VISIT: WEEK 36","domain":"SV","category":"visit"},{"dtc":"2024-12-29","dy":"297","event":"AE: Hypotension (MODERATE)","domain":"AE","category":"adverse_event"},{"dtc":"2025-01-17","dy":"316","event":"AE: Urinary tract infection (MILD)","domain":"AE","category":"adverse_event"},{"dtc":"2025-01-17","dy":"316","event":"CM START: NITROFURANTOIN","domain":"CM","category":"concomitant_med"},{"dtc":"2025-01-27","dy":"326","event":"AE: Fatigue (SEVERE) [SERIOUS]","domain":"AE","category":"adverse_event"},{"dtc":"2025-03-04","dy":"362","event":"VISIT: WEEK 52","domain":"SV","category":"visit"},{"dtc":"2025-03-06","dy":"364","event":"LAST DOSE: EMPAGLIFLOZIN","domain":"EX","category":"exposure"},{"dtc":"2025-03-30","dy":"388","event":"VISIT: FOLLOW-UP","domain":"SV","category":"visit"},{"dtc":"2025-04-19","dy":"408","event":"COMPLETED","domain":"DS","category":"milestone"}],"section_1_demographics":{"usubjid":"EMPEROR-HFPEF-SITE001-0031","subjid":"0031","siteid":"SITE001","age":"37","ageu":"YEARS","sex":"M","race":"WHITE","ethnicity":"NOT HISPANIC OR LATINO","country":"USA","arm":"Empagliflozin 10mg QD","armcd":"EMPA10","actarm":"Empagliflozin 10mg QD","actarmcd":"EMPA10","randomization_date":null,"informed_consent_date":"2024-02-25","reference_start_date":"2024-03-08","reference_end_date":"2025-04-19","screen_failure":false,"death_flag":null,"death_date":null,"subject_characteristics":[{"testcd":"ALCUSE","test":"Alcohol Use","orres":"CURRENT DRINKER","stresc":"CURRENT DRINKER","visit":null,"dtc":"2024-02-25"},{"testcd":"BMI","test":"Body Mass Index","orres":"18.7","stresc":"18.7","visit":null,"dtc":"2024-02-25"},{"testcd":"DURDIS","test":"Duration of Disease","orres":"97 months","stresc":"97","visit":null,"dtc":"2024-02-25"},{"testcd":"TOBUSE","test":"Tobacco Use","orres":"NEVER SMOKED","stresc":"NEVER SMOKED","visit":null,"dtc":"2024-02-25"}]},"section_2_medical_history":{"items":[{"seq":"1","term":"ASTHMA","decod":"ASTHMA","cat":"RESPIRATORY","scat":null,"presp":null,"occur":null,"status":null,"onset_dtc":"2016-02-27","end_dtc":null,"visit":null}]},"section_3_inclusion_exclusion":{"criteria":[]},"section_4_trial_participation":{"visits":[{"visitnum":"1.0","visit":"SCREENING","start_dtc":"2024-02-13","end_dtc":"2024-02-13","updes":null},{"visitnum":"2.0","visit":"RANDOMIZATION","start_dtc":"2024-03-08","end_dtc":"2024-03-08","updes":null},{"visitnum":"3.0","visit":"WEEK 4","start_dtc":"2024-04-03","end_dtc":"2024-04-03","updes":null},{"visitnum":"4.0","visit":"WEEK 12","start_dtc":"2024-06-05","end_dtc":"2024-06-05","updes":null},{"visitnum":"5.0","visit":"WEEK 24","start_dtc":"2024-08-22","end_dtc":"2024-08-22","updes":null},{"visitnum":"6.0","visit":"WEEK 36","start_dtc":"2024-11-19","end_dtc":"2024-11-19","updes":null},{"visitnum":"7.0","visit":"WEEK 52","start_dtc":"2025-03-04","end_dtc":"2025-03-04","updes":null},{"visitnum":"8.0","visit":"FOLLOW-UP","start_dtc":"2025-03-30","end_dtc":"2025-03-30","updes":null}],"epochs":[{"seq":"1","etcd":"SCRN","element":"Screening","start_dtc":"2024-02-23","end_dtc":"2024-03-08","updes":null},{"seq":"2","etcd":"TRT","element":"Treatment","start_dtc":"2024-03-08","end_dtc":"2025-03-07","updes":null},{"seq":"3","etcd":"FU","element":"Follow-up","start_dtc":"2025-03-07","end_dtc":"2025-04-05","updes":null}],"visit_count":8},"section_5_concomitant_medications":{"medications":[{"seq":"1","trt":"PARACETAMOL","decod":"PARACETAMOL","cat":"CONCOMITANT","dose":"500","doseu":null,"dosef":"PRN","route":"ORAL","indication":"BLOOD CREATININE INCREASED","start_dtc":"2024-07-23","end_dtc":"2024-08-13","ongoing":null,"visit":null},{"seq":"2","trt":"PARACETAMOL","decod":"PARACETAMOL","cat":"CONCOMITANT","dose":"500","doseu":null,"dosef":"PRN","route":"ORAL","indication":"CARDIAC FAILURE","start_dtc":"2024-08-11","end_dtc":"2024-08-17","ongoing":null,"visit":null},{"seq":"3","trt":"ORAL REHYDRATION SALTS","decod":"ORAL REHYDRATION SALTS","cat":"CONCOMITANT","dose":null,"doseu":null,"dosef":"PRN","route":"ORAL","indication":"DEHYDRATION","start_dtc":"2024-09-02","end_dtc":"2024-09-16","ongoing":null,"visit":null},{"seq":"4","trt":"NITROFURANTOIN","decod":"NITROFURANTOIN","cat":"CONCOMITANT","dose":"100.0","doseu":null,"dosef":"BID","route":"ORAL","indication":"URINARY TRACT INFECTION","start_dtc":"2025-01-17","end_dtc":"2025-02-02","ongoing":null,"visit":null}]},"section_6_exposure":{"exposure_as_administered":[{"seq":"1","trt":"EMPAGLIFLOZIN","dose":"10.0","doseu":null,"dosef":"QD","route":"ORAL","lot":null,"start_dtc":"2024-03-08","end_dtc":"2024-03-10","start_dy":"1","end_dy":"3","epoch":"TREATMENT","visit":null},{"seq":"2","trt":"EMPAGLIFLOZIN","dose":"5.0","doseu":null,"dosef":"QD","route":"ORAL","lot":null,"start_dtc":"2024-03-11","end_dtc":"2024-07-22","start_dy":"4","end_dy":"137","epoch":"TREATMENT","visit":null},{"seq":"3","trt":"EMPAGLIFLOZIN","dose":"5.0","doseu":null,"dosef":"QD","route":"ORAL","lot":null,"start_dtc":"2024-07-23","end_dtc":"2024-08-10","start_dy":"138","end_dy":"156","epoch":"TREATMENT","visit":null},{"seq":"4","trt":"EMPAGLIFLOZIN","dose":"5.0","doseu":null,"dosef":"QD","route":"ORAL","lot":null,"start_dtc":"2024-08-17","end_dtc":"2024-09-01","start_dy":"163","end_dy":"178","epoch":"TREATMENT","visit":null},{"seq":"5","trt":"EMPAGLIFLOZIN","dose":"5.0","doseu":null,"dosef":"QD","route":"ORAL","lot":null,"start_dtc":"2024-09-02","end_dtc":"2025-03-06","start_dy":"179","end_dy":"364","epoch":"TREATMENT","visit":null}],"exposure_as_collected":[{"seq":"1","trt":"EMPAGLIFLOZIN","dose":"10.0","doseu":null,"dosef":"QD","route":"ORAL","start_dtc":"2024-03-08","end_dtc":"2024-03-08","visit":"RANDOMIZATION"},{"seq":"2","trt":"EMPAGLIFLOZIN","dose":"10.0","doseu":null,"dosef":"QD","route":"ORAL","start_dtc":"2024-03-09","end_dtc":"2024-03-09","visit":"RANDOMIZATION"},{"seq":"3","trt":"EMPAGLIFLOZIN","dose":"10.0","doseu":null,"dosef":"QD","route":"ORAL","start_dtc":"2024-03-10","end_dtc":"2024-03-10","visit":"RANDOMIZATION"},{"seq":"4","trt":"EMPAGLIFLOZIN","dose":"5.0","doseu":null,"dosef":"QD","route":"ORAL","start_dtc":"2024-03-11","end_dtc":"2024-03-11","visit":"RANDOMIZATION"},{"seq":"5","trt":"EMPAGLIFLOZIN","dose":"5.0","doseu":null,"dosef":"QD","route":"ORAL","start_dtc":"2024-03-12","end_dtc":"2024-03-12","visit":null},{"seq":"6","trt":"EMPAGLIFLOZIN","dose":"5.0","doseu":null,"dosef":"QD","route":"ORAL","start_dtc":"2024-03-13","end_dtc":"2024-03-13","visit":null},{"seq":"7","trt":"EMPAGLIFLOZIN","dose":"5.0","doseu":null,"dosef":"QD","route":"ORAL","start_dtc":"2024-03-14","end_dtc":"2024-03-14","visit":null},{"seq":"8","trt":"EMPAGLIFLOZIN","dose":"5.0","doseu":null,"dosef":"QD","route":"ORAL","start_dtc":"2024-03-15","end_dtc":"2024-03-15","visit":null},{"seq":"9","trt":"EMPAGLIFLOZIN","dose":"5.0","doseu":null,"dosef":"QD","route":"ORAL","start_dtc":"2024-03-16","end_dtc":"2024-03-16","visit":null},{"seq":"10","trt":"EMPAGLIFLOZIN","dose":"5.0","doseu":null,"dosef":"QD","route":"ORAL","start_dtc":"2024-03-17","end_dtc":"2024-03-17","visit":null},{"seq":"11","trt":"EMPAGLIFLOZIN","dose":"5.0","doseu":null,"dosef":"QD","route":"ORAL","start_dtc":"2024-03-18","end_dtc":"2024-03-18","visit":null},{"seq":"12","trt":"EMPAGLIFLOZIN","dose":"5.0","doseu":null,"dosef":"QD","route":"ORAL","start_dtc":"2024-03-19","end_dtc":"2024-03-19","visit":null},{"seq":"13","trt":"EMPAGLIFLOZIN","dose":"5.0","doseu":null,"dosef":"QD","route":"ORAL","start_dtc":"2024-03-20","end_dtc":"2024-03-20","visit":null},{"seq":"14","trt":"EMPAGLIFLOZIN","dose":"5.0","doseu":null,"dosef":"QD","route":"ORAL","start_dtc":"2024-03-21","end_dtc":"2024-03-21","visit":null},{"seq":"15","trt":"EMPAGLIFLOZIN","dose":"5.0","doseu":null,"dosef":"QD","route":"ORAL","start_dtc":"2024-03-22","end_dtc":"2024-03-22","visit":null},{"seq":"16","trt":"EMPAGLIFLOZIN","dose":"5.0","doseu":null,"dosef":"QD","route":"ORAL","start_dtc":"2024-03-23","end_dtc":"2024-03-23","visit":null},{"seq":"17","trt":"EMPAGLIFLOZIN","dose":"5.0","doseu":null,"dosef":"QD","route":"ORAL","start_dtc":"2024-03-24","end_dtc":"2024-03-24","visit":null},{"seq":"18","trt":"EMPAGLIFLOZIN","dose":"5.0","doseu":null,"dosef":"QD","route":"ORAL","start_dtc":"2024-03-25","end_dtc":"2024-03-25","visit":null},{"seq":"19","trt":"EMPAGLIFLOZIN","dose":"5.0","doseu":null,"dosef":"QD","route":"ORAL","start_dtc":"2024-03-26","end_dtc":"2024-03-26","visit":null},{"seq":"20","trt":"EMPAGLIFLOZIN","dose":"5.0","doseu":null,"dosef":"QD","route":"ORAL","start_dtc":"2024-03-27","end_dtc":"2024-03-27","visit":null},{"seq":"21","trt":"EMPAGLIFLOZIN","dose":"5.0","doseu":null,"dosef":"QD","route":"ORAL","start_dtc":"2024-03-28","end_dtc":"2024-03-28","visit":null},{"seq":"22","trt":"EMPAGLIFLOZIN","dose":"5.0","doseu":null,"dosef":"QD","route":"ORAL","start_dtc":"2024-03-29","end_dtc":"2024-03-29","visit":null},{"seq":"23","trt":"EMPAGLIFLOZIN","dose":"5.0","doseu":null,"dosef":"QD","route":"ORAL","start_dtc":"2024-03-30","end_dtc":"2024-03-30","visit":null},{"seq":"24","trt":"EMPAGLIFLOZIN","dose":"5.0","doseu":null,"dosef":"QD","route":"ORAL","start_dtc":"2024-03-31","end_dtc":"2024-03-31","visit":null},{"seq":"25","trt":"EMPAGLIFLOZIN","dose":"5.0","doseu":null,"dosef":"QD","route":"ORAL","start_dtc":"2024-04-01","end_dtc":"2024-04-01","visit":null},{"seq":"26","trt":"EMPAGLIFLOZIN","dose":"5.0","doseu":null,"dosef":"QD","route":"ORAL","start_dtc":"2024-04-02","end_dtc":"2024-04-02","visit":"WEEK 4"},{"seq":"27","trt":"EMPAGLIFLOZIN","dose":"5.0","doseu":null,"dosef":"QD","route":"ORAL","start_dtc":"2024-04-03","end_dtc":"2024-04-03","visit":"WEEK 4"},{"seq":"28","trt":"EMPAGLIFLOZIN","dose":"5.0","doseu":null,"dosef":"QD","route":"ORAL","start_dtc":"2024-04-04","end_dtc":"2024-04-04","visit":"WEEK 4"},{"seq":"29","trt":"EMPAGLIFLOZIN","dose":"5.0","doseu":null,"dosef":"QD","route":"ORAL","start_dtc":"2024-04-05","end_dtc":"2024-04-05","visit":"WEEK 4"},{"seq":"30","trt":"EMPAGLIFLOZIN","dose":null,"doseu":null,"dosef":"QD","route":"ORAL","start_dtc":"2024-04-06","end_dtc":"2024-04-06","visit":"WEEK 4"},{"seq":"31","trt":"EMPAGLIFLOZIN","dose":"5.0","doseu":null,"dosef":"QD","route":"ORAL","start_dtc":"2024-04-07","end_dtc":"2024-04-07","visit":"WEEK 4"},{"seq":"32","trt":"EMPAGLIFLOZIN","dose":"5.0","doseu":null,"dosef":"QD","route":"ORAL","start_dtc":"2024-04-08","end_dtc":"2024-04-08","visit":"WEEK 4"},{"seq":"33","trt":"EMPAGLIFLOZIN","dose":"5.0","doseu":null,"dosef":"QD","route":"ORAL","start_dtc":"2024-04-09","end_dtc":"2024-04-09","visit":null},{"seq":"34","trt":"EMPAGLIFLOZIN","dose":"5.0","doseu":null,"dosef":"QD","route":"ORAL","start_dtc":"2024-04-10","end_dtc":"2024-04-10","visit":null},{"seq":"35","trt":"EMPAGLIFLOZIN","dose":"5.0","doseu":null,"dosef":"QD","route":"ORAL","start_dtc":"2024-04-11","end_dtc":"2024-04-11","visit":null},{"seq":"36","trt":"EMPAGLIFLOZIN","dose":"5.0","doseu":null,"dosef":"QD","route":"ORAL","start_dtc":"2024-04-12","end_dtc":"2024-04-12","visit":null},{"seq":"37","trt":"EMPAGLIFLOZIN","dose":"5.0","doseu":null,"dosef":"QD","route":"ORAL","start_dtc":"2024-04-13","end_dtc":"2024-04-13","visit":null},{"seq":"38","trt":"EMPAGLIFLOZIN","dose":"5.0","doseu":null,"dosef":"QD","route":"ORAL","start_dtc":"2024-04-14","end_dtc":"2024-04-14","visit":null},{"seq":"39","trt":"EMPAGLIFLOZIN","dose":"5.0","doseu":null,"dosef":"QD","route":"ORAL","start_dtc":"2024-04-15","end_dtc":"2024-04-15","visit":null},{"seq":"40","trt":"EMPAGLIFLOZIN","dose":"5.0","doseu":null,"dosef":"QD","route":"ORAL","start_dtc":"2024-04-16","end_dtc":"2024-04-16","visit":null},{"seq":"41","trt":"EMPAGLIFLOZIN","dose":"5.0","doseu":null,"dosef":"QD","route":"ORAL","start_dtc":"2024-04-17","end_dtc":"2024-04-17","visit":null},{"seq":"42","trt":"EMPAGLIFLOZIN","dose":"5.0","doseu":null,"dosef":"QD","route":"ORAL","start_dtc":"2024-04-18","end_dtc":"2024-04-18","visit":null},{"seq":"43","trt":"EMPAGLIFLOZIN","dose":"5.0","doseu":null,"dosef":"QD","route":"ORAL","start_dtc":"2024-04-19","end_dtc":"2024-04-19","visit":null},{"seq":"44","trt":"EMPAGLIFLOZIN","dose":"5.0","doseu":null,"dosef":"QD","route":"ORAL","start_dtc":"2024-04-20","end_dtc":"2024-04-20","visit":null},{"seq":"45","trt":"EMPAGLIFLOZIN","dose":"5.0","doseu":null,"dosef":"QD","route":"ORAL","start_dtc":"2024-04-21","end_dtc":"2024-04-21","visit":null},{"seq":"46","trt":"EMPAGLIFLOZIN","dose":"5.0","doseu":null,"dosef":"QD","route":"ORAL","start_dtc":"2024-04-22","end_dtc":"2024-04-22","visit":null},{"seq":"47","trt":"EMPAGLIFLOZIN","dose":"5.0","doseu":null,"dosef":"QD","route":"ORAL","start_dtc":"2024-04-23","end_dtc":"2024-04-23","visit":null},{"seq":"48","trt":"EMPAGLIFLOZIN","dose":"5.0","doseu":null,"dosef":"QD","route":"ORAL","start_dtc":"2024-04-24","end_dtc":"2024-04-24","visit":null},{"seq":"49","trt":"EMPAGLIFLOZIN","dose":"5.0","doseu":null,"dosef":"QD","route":"ORAL","start_dtc":"2024-04-25","end_dtc":"2024-04-25","visit":null},{"seq":"50","trt":"EMPAGLIFLOZIN","dose":"5.0","doseu":null,"dosef":"QD","route":"ORAL","start_dtc":"2024-04-26","end_dtc":"2024-04-26","visit":null},{"seq":"51","trt":"EMPAGLIFLOZIN","dose":"5.0","doseu":null,"dosef":"QD","route":"ORAL","start_dtc":"2024-04-27","end_dtc":"2024-04-27","visit":null},{"seq":"52","trt":"EMPAGLIFLOZIN","dose":"5.0","doseu":null,"dosef":"QD","route":"ORAL","start_dtc":"2024-04-28","end_dtc":"2024-04-28","visit":null},{"seq":"53","trt":"EMPAGLIFLOZIN","dose":"5.0","doseu":null,"dosef":"QD","route":"ORAL","start_dtc":"2024-04-29","end_dtc":"2024-04-29","visit":null},{"seq":"54","trt":"EMPAGLIFLOZIN","dose":"5.0","doseu":null,"dosef":"QD","route":"ORAL","start_dtc":"2024-04-30","end_dtc":"2024-04-30","visit":null},{"seq":"55","trt":"EMPAGLIFLOZIN","dose":"5.0","doseu":null,"dosef":"QD","route":"ORAL","start_dtc":"2024-05-01","end_dtc":"2024-05-01","visit":null},{"seq":"56","trt":"EMPAGLIFLOZIN","dose":"5.0","doseu":null,"dosef":"QD","route":"ORAL","start_dtc":"2024-05-02","end_dtc":"2024-05-02","visit":null},{"seq":"57","trt":"EMPAGLIFLOZIN","dose":"5.0","doseu":null,"dosef":"QD","route":"ORAL","start_dtc":"2024-05-03","end_dtc":"2024-05-03","visit":null},{"seq":"58","trt":"EMPAGLIFLOZIN","dose":"5.0","doseu":null,"dosef":"QD","route":"ORAL","start_dtc":"2024-05-04","end_dtc":"2024-05-04","visit":null},{"seq":"59","trt":"EMPAGLIFLOZIN","dose":"5.0","doseu":null,"dosef":"QD","route":"ORAL","start_dtc":"2024-05-05","end_dtc":"2024-05-05","visit":null},{"seq":"60","trt":"EMPAGLIFLOZIN","dose":"5.0","doseu":null,"dosef":"QD","route":"ORAL","start_dtc":"2024-05-06","end_dtc":"2024-05-06","visit":null},{"seq":"61","trt":"EMPAGLIFLOZIN","dose":"5.0","doseu":null,"dosef":"QD","route":"ORAL","start_dtc":"2024-05-07","end_dtc":"2024-05-07","visit":null},{"seq":"62","trt":"EMPAGLIFLOZIN","dose":"5.0","doseu":null,"dosef":"QD","route":"ORAL","start_dtc":"2024-05-08","end_dtc":"2024-05-08","visit":null},{"seq":"63","trt":"EMPAGLIFLOZIN","dose":"5.0","doseu":null,"dosef":"QD","route":"ORAL","start_dtc":"2024-05-09","end_dtc":"2024-05-09","visit":null},{"seq":"64","trt":"EMPAGLIFLOZIN","dose":"5.0","doseu":null,"dosef":"QD","route":"ORAL","start_dtc":"2024-05-10","end_dtc":"2024-05-10","visit":null},{"seq":"65","trt":"EMPAGLIFLOZIN","dose":"5.0","doseu":null,"dosef":"QD","route":"ORAL","start_dtc":"2024-05-11","end_dtc":"2024-05-11","visit":null},{"seq":"66","trt":"EMPAGLIFLOZIN","dose":"5.0","doseu":null,"dosef":"QD","route":"ORAL","start_dtc":"2024-05-12","end_dtc":"2024-05-12","visit":null},{"seq":"67","trt":"EMPAGLIFLOZIN","dose":"5.0","doseu":null,"dosef":"QD","route":"ORAL","start_dtc":"2024-05-13","end_dtc":"2024-05-13","visit":null},{"seq":"68","trt":"EMPAGLIFLOZIN","dose":"5.0","doseu":null,"dosef":"QD","route":"ORAL","start_dtc":"2024-05-14","end_dtc":"2024-05-14","visit":null},{"seq":"69","trt":"EMPAGLIFLOZIN","dose":"5.0","doseu":null,"dosef":"QD","route":"ORAL","start_dtc":"2024-05-15","end_dtc":"2024-05-15","visit":null},{"seq":"70","trt":"EMPAGLIFLOZIN","dose":"5.0","doseu":null,"dosef":"QD","route":"ORAL","start_dtc":"2024-05-16","end_dtc":"2024-05-16","visit":null},{"seq":"71","trt":"EMPAGLIFLOZIN","dose":"5.0","doseu":null,"dosef":"QD","route":"ORAL","start_dtc":"2024-05-17","end_dtc":"2024-05-17","visit":null},{"seq":"72","trt":"EMPAGLIFLOZIN","dose":"5.0","doseu":null,"dosef":"QD","route":"ORAL","start_dtc":"2024-05-18","end_dtc":"2024-05-18","visit":null},{"seq":"73","trt":"EMPAGLIFLOZIN","dose":"5.0","doseu":null,"dosef":"QD","route":"ORAL","start_dtc":"2024-05-19","end_dtc":"2024-05-19","visit":null},{"seq":"74","trt":"EMPAGLIFLOZIN","dose":"5.0","doseu":null,"dosef":"QD","route":"ORAL","start_dtc":"2024-05-20","end_dtc":"2024-05-20","visit":null},{"seq":"75","trt":"EMPAGLIFLOZIN","dose":"5.0","doseu":null,"dosef":"QD","route":"ORAL","start_dtc":"2024-05-21","end_dtc":"2024-05-21","visit":null},{"seq":"76","trt":"EMPAGLIFLOZIN","dose":"5.0","doseu":null,"dosef":"QD","route":"ORAL","start_dtc":"2024-05-22","end_dtc":"2024-05-22","visit":null},{"seq":"77","trt":"EMPAGLIFLOZIN","dose":"5.0","doseu":null,"dosef":"QD","route":"ORAL","start_dtc":"2024-05-23","end_dtc":"2024-05-23","visit":null},{"seq":"78","trt":"EMPAGLIFLOZIN","dose":"5.0","doseu":null,"dosef":"QD","route":"ORAL","start_dtc":"2024-05-24","end_dtc":"2024-05-24","visit":null},{"seq":"79","trt":"EMPAGLIFLOZIN","dose":"5.0","doseu":null,"dosef":"QD","route":"ORAL","start_dtc":"2024-05-25","end_dtc":"2024-05-25","visit":null},{"seq":"80","trt":"EMPAGLIFLOZIN","dose":"5.0","doseu":null,"dosef":"QD","route":"ORAL","start_dtc":"2024-05-26","end_dtc":"2024-05-26","visit":null},{"seq":"81","trt":"EMPAGLIFLOZIN","dose":"5.0","doseu":null,"dosef":"QD","route":"ORAL","start_dtc":"2024-05-27","end_dtc":"2024-05-27","visit":null},{"seq":"82","trt":"EMPAGLIFLOZIN","dose":"5.0","doseu":null,"dosef":"QD","route":"ORAL","start_dtc":"2024-05-28","end_dtc":"2024-05-28","visit":"WEEK 12"},{"seq":"83","trt":"EMPAGLIFLOZIN","dose":"5.0","doseu":null,"dosef":"QD","route":"ORAL","start_dtc":"2024-05-29","end_dtc":"2024-05-29","visit":"WEEK 12"},{"seq":"84","trt":"EMPAGLIFLOZIN","dose":"5.0","doseu":null,"dosef":"QD","route":"ORAL","start_dtc":"2024-05-30","end_dtc":"2024-05-30","visit":"WEEK 12"},{"seq":"85","trt":"EMPAGLIFLOZIN","dose":"5.0","doseu":null,"dosef":"QD","route":"ORAL","start_dtc":"2024-05-31","end_dtc":"2024-05-31","visit":"WEEK 12"},{"seq":"86","trt":"EMPAGLIFLOZIN","dose":"5.0","doseu":null,"dosef":"QD","route":"ORAL","start_dtc":"2024-06-01","end_dtc":"2024-06-01","visit":"WEEK 12"},{"seq":"87","trt":"EMPAGLIFLOZIN","dose":"5.0","doseu":null,"dosef":"QD","route":"ORAL","start_dtc":"2024-06-02","end_dtc":"2024-06-02","visit":"WEEK 12"},{"seq":"88","trt":"EMPAGLIFLOZIN","dose":"5.0","doseu":null,"dosef":"QD","route":"ORAL","start_dtc":"2024-06-03","end_dtc":"2024-06-03","visit":"WEEK 12"},{"seq":"89","trt":"EMPAGLIFLOZIN","dose":"5.0","doseu":null,"dosef":"QD","route":"ORAL","start_dtc":"2024-06-04","end_dtc":"2024-06-04","visit":null},{"seq":"90","trt":"EMPAGLIFLOZIN","dose":"5.0","doseu":null,"dosef":"QD","route":"ORAL","start_dtc":"2024-06-05","end_dtc":"2024-06-05","visit":null},{"seq":"91","trt":"EMPAGLIFLOZIN","dose":"5.0","doseu":null,"dosef":"QD","route":"ORAL","start_dtc":"2024-06-06","end_dtc":"2024-06-06","visit":null},{"seq":"92","trt":"EMPAGLIFLOZIN","dose":"5.0","doseu":null,"dosef":"QD","route":"ORAL","start_dtc":"2024-06-07","end_dtc":"2024-06-07","visit":null},{"seq":"93","trt":"EMPAGLIFLOZIN","dose":"5.0","doseu":null,"dosef":"QD","route":"ORAL","start_dtc":"2024-06-08","end_dtc":"2024-06-08","visit":null},{"seq":"94","trt":"EMPAGLIFLOZIN","dose":"5.0","doseu":null,"dosef":"QD","route":"ORAL","start_dtc":"2024-06-09","end_dtc":"2024-06-09","visit":null},{"seq":"95","trt":"EMPAGLIFLOZIN","dose":"5.0","doseu":null,"dosef":"QD","route":"ORAL","start_dtc":"2024-06-10","end_dtc":"2024-06-10","visit":null},{"seq":"96","trt":"EMPAGLIFLOZIN","dose":"5.0","doseu":null,"dosef":"QD","route":"ORAL","start_dtc":"2024-06-11","end_dtc":"2024-06-11","visit":null},{"seq":"97","trt":"EMPAGLIFLOZIN","dose":"5.0","doseu":null,"dosef":"QD","route":"ORAL","start_dtc":"2024-06-12","end_dtc":"2024-06-12","visit":null},{"seq":"98","trt":"EMPAGLIFLOZIN","dose":"5.0","doseu":null,"dosef":"QD","route":"ORAL","start_dtc":"2024-06-13","end_dtc":"2024-06-13","visit":null},{"seq":"99","trt":"EMPAGLIFLOZIN","dose":"5.0","doseu":null,"dosef":"QD","route":"ORAL","start_dtc":"2024-06-14","end_dtc":"2024-06-14","visit":null},{"seq":"100","trt":"EMPAGLIFLOZIN","dose":"5.0","doseu":null,"dosef":"QD","route":"ORAL","start_dtc":"2024-06-15","end_dtc":"2024-06-15","visit":null},{"seq":"101","trt":"EMPAGLIFLOZIN","dose":"5.0","doseu":null,"dosef":"QD","route":"ORAL","start_dtc":"2024-06-16","end_dtc":"2024-06-16","visit":null},{"seq":"102","trt":"EMPAGLIFLOZIN","dose":"5.0","doseu":null,"dosef":"QD","route":"ORAL","start_dtc":"2024-06-17","end_dtc":"2024-06-17","visit":null},{"seq":"103","trt":"EMPAGLIFLOZIN","dose":"5.0","doseu":null,"dosef":"QD","route":"ORAL","start_dtc":"2024-06-18","end_dtc":"2024-06-18","visit":null},{"seq":"104","trt":"EMPAGLIFLOZIN","dose":"5.0","doseu":null,"dosef":"QD","route":"ORAL","start_dtc":"2024-06-19","end_dtc":"2024-06-19","visit":null},{"seq":"105","trt":"EMPAGLIFLOZIN","dose":"5.0","doseu":null,"dosef":"QD","route":"ORAL","start_dtc":"2024-06-20","end_dtc":"2024-06-20","visit":null},{"seq":"106","trt":"EMPAGLIFLOZIN","dose":"5.0","doseu":null,"dosef":"QD","route":"ORAL","start_dtc":"2024-06-21","end_dtc":"2024-06-21","visit":null},{"seq":"107","trt":"EMPAGLIFLOZIN","dose":"5.0","doseu":null,"dosef":"QD","route":"ORAL","start_dtc":"2024-06-22","end_dtc":"2024-06-22","visit":null},{"seq":"108","trt":"EMPAGLIFLOZIN","dose":"5.0","doseu":null,"dosef":"QD","route":"ORAL","start_dtc":"2024-06-23","end_dtc":"2024-06-23","visit":null},{"seq":"109","trt":"EMPAGLIFLOZIN","dose":"5.0","doseu":null,"dosef":"QD","route":"ORAL","start_dtc":"2024-06-24","end_dtc":"2024-06-24","visit":null},{"seq":"110","trt":"EMPAGLIFLOZIN","dose":"5.0","doseu":null,"dosef":"QD","route":"ORAL","start_dtc":"2024-06-25","end_dtc":"2024-06-25","visit":null},{"seq":"111","trt":"EMPAGLIFLOZIN","dose":"5.0","doseu":null,"dosef":"QD","route":"ORAL","start_dtc":"2024-06-26","end_dtc":"2024-06-26","visit":null},{"seq":"112","trt":"EMPAGLIFLOZIN","dose":"5.0","doseu":null,"dosef":"QD","route":"ORAL","start_dtc":"2024-06-27","end_dtc":"2024-06-27","visit":null},{"seq":"113","trt":"EMPAGLIFLOZIN","dose":"5.0","doseu":null,"dosef":"QD","route":"ORAL","start_dtc":"2024-06-28","end_dtc":"2024-06-28","visit":null},{"seq":"114","trt":"EMPAGLIFLOZIN","dose":"5.0","doseu":null,"dosef":"QD","route":"ORAL","start_dtc":"2024-06-29","end_dtc":"2024-06-29","visit":null},{"seq":"115","trt":"EMPAGLIFLOZIN","dose":"5.0","doseu":null,"dosef":"QD","route":"ORAL","start_dtc":"2024-06-30","end_dtc":"2024-06-30","visit":null},{"seq":"116","trt":"EMPAGLIFLOZIN","dose":"5.0","doseu":null,"dosef":"QD","route":"ORAL","start_dtc":"2024-07-01","end_dtc":"2024-07-01","visit":null},{"seq":"117","trt":"EMPAGLIFLOZIN","dose":"5.0","doseu":null,"dosef":"QD","route":"ORAL","start_dtc":"2024-07-02","end_dtc":"2024-07-02","visit":null},{"seq":"118","trt":"EMPAGLIFLOZIN","dose":"5.0","doseu":null,"dosef":"QD","route":"ORAL","start_dtc":"2024-07-03","end_dtc":"2024-07-03","visit":null},{"seq":"119","trt":"EMPAGLIFLOZIN","dose":"5.0","doseu":null,"dosef":"QD","route":"ORAL","start_dtc":"2024-07-04","end_dtc":"2024-07-04","visit":null},{"seq":"120","trt":"EMPAGLIFLOZIN","dose":"5.0","doseu":null,"dosef":"QD","route":"ORAL","start_dtc":"2024-07-05","end_dtc":"2024-07-05","visit":null},{"seq":"121","trt":"EMPAGLIFLOZIN","dose":"5.0","doseu":null,"dosef":"QD","route":"ORAL","start_dtc":"2024-07-06","end_dtc":"2024-07-06","visit":null},{"seq":"122","trt":"EMPAGLIFLOZIN","dose":"5.0","doseu":null,"dosef":"QD","route":"ORAL","start_dtc":"2024-07-07","end_dtc":"2024-07-07","visit":null},{"seq":"123","trt":"EMPAGLIFLOZIN","dose":"5.0","doseu":null,"dosef":"QD","route":"ORAL","start_dtc":"2024-07-08","end_dtc":"2024-07-08","visit":null},{"seq":"124","trt":"EMPAGLIFLOZIN","dose":"5.0","doseu":null,"dosef":"QD","route":"ORAL","start_dtc":"2024-07-09","end_dtc":"2024-07-09","visit":null},{"seq":"125","trt":"EMPAGLIFLOZIN","dose":"5.0","doseu":null,"dosef":"QD","route":"ORAL","start_dtc":"2024-07-10","end_dtc":"2024-07-10","visit":null},{"seq":"126","trt":"EMPAGLIFLOZIN","dose":"5.0","doseu":null,"dosef":"QD","route":"ORAL","start_dtc":"2024-07-11","end_dtc":"2024-07-11","visit":null},{"seq":"127","trt":"EMPAGLIFLOZIN","dose":"5.0","doseu":null,"dosef":"QD","route":"ORAL","start_dtc":"2024-07-12","end_dtc":"2024-07-12","visit":null},{"seq":"128","trt":"EMPAGLIFLOZIN","dose":"5.0","doseu":null,"dosef":"QD","route":"ORAL","start_dtc":"2024-07-13","end_dtc":"2024-07-13","visit":null},{"seq":"129","trt":"EMPAGLIFLOZIN","dose":"5.0","doseu":null,"dosef":"QD","route":"ORAL","start_dtc":"2024-07-14","end_dtc":"2024-07-14","visit":null},{"seq":"130","trt":"EMPAGLIFLOZIN","dose":"5.0","doseu":null,"dosef":"QD","route":"ORAL","start_dtc":"2024-07-15","end_dtc":"2024-07-15","visit":null},{"seq":"131","trt":"EMPAGLIFLOZIN","dose":"5.0","doseu":null,"dosef":"QD","route":"ORAL","start_dtc":"2024-07-16","end_dtc":"2024-07-16","visit":null},{"seq":"132","trt":"EMPAGLIFLOZIN","dose":"5.0","doseu":null,"dosef":"QD","route":"ORAL","start_dtc":"2024-07-17","end_dtc":"2024-07-17","visit":null},{"seq":"133","trt":"EMPAGLIFLOZIN","dose":"5.0","doseu":null,"dosef":"QD","route":"ORAL","start_dtc":"2024-07-18","end_dtc":"2024-07-18","visit":null},{"seq":"134","trt":"EMPAGLIFLOZIN","dose":"5.0","doseu":null,"dosef":"QD","route":"ORAL","start_dtc":"2024-07-19","end_dtc":"2024-07-19","visit":null},{"seq":"135","trt":"EMPAGLIFLOZIN","dose":"5.0","doseu":null,"dosef":"QD","route":"ORAL","start_dtc":"2024-07-20","end_dtc":"2024-07-20","visit":null},{"seq":"136","trt":"EMPAGLIFLOZIN","dose":"5.0","doseu":null,"dosef":"QD","route":"ORAL","start_dtc":"2024-07-21","end_dtc":"2024-07-21","visit":null},{"seq":"137","trt":"EMPAGLIFLOZIN","dose":"5.0","doseu":null,"dosef":"QD","route":"ORAL","start_dtc":"2024-07-22","end_dtc":"2024-07-22","visit":null},{"seq":"138","trt":"EMPAGLIFLOZIN","dose":"5.0","doseu":null,"dosef":"QD","route":"ORAL","start_dtc":"2024-07-23","end_dtc":"2024-07-23","visit":null},{"seq":"139","trt":"EMPAGLIFLOZIN","dose":"5.0","doseu":null,"dosef":"QD","route":"ORAL","start_dtc":"2024-07-24","end_dtc":"2024-07-24","visit":null},{"seq":"140","trt":"EMPAGLIFLOZIN","dose":"5.0","doseu":null,"dosef":"QD","route":"ORAL","start_dtc":"2024-07-25","end_dtc":"2024-07-25","visit":null},{"seq":"141","trt":"EMPAGLIFLOZIN","dose":"5.0","doseu":null,"dosef":"QD","route":"ORAL","start_dtc":"2024-07-26","end_dtc":"2024-07-26","visit":null},{"seq":"142","trt":"EMPAGLIFLOZIN","dose":"5.0","doseu":null,"dosef":"QD","route":"ORAL","start_dtc":"2024-07-27","end_dtc":"2024-07-27","visit":null},{"seq":"143","trt":"EMPAGLIFLOZIN","dose":"5.0","doseu":null,"dosef":"QD","route":"ORAL","start_dtc":"2024-07-28","end_dtc":"2024-07-28","visit":null},{"seq":"144","trt":"EMPAGLIFLOZIN","dose":"5.0","doseu":null,"dosef":"QD","route":"ORAL","start_dtc":"2024-07-29","end_dtc":"2024-07-29","visit":null},{"seq":"145","trt":"EMPAGLIFLOZIN","dose":"5.0","doseu":null,"dosef":"QD","route":"ORAL","start_dtc":"2024-07-30","end_dtc":"2024-07-30","visit":null},{"seq":"146","trt":"EMPAGLIFLOZIN","dose":"5.0","doseu":null,"dosef":"QD","route":"ORAL","start_dtc":"2024-07-31","end_dtc":"2024-07-31","visit":null},{"seq":"147","trt":"EMPAGLIFLOZIN","dose":"5.0","doseu":null,"dosef":"QD","route":"ORAL","start_dtc":"2024-08-01","end_dtc":"2024-08-01","visit":null},{"seq":"148","trt":"EMPAGLIFLOZIN","dose":"5.0","doseu":null,"dosef":"QD","route":"ORAL","start_dtc":"2024-08-02","end_dtc":"2024-08-02","visit":null},{"seq":"149","trt":"EMPAGLIFLOZIN","dose":"5.0","doseu":null,"dosef":"QD","route":"ORAL","start_dtc":"2024-08-03","end_dtc":"2024-08-03","visit":null},{"seq":"150","trt":"EMPAGLIFLOZIN","dose":"5.0","doseu":null,"dosef":"QD","route":"ORAL","start_dtc":"2024-08-04","end_dtc":"2024-08-04","visit":null},{"seq":"151","trt":"EMPAGLIFLOZIN","dose":"5.0","doseu":null,"dosef":"QD","route":"ORAL","start_dtc":"2024-08-05","end_dtc":"2024-08-05","visit":null},{"seq":"152","trt":"EMPAGLIFLOZIN","dose":"5.0","doseu":null,"dosef":"QD","route":"ORAL","start_dtc":"2024-08-06","end_dtc":"2024-08-06","visit":null},{"seq":"153","trt":"EMPAGLIFLOZIN","dose":"5.0","doseu":null,"dosef":"QD","route":"ORAL","start_dtc":"2024-08-07","end_dtc":"2024-08-07","visit":null},{"seq":"154","trt":"EMPAGLIFLOZIN","dose":"5.0","doseu":null,"dosef":"QD","route":"ORAL","start_dtc":"2024-08-08","end_dtc":"2024-08-08","visit":null},{"seq":"155","trt":"EMPAGLIFLOZIN","dose":"5.0","doseu":null,"dosef":"QD","route":"ORAL","start_dtc":"2024-08-09","end_dtc":"2024-08-09","visit":null},{"seq":"156","trt":"EMPAGLIFLOZIN","dose":"5.0","doseu":null,"dosef":"QD","route":"ORAL","start_dtc":"2024-08-10","end_dtc":"2024-08-10","visit":null},{"seq":"157","trt":"EMPAGLIFLOZIN","dose":"5.0","doseu":null,"dosef":"QD","route":"ORAL","start_dtc":"2024-08-17","end_dtc":"2024-08-17","visit":null},{"seq":"158","trt":"EMPAGLIFLOZIN","dose":"5.0","doseu":null,"dosef":"QD","route":"ORAL","start_dtc":"2024-08-18","end_dtc":"2024-08-18","visit":null},{"seq":"159","trt":"EMPAGLIFLOZIN","dose":"5.0","doseu":null,"dosef":"QD","route":"ORAL","start_dtc":"2024-08-19","end_dtc":"2024-08-19","visit":null},{"seq":"160","trt":"EMPAGLIFLOZIN","dose":"5.0","doseu":null,"dosef":"QD","route":"ORAL","start_dtc":"2024-08-20","end_dtc":"2024-08-20","visit":"WEEK 24"},{"seq":"161","trt":"EMPAGLIFLOZIN","dose":"5.0","doseu":null,"dosef":"QD","route":"ORAL","start_dtc":"2024-08-21","end_dtc":"2024-08-21","visit":"WEEK 24"},{"seq":"162","trt":"EMPAGLIFLOZIN","dose":"5.0","doseu":null,"dosef":"QD","route":"ORAL","start_dtc":"2024-08-22","end_dtc":"2024-08-22","visit":"WEEK 24"},{"seq":"163","trt":"EMPAGLIFLOZIN","dose":"5.0","doseu":null,"dosef":"QD","route":"ORAL","start_dtc":"2024-08-23","end_dtc":"2024-08-23","visit":"WEEK 24"},{"seq":"164","trt":"EMPAGLIFLOZIN","dose":"5.0","doseu":null,"dosef":"QD","route":"ORAL","start_dtc":"2024-08-24","end_dtc":"2024-08-24","visit":"WEEK 24"},{"seq":"165","trt":"EMPAGLIFLOZIN","dose":"5.0","doseu":null,"dosef":"QD","route":"ORAL","start_dtc":"2024-08-25","end_dtc":"2024-08-25","visit":"WEEK 24"},{"seq":"166","trt":"EMPAGLIFLOZIN","dose":"5.0","doseu":null,"dosef":"QD","route":"ORAL","start_dtc":"2024-08-26","end_dtc":"2024-08-26","visit":"WEEK 24"},{"seq":"167","trt":"EMPAGLIFLOZIN","dose":"5.0","doseu":null,"dosef":"QD","route":"ORAL","start_dtc":"2024-08-27","end_dtc":"2024-08-27","visit":null},{"seq":"168","trt":"EMPAGLIFLOZIN","dose":"5.0","doseu":null,"dosef":"QD","route":"ORAL","start_dtc":"2024-08-28","end_dtc":"2024-08-28","visit":null},{"seq":"169","trt":"EMPAGLIFLOZIN","dose":"5.0","doseu":null,"dosef":"QD","route":"ORAL","start_dtc":"2024-08-29","end_dtc":"2024-08-29","visit":null},{"seq":"170","trt":"EMPAGLIFLOZIN","dose":"5.0","doseu":null,"dosef":"QD","route":"ORAL","start_dtc":"2024-08-30","end_dtc":"2024-08-30","visit":null},{"seq":"171","trt":"EMPAGLIFLOZIN","dose":"5.0","doseu":null,"dosef":"QD","route":"ORAL","start_dtc":"2024-08-31","end_dtc":"2024-08-31","visit":null},{"seq":"172","trt":"EMPAGLIFLOZIN","dose":"5.0","doseu":null,"dosef":"QD","route":"ORAL","start_dtc":"2024-09-01","end_dtc":"2024-09-01","visit":null},{"seq":"173","trt":"EMPAGLIFLOZIN","dose":"5.0","doseu":null,"dosef":"QD","route":"ORAL","start_dtc":"2024-09-02","end_dtc":"2024-09-02","visit":null},{"seq":"174","trt":"EMPAGLIFLOZIN","dose":"5.0","doseu":null,"dosef":"QD","route":"ORAL","start_dtc":"2024-09-03","end_dtc":"2024-09-03","visit":null},{"seq":"175","trt":"EMPAGLIFLOZIN","dose":"5.0","doseu":null,"dosef":"QD","route":"ORAL","start_dtc":"2024-09-04","end_dtc":"2024-09-04","visit":null},{"seq":"176","trt":"EMPAGLIFLOZIN","dose":"5.0","doseu":null,"dosef":"QD","route":"ORAL","start_dtc":"2024-09-05","end_dtc":"2024-09-05","visit":null},{"seq":"177","trt":"EMPAGLIFLOZIN","dose":"5.0","doseu":null,"dosef":"QD","route":"ORAL","start_dtc":"2024-09-06","end_dtc":"2024-09-06","visit":null},{"seq":"178","trt":"EMPAGLIFLOZIN","dose":"5.0","doseu":null,"dosef":"QD","route":"ORAL","start_dtc":"2024-09-07","end_dtc":"2024-09-07","visit":null},{"seq":"179","trt":"EMPAGLIFLOZIN","dose":"5.0","doseu":null,"dosef":"QD","route":"ORAL","start_dtc":"2024-09-08","end_dtc":"2024-09-08","visit":null},{"seq":"180","trt":"EMPAGLIFLOZIN","dose":"5.0","doseu":null,"dosef":"QD","route":"ORAL","start_dtc":"2024-09-09","end_dtc":"2024-09-09","visit":null},{"seq":"181","trt":"EMPAGLIFLOZIN","dose":"5.0","doseu":null,"dosef":"QD","route":"ORAL","start_dtc":"2024-09-10","end_dtc":"2024-09-10","visit":null},{"seq":"182","trt":"EMPAGLIFLOZIN","dose":"5.0","doseu":null,"dosef":"QD","route":"ORAL","start_dtc":"2024-09-11","end_dtc":"2024-09-11","visit":null},{"seq":"183","trt":"EMPAGLIFLOZIN","dose":"5.0","doseu":null,"dosef":"QD","route":"ORAL","start_dtc":"2024-09-12","end_dtc":"2024-09-12","visit":null},{"seq":"184","trt":"EMPAGLIFLOZIN","dose":"5.0","doseu":null,"dosef":"QD","route":"ORAL","start_dtc":"2024-09-13","end_dtc":"2024-09-13","visit":null},{"seq":"185","trt":"EMPAGLIFLOZIN","dose":"5.0","doseu":null,"dosef":"QD","route":"ORAL","start_dtc":"2024-09-14","end_dtc":"2024-09-14","visit":null},{"seq":"186","trt":"EMPAGLIFLOZIN","dose":"5.0","doseu":null,"dosef":"QD","route":"ORAL","start_dtc":"2024-09-15","end_dtc":"2024-09-15","visit":null},{"seq":"187","trt":"EMPAGLIFLOZIN","dose":"5.0","doseu":null,"dosef":"QD","route":"ORAL","start_dtc":"2024-09-16","end_dtc":"2024-09-16","visit":null},{"seq":"188","trt":"EMPAGLIFLOZIN","dose":"5.0","doseu":null,"dosef":"QD","route":"ORAL","start_dtc":"2024-09-17","end_dtc":"2024-09-17","visit":null},{"seq":"189","trt":"EMPAGLIFLOZIN","dose":"5.0","doseu":null,"dosef":"QD","route":"ORAL","start_dtc":"2024-09-18","end_dtc":"2024-09-18","visit":null},{"seq":"190","trt":"EMPAGLIFLOZIN","dose":"5.0","doseu":null,"dosef":"QD","route":"ORAL","start_dtc":"2024-09-19","end_dtc":"2024-09-19","visit":null},{"seq":"191","trt":"EMPAGLIFLOZIN","dose":"5.0","doseu":null,"dosef":"QD","route":"ORAL","start_dtc":"2024-09-20","end_dtc":"2024-09-20","visit":null},{"seq":"192","trt":"EMPAGLIFLOZIN","dose":"5.0","doseu":null,"dosef":"QD","route":"ORAL","start_dtc":"2024-09-21","end_dtc":"2024-09-21","visit":null},{"seq":"193","trt":"EMPAGLIFLOZIN","dose":"5.0","doseu":null,"dosef":"QD","route":"ORAL","start_dtc":"2024-09-22","end_dtc":"2024-09-22","visit":null},{"seq":"194","trt":"EMPAGLIFLOZIN","dose":null,"doseu":null,"dosef":"QD","route":"ORAL","start_dtc":"2024-09-23","end_dtc":"2024-09-23","visit":null},{"seq":"195","trt":"EMPAGLIFLOZIN","dose":"5.0","doseu":null,"dosef":"QD","route":"ORAL","start_dtc":"2024-09-24","end_dtc":"2024-09-24","visit":null},{"seq":"196","trt":"EMPAGLIFLOZIN","dose":"5.0","doseu":null,"dosef":"QD","route":"ORAL","start_dtc":"2024-09-25","end_dtc":"2024-09-25","visit":null},{"seq":"197","trt":"EMPAGLIFLOZIN","dose":"5.0","doseu":null,"dosef":"QD","route":"ORAL","start_dtc":"2024-09-26","end_dtc":"2024-09-26","visit":null},{"seq":"198","trt":"EMPAGLIFLOZIN","dose":"5.0","doseu":null,"dosef":"QD","route":"ORAL","start_dtc":"2024-09-27","end_dtc":"2024-09-27","visit":null},{"seq":"199","trt":"EMPAGLIFLOZIN","dose":"5.0","doseu":null,"dosef":"QD","route":"ORAL","start_dtc":"2024-09-28","end_dtc":"2024-09-28","visit":null},{"seq":"200","trt":"EMPAGLIFLOZIN","dose":"5.0","doseu":null,"dosef":"QD","route":"ORAL","start_dtc":"2024-09-29","end_dtc":"2024-09-29","visit":null},{"seq":"201","trt":"EMPAGLIFLOZIN","dose":"5.0","doseu":null,"dosef":"QD","route":"ORAL","start_dtc":"2024-09-30","end_dtc":"2024-09-30","visit":null},{"seq":"202","trt":"EMPAGLIFLOZIN","dose":"5.0","doseu":null,"dosef":"QD","route":"ORAL","start_dtc":"2024-10-01","end_dtc":"2024-10-01","visit":null},{"seq":"203","trt":"EMPAGLIFLOZIN","dose":"5.0","doseu":null,"dosef":"QD","route":"ORAL","start_dtc":"2024-10-02","end_dtc":"2024-10-02","visit":null},{"seq":"204","trt":"EMPAGLIFLOZIN","dose":"5.0","doseu":null,"dosef":"QD","route":"ORAL","start_dtc":"2024-10-03","end_dtc":"2024-10-03","visit":null},{"seq":"205","trt":"EMPAGLIFLOZIN","dose":"5.0","doseu":null,"dosef":"QD","route":"ORAL","start_dtc":"2024-10-04","end_dtc":"2024-10-04","visit":null},{"seq":"206","trt":"EMPAGLIFLOZIN","dose":"5.0","doseu":null,"dosef":"QD","route":"ORAL","start_dtc":"2024-10-05","end_dtc":"2024-10-05","visit":null},{"seq":"207","trt":"EMPAGLIFLOZIN","dose":"5.0","doseu":null,"dosef":"QD","route":"ORAL","start_dtc":"2024-10-06","end_dtc":"2024-10-06","visit":null},{"seq":"208","trt":"EMPAGLIFLOZIN","dose":"5.0","doseu":null,"dosef":"QD","route":"ORAL","start_dtc":"2024-10-07","end_dtc":"2024-10-07","visit":null},{"seq":"209","trt":"EMPAGLIFLOZIN","dose":"5.0","doseu":null,"dosef":"QD","route":"ORAL","start_dtc":"2024-10-08","end_dtc":"2024-10-08","visit":null},{"seq":"210","trt":"EMPAGLIFLOZIN","dose":"5.0","doseu":null,"dosef":"QD","route":"ORAL","start_dtc":"2024-10-09","end_dtc":"2024-10-09","visit":null},{"seq":"211","trt":"EMPAGLIFLOZIN","dose":"5.0","doseu":null,"dosef":"QD","route":"ORAL","start_dtc":"2024-10-10","end_dtc":"2024-10-10","visit":null},{"seq":"212","trt":"EMPAGLIFLOZIN","dose":"5.0","doseu":null,"dosef":"QD","route":"ORAL","start_dtc":"2024-10-11","end_dtc":"2024-10-11","visit":null},{"seq":"213","trt":"EMPAGLIFLOZIN","dose":"5.0","doseu":null,"dosef":"QD","route":"ORAL","start_dtc":"2024-10-12","end_dtc":"2024-10-12","visit":null},{"seq":"214","trt":"EMPAGLIFLOZIN","dose":"5.0","doseu":null,"dosef":"QD","route":"ORAL","start_dtc":"2024-10-13","end_dtc":"2024-10-13","visit":null},{"seq":"215","trt":"EMPAGLIFLOZIN","dose":"5.0","doseu":null,"dosef":"QD","route":"ORAL","start_dtc":"2024-10-14","end_dtc":"2024-10-14","visit":null},{"seq":"216","trt":"EMPAGLIFLOZIN","dose":"5.0","doseu":null,"dosef":"QD","route":"ORAL","start_dtc":"2024-10-15","end_dtc":"2024-10-15","visit":null},{"seq":"217","trt":"EMPAGLIFLOZIN","dose":"5.0","doseu":null,"dosef":"QD","route":"ORAL","start_dtc":"2024-10-16","end_dtc":"2024-10-16","visit":null},{"seq":"218","trt":"EMPAGLIFLOZIN","dose":null,"doseu":null,"dosef":"QD","route":"ORAL","start_dtc":"2024-10-17","end_dtc":"2024-10-17","visit":null},{"seq":"219","trt":"EMPAGLIFLOZIN","dose":"5.0","doseu":null,"dosef":"QD","route":"ORAL","start_dtc":"2024-10-18","end_dtc":"2024-10-18","visit":null},{"seq":"220","trt":"EMPAGLIFLOZIN","dose":"5.0","doseu":null,"dosef":"QD","route":"ORAL","start_dtc":"2024-10-19","end_dtc":"2024-10-19","visit":null},{"seq":"221","trt":"EMPAGLIFLOZIN","dose":"5.0","doseu":null,"dosef":"QD","route":"ORAL","start_dtc":"2024-10-20","end_dtc":"2024-10-20","visit":null},{"seq":"222","trt":"EMPAGLIFLOZIN","dose":"5.0","doseu":null,"dosef":"QD","route":"ORAL","start_dtc":"2024-10-21","end_dtc":"2024-10-21","visit":null},{"seq":"223","trt":"EMPAGLIFLOZIN","dose":"5.0","doseu":null,"dosef":"QD","route":"ORAL","start_dtc":"2024-10-22","end_dtc":"2024-10-22","visit":null},{"seq":"224","trt":"EMPAGLIFLOZIN","dose":"5.0","doseu":null,"dosef":"QD","route":"ORAL","start_dtc":"2024-10-23","end_dtc":"2024-10-23","visit":null},{"seq":"225","trt":"EMPAGLIFLOZIN","dose":"5.0","doseu":null,"dosef":"QD","route":"ORAL","start_dtc":"2024-10-24","end_dtc":"2024-10-24","visit":null},{"seq":"226","trt":"EMPAGLIFLOZIN","dose":"5.0","doseu":null,"dosef":"QD","route":"ORAL","start_dtc":"2024-10-25","end_dtc":"2024-10-25","visit":null},{"seq":"227","trt":"EMPAGLIFLOZIN","dose":"5.0","doseu":null,"dosef":"QD","route":"ORAL","start_dtc":"2024-10-26","end_dtc":"2024-10-26","visit":null},{"seq":"228","trt":"EMPAGLIFLOZIN","dose":"5.0","doseu":null,"dosef":"QD","route":"ORAL","start_dtc":"2024-10-27","end_dtc":"2024-10-27","visit":null},{"seq":"229","trt":"EMPAGLIFLOZIN","dose":"5.0","doseu":null,"dosef":"QD","route":"ORAL","start_dtc":"2024-10-28","end_dtc":"2024-10-28","visit":null},{"seq":"230","trt":"EMPAGLIFLOZIN","dose":"5.0","doseu":null,"dosef":"QD","route":"ORAL","start_dtc":"2024-10-29","end_dtc":"2024-10-29","visit":null},{"seq":"231","trt":"EMPAGLIFLOZIN","dose":"5.0","doseu":null,"dosef":"QD","route":"ORAL","start_dtc":"2024-10-30","end_dtc":"2024-10-30","visit":null},{"seq":"232","trt":"EMPAGLIFLOZIN","dose":"5.0","doseu":null,"dosef":"QD","route":"ORAL","start_dtc":"2024-10-31","end_dtc":"2024-10-31","visit":null},{"seq":"233","trt":"EMPAGLIFLOZIN","dose":"5.0","doseu":null,"dosef":"QD","route":"ORAL","start_dtc":"2024-11-01","end_dtc":"2024-11-01","visit":null},{"seq":"234","trt":"EMPAGLIFLOZIN","dose":"5.0","doseu":null,"dosef":"QD","route":"ORAL","start_dtc":"2024-11-02","end_dtc":"2024-11-02","visit":null},{"seq":"235","trt":"EMPAGLIFLOZIN","dose":"5.0","doseu":null,"dosef":"QD","route":"ORAL","start_dtc":"2024-11-03","end_dtc":"2024-11-03","visit":null},{"seq":"236","trt":"EMPAGLIFLOZIN","dose":"5.0","doseu":null,"dosef":"QD","route":"ORAL","start_dtc":"2024-11-04","end_dtc":"2024-11-04","visit":null},{"seq":"237","trt":"EMPAGLIFLOZIN","dose":"5.0","doseu":null,"dosef":"QD","route":"ORAL","start_dtc":"2024-11-05","end_dtc":"2024-11-05","visit":null},{"seq":"238","trt":"EMPAGLIFLOZIN","dose":"5.0","doseu":null,"dosef":"QD","route":"ORAL","start_dtc":"2024-11-06","end_dtc":"2024-11-06","visit":null},{"seq":"239","trt":"EMPAGLIFLOZIN","dose":"5.0","doseu":null,"dosef":"QD","route":"ORAL","start_dtc":"2024-11-07","end_dtc":"2024-11-07","visit":null},{"seq":"240","trt":"EMPAGLIFLOZIN","dose":"5.0","doseu":null,"dosef":"QD","route":"ORAL","start_dtc":"2024-11-08","end_dtc":"2024-11-08","visit":null},{"seq":"241","trt":"EMPAGLIFLOZIN","dose":"5.0","doseu":null,"dosef":"QD","route":"ORAL","start_dtc":"2024-11-09","end_dtc":"2024-11-09","visit":null},{"seq":"242","trt":"EMPAGLIFLOZIN","dose":"5.0","doseu":null,"dosef":"QD","route":"ORAL","start_dtc":"2024-11-10","end_dtc":"2024-11-10","visit":null},{"seq":"243","trt":"EMPAGLIFLOZIN","dose":"5.0","doseu":null,"dosef":"QD","route":"ORAL","start_dtc":"2024-11-11","end_dtc":"2024-11-11","visit":null},{"seq":"244","trt":"EMPAGLIFLOZIN","dose":"5.0","doseu":null,"dosef":"QD","route":"ORAL","start_dtc":"2024-11-12","end_dtc":"2024-11-12","visit":"WEEK 36"},{"seq":"245","trt":"EMPAGLIFLOZIN","dose":"5.0","doseu":null,"dosef":"QD","route":"ORAL","start_dtc":"2024-11-13","end_dtc":"2024-11-13","visit":"WEEK 36"},{"seq":"246","trt":"EMPAGLIFLOZIN","dose":"5.0","doseu":null,"dosef":"QD","route":"ORAL","start_dtc":"2024-11-14","end_dtc":"2024-11-14","visit":"WEEK 36"},{"seq":"247","trt":"EMPAGLIFLOZIN","dose":"5.0","doseu":null,"dosef":"QD","route":"ORAL","start_dtc":"2024-11-15","end_dtc":"2024-11-15","visit":"WEEK 36"},{"seq":"248","trt":"EMPAGLIFLOZIN","dose":"5.0","doseu":null,"dosef":"QD","route":"ORAL","start_dtc":"2024-11-16","end_dtc":"2024-11-16","visit":"WEEK 36"},{"seq":"249","trt":"EMPAGLIFLOZIN","dose":"5.0","doseu":null,"dosef":"QD","route":"ORAL","start_dtc":"2024-11-17","end_dtc":"2024-11-17","visit":"WEEK 36"},{"seq":"250","trt":"EMPAGLIFLOZIN","dose":"5.0","doseu":null,"dosef":"QD","route":"ORAL","start_dtc":"2024-11-18","end_dtc":"2024-11-18","visit":"WEEK 36"},{"seq":"251","trt":"EMPAGLIFLOZIN","dose":"5.0","doseu":null,"dosef":"QD","route":"ORAL","start_dtc":"2024-11-19","end_dtc":"2024-11-19","visit":null},{"seq":"252","trt":"EMPAGLIFLOZIN","dose":"5.0","doseu":null,"dosef":"QD","route":"ORAL","start_dtc":"2024-11-20","end_dtc":"2024-11-20","visit":null},{"seq":"253","trt":"EMPAGLIFLOZIN","dose":"5.0","doseu":null,"dosef":"QD","route":"ORAL","start_dtc":"2024-11-21","end_dtc":"2024-11-21","visit":null},{"seq":"254","trt":"EMPAGLIFLOZIN","dose":"5.0","doseu":null,"dosef":"QD","route":"ORAL","start_dtc":"2024-11-22","end_dtc":"2024-11-22","visit":null},{"seq":"255","trt":"EMPAGLIFLOZIN","dose":"5.0","doseu":null,"dosef":"QD","route":"ORAL","start_dtc":"2024-11-23","end_dtc":"2024-11-23","visit":null},{"seq":"256","trt":"EMPAGLIFLOZIN","dose":"5.0","doseu":null,"dosef":"QD","route":"ORAL","start_dtc":"2024-11-24","end_dtc":"2024-11-24","visit":null},{"seq":"257","trt":"EMPAGLIFLOZIN","dose":"5.0","doseu":null,"dosef":"QD","route":"ORAL","start_dtc":"2024-11-25","end_dtc":"2024-11-25","visit":null},{"seq":"258","trt":"EMPAGLIFLOZIN","dose":"5.0","doseu":null,"dosef":"QD","route":"ORAL","start_dtc":"2024-11-26","end_dtc":"2024-11-26","visit":null},{"seq":"259","trt":"EMPAGLIFLOZIN","dose":"5.0","doseu":null,"dosef":"QD","route":"ORAL","start_dtc":"2024-11-27","end_dtc":"2024-11-27","visit":null},{"seq":"260","trt":"EMPAGLIFLOZIN","dose":"5.0","doseu":null,"dosef":"QD","route":"ORAL","start_dtc":"2024-11-28","end_dtc":"2024-11-28","visit":null},{"seq":"261","trt":"EMPAGLIFLOZIN","dose":"5.0","doseu":null,"dosef":"QD","route":"ORAL","start_dtc":"2024-11-29","end_dtc":"2024-11-29","visit":null},{"seq":"262","trt":"EMPAGLIFLOZIN","dose":"5.0","doseu":null,"dosef":"QD","route":"ORAL","start_dtc":"2024-11-30","end_dtc":"2024-11-30","visit":null},{"seq":"263","trt":"EMPAGLIFLOZIN","dose":"5.0","doseu":null,"dosef":"QD","route":"ORAL","start_dtc":"2024-12-01","end_dtc":"2024-12-01","visit":null},{"seq":"264","trt":"EMPAGLIFLOZIN","dose":"5.0","doseu":null,"dosef":"QD","route":"ORAL","start_dtc":"2024-12-02","end_dtc":"2024-12-02","visit":null},{"seq":"265","trt":"EMPAGLIFLOZIN","dose":"5.0","doseu":null,"dosef":"QD","route":"ORAL","start_dtc":"2024-12-03","end_dtc":"2024-12-03","visit":null},{"seq":"266","trt":"EMPAGLIFLOZIN","dose":"5.0","doseu":null,"dosef":"QD","route":"ORAL","start_dtc":"2024-12-04","end_dtc":"2024-12-04","visit":null},{"seq":"267","trt":"EMPAGLIFLOZIN","dose":"5.0","doseu":null,"dosef":"QD","route":"ORAL","start_dtc":"2024-12-05","end_dtc":"2024-12-05","visit":null},{"seq":"268","trt":"EMPAGLIFLOZIN","dose":"5.0","doseu":null,"dosef":"QD","route":"ORAL","start_dtc":"2024-12-06","end_dtc":"2024-12-06","visit":null},{"seq":"269","trt":"EMPAGLIFLOZIN","dose":"5.0","doseu":null,"dosef":"QD","route":"ORAL","start_dtc":"2024-12-07","end_dtc":"2024-12-07","visit":null},{"seq":"270","trt":"EMPAGLIFLOZIN","dose":"5.0","doseu":null,"dosef":"QD","route":"ORAL","start_dtc":"2024-12-08","end_dtc":"2024-12-08","visit":null},{"seq":"271","trt":"EMPAGLIFLOZIN","dose":"5.0","doseu":null,"dosef":"QD","route":"ORAL","start_dtc":"2024-12-09","end_dtc":"2024-12-09","visit":null},{"seq":"272","trt":"EMPAGLIFLOZIN","dose":"5.0","doseu":null,"dosef":"QD","route":"ORAL","start_dtc":"2024-12-10","end_dtc":"2024-12-10","visit":null},{"seq":"273","trt":"EMPAGLIFLOZIN","dose":"5.0","doseu":null,"dosef":"QD","route":"ORAL","start_dtc":"2024-12-11","end_dtc":"2024-12-11","visit":null},{"seq":"274","trt":"EMPAGLIFLOZIN","dose":"5.0","doseu":null,"dosef":"QD","route":"ORAL","start_dtc":"2024-12-12","end_dtc":"2024-12-12","visit":null},{"seq":"275","trt":"EMPAGLIFLOZIN","dose":"5.0","doseu":null,"dosef":"QD","route":"ORAL","start_dtc":"2024-12-13","end_dtc":"2024-12-13","visit":null},{"seq":"276","trt":"EMPAGLIFLOZIN","dose":"5.0","doseu":null,"dosef":"QD","route":"ORAL","start_dtc":"2024-12-14","end_dtc":"2024-12-14","visit":null},{"seq":"277","trt":"EMPAGLIFLOZIN","dose":"5.0","doseu":null,"dosef":"QD","route":"ORAL","start_dtc":"2024-12-15","end_dtc":"2024-12-15","visit":null},{"seq":"278","trt":"EMPAGLIFLOZIN","dose":"5.0","doseu":null,"dosef":"QD","route":"ORAL","start_dtc":"2024-12-16","end_dtc":"2024-12-16","visit":null},{"seq":"279","trt":"EMPAGLIFLOZIN","dose":"5.0","doseu":null,"dosef":"QD","route":"ORAL","start_dtc":"2024-12-17","end_dtc":"2024-12-17","visit":null},{"seq":"280","trt":"EMPAGLIFLOZIN","dose":"5.0","doseu":null,"dosef":"QD","route":"ORAL","start_dtc":"2024-12-18","end_dtc":"2024-12-18","visit":null},{"seq":"281","trt":"EMPAGLIFLOZIN","dose":"5.0","doseu":null,"dosef":"QD","route":"ORAL","start_dtc":"2024-12-19","end_dtc":"2024-12-19","visit":null},{"seq":"282","trt":"EMPAGLIFLOZIN","dose":"5.0","doseu":null,"dosef":"QD","route":"ORAL","start_dtc":"2024-12-20","end_dtc":"2024-12-20","visit":null},{"seq":"283","trt":"EMPAGLIFLOZIN","dose":"5.0","doseu":null,"dosef":"QD","route":"ORAL","start_dtc":"2024-12-21","end_dtc":"2024-12-21","visit":null},{"seq":"284","trt":"EMPAGLIFLOZIN","dose":"5.0","doseu":null,"dosef":"QD","route":"ORAL","start_dtc":"2024-12-22","end_dtc":"2024-12-22","visit":null},{"seq":"285","trt":"EMPAGLIFLOZIN","dose":"5.0","doseu":null,"dosef":"QD","route":"ORAL","start_dtc":"2024-12-23","end_dtc":"2024-12-23","visit":null},{"seq":"286","trt":"EMPAGLIFLOZIN","dose":"5.0","doseu":null,"dosef":"QD","route":"ORAL","start_dtc":"2024-12-24","end_dtc":"2024-12-24","visit":null},{"seq":"287","trt":"EMPAGLIFLOZIN","dose":"5.0","doseu":null,"dosef":"QD","route":"ORAL","start_dtc":"2024-12-25","end_dtc":"2024-12-25","visit":null},{"seq":"288","trt":"EMPAGLIFLOZIN","dose":"5.0","doseu":null,"dosef":"QD","route":"ORAL","start_dtc":"2024-12-26","end_dtc":"2024-12-26","visit":null},{"seq":"289","trt":"EMPAGLIFLOZIN","dose":"5.0","doseu":null,"dosef":"QD","route":"ORAL","start_dtc":"2024-12-27","end_dtc":"2024-12-27","visit":null},{"seq":"290","trt":"EMPAGLIFLOZIN","dose":"5.0","doseu":null,"dosef":"QD","route":"ORAL","start_dtc":"2024-12-28","end_dtc":"2024-12-28","visit":null},{"seq":"291","trt":"EMPAGLIFLOZIN","dose":"5.0","doseu":null,"dosef":"QD","route":"ORAL","start_dtc":"2024-12-29","end_dtc":"2024-12-29","visit":null},{"seq":"292","trt":"EMPAGLIFLOZIN","dose":"5.0","doseu":null,"dosef":"QD","route":"ORAL","start_dtc":"2024-12-30","end_dtc":"2024-12-30","visit":null},{"seq":"293","trt":"EMPAGLIFLOZIN","dose":"5.0","doseu":null,"dosef":"QD","route":"ORAL","start_dtc":"2024-12-31","end_dtc":"2024-12-31","visit":null},{"seq":"294","trt":"EMPAGLIFLOZIN","dose":"5.0","doseu":null,"dosef":"QD","route":"ORAL","start_dtc":"2025-01-01","end_dtc":"2025-01-01","visit":null},{"seq":"295","trt":"EMPAGLIFLOZIN","dose":"5.0","doseu":null,"dosef":"QD","route":"ORAL","start_dtc":"2025-01-02","end_dtc":"2025-01-02","visit":null},{"seq":"296","trt":"EMPAGLIFLOZIN","dose":"5.0","doseu":null,"dosef":"QD","route":"ORAL","start_dtc":"2025-01-03","end_dtc":"2025-01-03","visit":null},{"seq":"297","trt":"EMPAGLIFLOZIN","dose":"5.0","doseu":null,"dosef":"QD","route":"ORAL","start_dtc":"2025-01-04","end_dtc":"2025-01-04","visit":null},{"seq":"298","trt":"EMPAGLIFLOZIN","dose":"5.0","doseu":null,"dosef":"QD","route":"ORAL","start_dtc":"2025-01-05","end_dtc":"2025-01-05","visit":null},{"seq":"299","trt":"EMPAGLIFLOZIN","dose":"5.0","doseu":null,"dosef":"QD","route":"ORAL","start_dtc":"2025-01-06","end_dtc":"2025-01-06","visit":null},{"seq":"300","trt":"EMPAGLIFLOZIN","dose":"5.0","doseu":null,"dosef":"QD","route":"ORAL","start_dtc":"2025-01-07","end_dtc":"2025-01-07","visit":null},{"seq":"301","trt":"EMPAGLIFLOZIN","dose":"5.0","doseu":null,"dosef":"QD","route":"ORAL","start_dtc":"2025-01-08","end_dtc":"2025-01-08","visit":null},{"seq":"302","trt":"EMPAGLIFLOZIN","dose":"5.0","doseu":null,"dosef":"QD","route":"ORAL","start_dtc":"2025-01-09","end_dtc":"2025-01-09","visit":null},{"seq":"303","trt":"EMPAGLIFLOZIN","dose":"5.0","doseu":null,"dosef":"QD","route":"ORAL","start_dtc":"2025-01-10","end_dtc":"2025-01-10","visit":null},{"seq":"304","trt":"EMPAGLIFLOZIN","dose":"5.0","doseu":null,"dosef":"QD","route":"ORAL","start_dtc":"2025-01-11","end_dtc":"2025-01-11","visit":null},{"seq":"305","trt":"EMPAGLIFLOZIN","dose":"5.0","doseu":null,"dosef":"QD","route":"ORAL","start_dtc":"2025-01-12","end_dtc":"2025-01-12","visit":null},{"seq":"306","trt":"EMPAGLIFLOZIN","dose":"5.0","doseu":null,"dosef":"QD","route":"ORAL","start_dtc":"2025-01-13","end_dtc":"2025-01-13","visit":null},{"seq":"307","trt":"EMPAGLIFLOZIN","dose":"5.0","doseu":null,"dosef":"QD","route":"ORAL","start_dtc":"2025-01-14","end_dtc":"2025-01-14","visit":null},{"seq":"308","trt":"EMPAGLIFLOZIN","dose":"5.0","doseu":null,"dosef":"QD","route":"ORAL","start_dtc":"2025-01-15","end_dtc":"2025-01-15","visit":null},{"seq":"309","trt":"EMPAGLIFLOZIN","dose":"5.0","doseu":null,"dosef":"QD","route":"ORAL","start_dtc":"2025-01-16","end_dtc":"2025-01-16","visit":null},{"seq":"310","trt":"EMPAGLIFLOZIN","dose":"5.0","doseu":null,"dosef":"QD","route":"ORAL","start_dtc":"2025-01-17","end_dtc":"2025-01-17","visit":null},{"seq":"311","trt":"EMPAGLIFLOZIN","dose":"5.0","doseu":null,"dosef":"QD","route":"ORAL","start_dtc":"2025-01-18","end_dtc":"2025-01-18","visit":null},{"seq":"312","trt":"EMPAGLIFLOZIN","dose":"5.0","doseu":null,"dosef":"QD","route":"ORAL","start_dtc":"2025-01-19","end_dtc":"2025-01-19","visit":null},{"seq":"313","trt":"EMPAGLIFLOZIN","dose":"5.0","doseu":null,"dosef":"QD","route":"ORAL","start_dtc":"2025-01-20","end_dtc":"2025-01-20","visit":null},{"seq":"314","trt":"EMPAGLIFLOZIN","dose":"5.0","doseu":null,"dosef":"QD","route":"ORAL","start_dtc":"2025-01-21","end_dtc":"2025-01-21","visit":null},{"seq":"315","trt":"EMPAGLIFLOZIN","dose":"5.0","doseu":null,"dosef":"QD","route":"ORAL","start_dtc":"2025-01-22","end_dtc":"2025-01-22","visit":null},{"seq":"316","trt":"EMPAGLIFLOZIN","dose":"5.0","doseu":null,"dosef":"QD","route":"ORAL","start_dtc":"2025-01-23","end_dtc":"2025-01-23","visit":null},{"seq":"317","trt":"EMPAGLIFLOZIN","dose":"5.0","doseu":null,"dosef":"QD","route":"ORAL","start_dtc":"2025-01-24","end_dtc":"2025-01-24","visit":null},{"seq":"318","trt":"EMPAGLIFLOZIN","dose":"5.0","doseu":null,"dosef":"QD","route":"ORAL","start_dtc":"2025-01-25","end_dtc":"2025-01-25","visit":null},{"seq":"319","trt":"EMPAGLIFLOZIN","dose":"5.0","doseu":null,"dosef":"QD","route":"ORAL","start_dtc":"2025-01-26","end_dtc":"2025-01-26","visit":null},{"seq":"320","trt":"EMPAGLIFLOZIN","dose":"5.0","doseu":null,"dosef":"QD","route":"ORAL","start_dtc":"2025-01-27","end_dtc":"2025-01-27","visit":null},{"seq":"321","trt":"EMPAGLIFLOZIN","dose":"5.0","doseu":null,"dosef":"QD","route":"ORAL","start_dtc":"2025-01-28","end_dtc":"2025-01-28","visit":null},{"seq":"322","trt":"EMPAGLIFLOZIN","dose":"5.0","doseu":null,"dosef":"QD","route":"ORAL","start_dtc":"2025-01-29","end_dtc":"2025-01-29","visit":null},{"seq":"323","trt":"EMPAGLIFLOZIN","dose":"5.0","doseu":null,"dosef":"QD","route":"ORAL","start_dtc":"2025-01-30","end_dtc":"2025-01-30","visit":null},{"seq":"324","trt":"EMPAGLIFLOZIN","dose":"5.0","doseu":null,"dosef":"QD","route":"ORAL","start_dtc":"2025-01-31","end_dtc":"2025-01-31","visit":null},{"seq":"325","trt":"EMPAGLIFLOZIN","dose":"5.0","doseu":null,"dosef":"QD","route":"ORAL","start_dtc":"2025-02-01","end_dtc":"2025-02-01","visit":null},{"seq":"326","trt":"EMPAGLIFLOZIN","dose":"5.0","doseu":null,"dosef":"QD","route":"ORAL","start_dtc":"2025-02-02","end_dtc":"2025-02-02","visit":null},{"seq":"327","trt":"EMPAGLIFLOZIN","dose":"5.0","doseu":null,"dosef":"QD","route":"ORAL","start_dtc":"2025-02-03","end_dtc":"2025-02-03","visit":null},{"seq":"328","trt":"EMPAGLIFLOZIN","dose":"5.0","doseu":null,"dosef":"QD","route":"ORAL","start_dtc":"2025-02-04","end_dtc":"2025-02-04","visit":null},{"seq":"329","trt":"EMPAGLIFLOZIN","dose":"5.0","doseu":null,"dosef":"QD","route":"ORAL","start_dtc":"2025-02-05","end_dtc":"2025-02-05","visit":null},{"seq":"330","trt":"EMPAGLIFLOZIN","dose":"5.0","doseu":null,"dosef":"QD","route":"ORAL","start_dtc":"2025-02-06","end_dtc":"2025-02-06","visit":null},{"seq":"331","trt":"EMPAGLIFLOZIN","dose":"5.0","doseu":null,"dosef":"QD","route":"ORAL","start_dtc":"2025-02-07","end_dtc":"2025-02-07","visit":null},{"seq":"332","trt":"EMPAGLIFLOZIN","dose":"5.0","doseu":null,"dosef":"QD","route":"ORAL","start_dtc":"2025-02-08","end_dtc":"2025-02-08","visit":null},{"seq":"333","trt":"EMPAGLIFLOZIN","dose":"5.0","doseu":null,"dosef":"QD","route":"ORAL","start_dtc":"2025-02-09","end_dtc":"2025-02-09","visit":null},{"seq":"334","trt":"EMPAGLIFLOZIN","dose":"5.0","doseu":null,"dosef":"QD","route":"ORAL","start_dtc":"2025-02-10","end_dtc":"2025-02-10","visit":null},{"seq":"335","trt":"EMPAGLIFLOZIN","dose":"5.0","doseu":null,"dosef":"QD","route":"ORAL","start_dtc":"2025-02-11","end_dtc":"2025-02-11","visit":null},{"seq":"336","trt":"EMPAGLIFLOZIN","dose":"5.0","doseu":null,"dosef":"QD","route":"ORAL","start_dtc":"2025-02-12","end_dtc":"2025-02-12","visit":null},{"seq":"337","trt":"EMPAGLIFLOZIN","dose":"5.0","doseu":null,"dosef":"QD","route":"ORAL","start_dtc":"2025-02-13","end_dtc":"2025-02-13","visit":null},{"seq":"338","trt":"EMPAGLIFLOZIN","dose":"5.0","doseu":null,"dosef":"QD","route":"ORAL","start_dtc":"2025-02-14","end_dtc":"2025-02-14","visit":null},{"seq":"339","trt":"EMPAGLIFLOZIN","dose":"5.0","doseu":null,"dosef":"QD","route":"ORAL","start_dtc":"2025-02-15","end_dtc":"2025-02-15","visit":null},{"seq":"340","trt":"EMPAGLIFLOZIN","dose":"5.0","doseu":null,"dosef":"QD","route":"ORAL","start_dtc":"2025-02-16","end_dtc":"2025-02-16","visit":null},{"seq":"341","trt":"EMPAGLIFLOZIN","dose":"5.0","doseu":null,"dosef":"QD","route":"ORAL","start_dtc":"2025-02-17","end_dtc":"2025-02-17","visit":null},{"seq":"342","trt":"EMPAGLIFLOZIN","dose":"5.0","doseu":null,"dosef":"QD","route":"ORAL","start_dtc":"2025-02-18","end_dtc":"2025-02-18","visit":null},{"seq":"343","trt":"EMPAGLIFLOZIN","dose":"5.0","doseu":null,"dosef":"QD","route":"ORAL","start_dtc":"2025-02-19","end_dtc":"2025-02-19","visit":null},{"seq":"344","trt":"EMPAGLIFLOZIN","dose":"5.0","doseu":null,"dosef":"QD","route":"ORAL","start_dtc":"2025-02-20","end_dtc":"2025-02-20","visit":null},{"seq":"345","trt":"EMPAGLIFLOZIN","dose":"5.0","doseu":null,"dosef":"QD","route":"ORAL","start_dtc":"2025-02-21","end_dtc":"2025-02-21","visit":null},{"seq":"346","trt":"EMPAGLIFLOZIN","dose":"5.0","doseu":null,"dosef":"QD","route":"ORAL","start_dtc":"2025-02-22","end_dtc":"2025-02-22","visit":null},{"seq":"347","trt":"EMPAGLIFLOZIN","dose":"5.0","doseu":null,"dosef":"QD","route":"ORAL","start_dtc":"2025-02-23","end_dtc":"2025-02-23","visit":null},{"seq":"348","trt":"EMPAGLIFLOZIN","dose":"5.0","doseu":null,"dosef":"QD","route":"ORAL","start_dtc":"2025-02-24","end_dtc":"2025-02-24","visit":null},{"seq":"349","trt":"EMPAGLIFLOZIN","dose":"5.0","doseu":null,"dosef":"QD","route":"ORAL","start_dtc":"2025-02-25","end_dtc":"2025-02-25","visit":null},{"seq":"350","trt":"EMPAGLIFLOZIN","dose":"5.0","doseu":null,"dosef":"QD","route":"ORAL","start_dtc":"2025-02-26","end_dtc":"2025-02-26","visit":null},{"seq":"351","trt":"EMPAGLIFLOZIN","dose":"5.0","doseu":null,"dosef":"QD","route":"ORAL","start_dtc":"2025-02-27","end_dtc":"2025-02-27","visit":null},{"seq":"352","trt":"EMPAGLIFLOZIN","dose":"5.0","doseu":null,"dosef":"QD","route":"ORAL","start_dtc":"2025-02-28","end_dtc":"2025-02-28","visit":null},{"seq":"353","trt":"EMPAGLIFLOZIN","dose":"5.0","doseu":null,"dosef":"QD","route":"ORAL","start_dtc":"2025-03-01","end_dtc":"2025-03-01","visit":null},{"seq":"354","trt":"EMPAGLIFLOZIN","dose":"5.0","doseu":null,"dosef":"QD","route":"ORAL","start_dtc":"2025-03-02","end_dtc":"2025-03-02","visit":null},{"seq":"355","trt":"EMPAGLIFLOZIN","dose":"5.0","doseu":null,"dosef":"QD","route":"ORAL","start_dtc":"2025-03-03","end_dtc":"2025-03-03","visit":null},{"seq":"356","trt":"EMPAGLIFLOZIN","dose":"5.0","doseu":null,"dosef":"QD","route":"ORAL","start_dtc":"2025-03-04","end_dtc":"2025-03-04","visit":"WEEK 52"},{"seq":"357","trt":"EMPAGLIFLOZIN","dose":"5.0","doseu":null,"dosef":"QD","route":"ORAL","start_dtc":"2025-03-05","end_dtc":"2025-03-05","visit":"WEEK 52"},{"seq":"358","trt":"EMPAGLIFLOZIN","dose":"5.0","doseu":null,"dosef":"QD","route":"ORAL","start_dtc":"2025-03-06","end_dtc":"2025-03-06","visit":"WEEK 52"}]},"section_7_adverse_events":{"summary":{"total_aes":13,"serious_aes":1,"fatal_aes":0,"by_severity":{"MILD":6,"MODERATE":6,"SEVERE":1},"by_soc":{"Metabolism and nutrition disorders":2,"Cardiac disorders":5,"Investigations":1,"Vascular disorders":2,"Infections and infestations":2,"General disorders and administration site conditions":1}},"events":[{"seq":"1","term":"DIABETIC KETOACIDOSIS","decod":"Diabetic ketoacidosis","llt":"Diabetic ketoacidosis","hlt":"Hyperglycaemic conditions NEC","hlgt":"Glucose metabolism disorders (incl diabetes mellitus)","soc":"Metabolism and nutrition disorders","bodsys":"Metabolism and nutrition disorders","severity":"MILD","serious":"N","causality":"RELATED","action_taken":"DOSE REDUCED","outcome":"RECOVERED/RESOLVED","fatal":"N","hospitalization":"N","life_threatening":"N","onset_dtc":"2024-03-11","end_dtc":"2024-03-23","onset_dy":"4","end_dy":"16","duration":null,"epoch":"TREATMENT","visit":null,"supplemental":{}},{"seq":"2","term":"ATRIAL FIBRILLATION","decod":"Atrial fibrillation","llt":"Atrial fibrillation","hlt":"Atrial arrhythmias","hlgt":"Cardiac arrhythmias","soc":"Cardiac disorders","bodsys":"Cardiac disorders","severity":"MILD","serious":"N","causality":"POSSIBLY RELATED","action_taken":"DOSE NOT CHANGED","outcome":"RECOVERED/RESOLVED","fatal":"N","hospitalization":"N","life_threatening":"N","onset_dtc":"2024-07-17","end_dtc":"2024-07-18","onset_dy":"132","end_dy":"133","duration":null,"epoch":"TREATMENT","visit":null,"supplemental":{}},{"seq":"3","term":"CARDIAC FAILURE","decod":"Cardiac failure","llt":"Cardiac failure","hlt":"Cardiac failure signs and symptoms","hlgt":"Heart failures","soc":"Cardiac disorders","bodsys":"Cardiac disorders","severity":"MODERATE","serious":"N","causality":"UNLIKELY RELATED","action_taken":"DOSE NOT CHANGED","outcome":"RECOVERED/RESOLVED","fatal":"N","hospitalization":"N","life_threatening":"N","onset_dtc":"2024-07-18","end_dtc":"2024-07-22","onset_dy":"133","end_dy":"137","duration":null,"epoch":"TREATMENT","visit":null,"supplemental":{}},{"seq":"4","term":"BLOOD CREATININE INCREASED","decod":"Blood creatinine increased","llt":"Blood creatinine increased","hlt":"Renal function analyses","hlgt":"Renal and urinary tract investigations and urinalyses","soc":"Investigations","bodsys":"Investigations","severity":"MODERATE","serious":"N","causality":"POSSIBLY RELATED","action_taken":"DOSE REDUCED","outcome":"RECOVERED/RESOLVED","fatal":"N","hospitalization":"N","life_threatening":"N","onset_dtc":"2024-07-23","end_dtc":"2024-07-25","onset_dy":"138","end_dy":"140","duration":null,"epoch":"TREATMENT","visit":null,"supplemental":{}},{"seq":"5","term":"HYPOTENSION","decod":"Hypotension","llt":"Hypotension","hlt":"Vascular hypotensive disorders","hlgt":"Vascular disorders NEC","soc":"Vascular disorders","bodsys":"Vascular disorders","severity":"MILD","serious":"N","causality":"UNLIKELY RELATED","action_taken":"DOSE NOT CHANGED","outcome":"RECOVERED/RESOLVED","fatal":"N","hospitalization":"N","life_threatening":"N","onset_dtc":"2024-07-25","end_dtc":"2024-07-28","onset_dy":"140","end_dy":"143","duration":null,"epoch":"TREATMENT","visit":null,"supplemental":{}},{"seq":"6","term":"CARDIAC FAILURE","decod":"Cardiac failure","llt":"Cardiac failure","hlt":"Cardiac failure signs and symptoms","hlgt":"Heart failures","soc":"Cardiac disorders","bodsys":"Cardiac disorders","severity":"MODERATE","serious":"N","causality":"NOT RELATED","action_taken":"DOSE NOT CHANGED","outcome":"RECOVERED/RESOLVED","fatal":"N","hospitalization":"N","life_threatening":"N","onset_dtc":"2024-08-10","end_dtc":"2024-08-20","onset_dy":"156","end_dy":"166","duration":null,"epoch":"TREATMENT","visit":null,"supplemental":{}},{"seq":"7","term":"CARDIAC FAILURE","decod":"Cardiac failure","llt":"Cardiac failure","hlt":"Cardiac failure signs and symptoms","hlgt":"Heart failures","soc":"Cardiac disorders","bodsys":"Cardiac disorders","severity":"MODERATE","serious":"N","causality":"POSSIBLY RELATED","action_taken":"DRUG INTERRUPTED","outcome":"RECOVERED/RESOLVED","fatal":"N","hospitalization":"N","life_threatening":"N","onset_dtc":"2024-08-11","end_dtc":"2024-08-17","onset_dy":"157","end_dy":"163","duration":null,"epoch":"TREATMENT","visit":null,"supplemental":{}},{"seq":"8","term":"DEHYDRATION","decod":"Dehydration","llt":"Dehydration","hlt":"Fluid intake decreased and dehydration","hlgt":"Fluid and electrolyte conditions NEC","soc":"Metabolism and nutrition disorders","bodsys":"Metabolism and nutrition disorders","severity":"MODERATE","serious":"N","causality":"POSSIBLY RELATED","action_taken":"DOSE REDUCED","outcome":"RECOVERED/RESOLVED","fatal":"N","hospitalization":"N","life_threatening":"N","onset_dtc":"2024-09-02","end_dtc":"2024-09-18","onset_dy":"179","end_dy":"195","duration":null,"epoch":"TREATMENT","visit":null,"supplemental":{}},{"seq":"9","term":"URINARY TRACT INFECTION","decod":"Urinary tract infection","llt":"Urinary tract infection","hlt":"Urinary tract infections","hlgt":"Infections NEC","soc":"Infections and infestations","bodsys":"Infections and infestations","severity":"MILD","serious":"N","causality":"PROBABLY RELATED","action_taken":"DOSE NOT CHANGED","outcome":"RECOVERED/RESOLVED","fatal":"N","hospitalization":"N","life_threatening":"N","onset_dtc":"2024-09-25","end_dtc":"2024-09-28","onset_dy":"202","end_dy":"205","duration":null,"epoch":"TREATMENT","visit":null,"supplemental":{}},{"seq":"10","term":"ATRIAL FIBRILLATION","decod":"Atrial fibrillation","llt":"Atrial fibrillation","hlt":"Atrial arrhythmias","hlgt":"Cardiac arrhythmias","soc":"Cardiac disorders","bodsys":"Cardiac disorders","severity":"MILD","serious":"N","causality":"NOT RELATED","action_taken":"DOSE NOT CHANGED","outcome":"RECOVERED/RESOLVED","fatal":"N","hospitalization":"N","life_threatening":"N","onset_dtc":"2024-10-06","end_dtc":"2024-10-19","onset_dy":"213","end_dy":"226","duration":null,"epoch":"TREATMENT","visit":null,"supplemental":{}},{"seq":"11","term":"HYPOTENSION","decod":"Hypotension","llt":"Hypotension","hlt":"Vascular hypotensive disorders","hlgt":"Vascular disorders NEC","soc":"Vascular disorders","bodsys":"Vascular disorders","severity":"MODERATE","serious":"N","causality":"POSSIBLY RELATED","action_taken":"DOSE NOT CHANGED","outcome":"RECOVERED/RESOLVED","fatal":"N","hospitalization":"N","life_threatening":"N","onset_dtc":"2024-12-29","end_dtc":"2025-01-05","onset_dy":"297","end_dy":"304","duration":null,"epoch":"TREATMENT","visit":null,"supplemental":{}},{"seq":"12","term":"URINARY TRACT INFECTION","decod":"Urinary tract infection","llt":"Urinary tract infection","hlt":"Urinary tract infections","hlgt":"Infections NEC","soc":"Infections and infestations","bodsys":"Infections and infestations","severity":"MILD","serious":"N","causality":"POSSIBLY RELATED","action_taken":"DOSE NOT CHANGED","outcome":"RECOVERED/RESOLVED","fatal":"N","hospitalization":"N","life_threatening":"N","onset_dtc":"2025-01-17","end_dtc":"2025-01-23","onset_dy":"316","end_dy":"322","duration":null,"epoch":"TREATMENT","visit":null,"supplemental":{}},{"seq":"13","term":"FATIGUE","decod":"Fatigue","llt":"Fatigue","hlt":"Asthenic conditions","hlgt":"General system disorders NEC","soc":"General disorders and administration site conditions","bodsys":"General disorders and administration site conditions","severity":"SEVERE","serious":"Y","causality":"NOT RELATED","action_taken":"DOSE NOT CHANGED","outcome":"RECOVERED/RESOLVED","fatal":"N","hospitalization":"N","life_threatening":"N","onset_dtc":"2025-01-27","end_dtc":"2025-03-22","onset_dy":"326","end_dy":"380","duration":null,"epoch":"TREATMENT","visit":null,"supplemental":{}}]},"section_8_laboratory_results":{"summary":{"total_records":49,"abnormal_count":6,"abnormal_pct":12.2},"shift_summary":[{"testcd":"ALT","baseline_value":8.04,"baseline_nrind":"NORMAL","worst_post_baseline_value":10.67,"worst_post_baseline_nrind":"NORMAL","worst_visit":"WEEK 36"},{"testcd":"AST","baseline_value":7.04,"baseline_nrind":"LOW","worst_post_baseline_value":11.26,"worst_post_baseline_nrind":"NORMAL","worst_visit":"WEEK 36"},{"testcd":"CREAT","baseline_value":62.9,"baseline_nrind":"NORMAL","worst_post_baseline_value":70.43,"worst_post_baseline_nrind":"NORMAL","worst_visit":"WEEK 36"},{"testcd":"GLUC","baseline_value":4.12,"baseline_nrind":"NORMAL","worst_post_baseline_value":11.72,"worst_post_baseline_nrind":"HIGH","worst_visit":"RANDOMIZATION"},{"testcd":"HGB","baseline_value":133.25,"baseline_nrind":"NORMAL","worst_post_baseline_value":130.68,"worst_post_baseline_nrind":"NORMAL","worst_visit":"WEEK 12"},{"testcd":"PLAT","baseline_value":274.59,"baseline_nrind":"NORMAL","worst_post_baseline_value":287.14,"worst_post_baseline_nrind":"NORMAL","worst_visit":"WEEK 12"},{"testcd":"WBC","baseline_value":6.64,"baseline_nrind":"NORMAL","worst_post_baseline_value":6.17,"worst_post_baseline_nrind":"NORMAL","worst_visit":"WEEK 12"}],"results":[{"seq":"1","testcd":"ALT","test":"Alanine Aminotransferase","cat":"CHEMISTRY","orres":"8.04","orresu":"U/L","stresc":"8.04","stresn":"8.04","stresu":"U/L","stnrlo":"7","stnrhi":"56","nrind":"NORMAL","fast":null,"dtc":"2024-02-13","dy":"-24","visit":"SCREENING","visitnum":"1.0","epoch":"SCREENING","spec":null,"method":null},{"seq":"2","testcd":"AST","test":"Aspartate Aminotransferase","cat":"CHEMISTRY","orres":"7.04","orresu":"U/L","stresc":"7.04","stresn":"7.04","stresu":"U/L","stnrlo":"10","stnrhi":"40","nrind":"LOW","fast":null,"dtc":"2024-02-13","dy":"-24","visit":"SCREENING","visitnum":"1.0","epoch":"SCREENING","spec":null,"method":null},{"seq":"3","testcd":"CREAT","test":"Creatinine","cat":"CHEMISTRY","orres":"62.9","orresu":"umol/L","stresc":"62.9","stresn":"62.9","stresu":"umol/L","stnrlo":"62","stnrhi":"106","nrind":"NORMAL","fast":null,"dtc":"2024-02-13","dy":"-24","visit":"SCREENING","visitnum":"1.0","epoch":"SCREENING","spec":null,"method":null},{"seq":"4","testcd":"GLUC","test":"Glucose","cat":"CHEMISTRY","orres":"4.12","orresu":"mmol/L","stresc":"4.12","stresn":"4.12","stresu":"mmol/L","stnrlo":"3.9","stnrhi":"5.6","nrind":"NORMAL","fast":null,"dtc":"2024-02-13","dy":"-24","visit":"SCREENING","visitnum":"1.0","epoch":"SCREENING","spec":null,"method":null},{"seq":"5","testcd":"HGB","test":"Hemoglobin","cat":"HEMATOLOGY","orres":"133.25","orresu":"g/L","stresc":"133.25","stresn":"133.25","stresu":"g/L","stnrlo":"130","stnrhi":"175","nrind":"NORMAL","fast":null,"dtc":"2024-02-13","dy":"-24","visit":"SCREENING","visitnum":"1.0","epoch":"SCREENING","spec":null,"method":null},{"seq":"6","testcd":"PLAT","test":"Platelets","cat":"HEMATOLOGY","orres":"274.59","orresu":"10^9/L","stresc":"274.59","stresn":"274.59","stresu":"10^9/L","stnrlo":"150","stnrhi":"400","nrind":"NORMAL","fast":null,"dtc":"2024-02-13","dy":"-24","visit":"SCREENING","visitnum":"1.0","epoch":"SCREENING","spec":null,"method":null},{"seq":"7","testcd":"WBC","test":"Leukocytes","cat":"HEMATOLOGY","orres":"6.64","orresu":"10^9/L","stresc":"6.64","stresn":"6.64","stresu":"10^9/L","stnrlo":"4.0","stnrhi":"11.0","nrind":"NORMAL","fast":null,"dtc":"2024-02-13","dy":"-24","visit":"SCREENING","visitnum":"1.0","epoch":"SCREENING","spec":null,"method":null},{"seq":"8","testcd":"ALT","test":"Alanine Aminotransferase","cat":"CHEMISTRY","orres":"8.68","orresu":"U/L","stresc":"8.68","stresn":"8.68","stresu":"U/L","stnrlo":"7","stnrhi":"56","nrind":"NORMAL","fast":null,"dtc":"2024-03-08","dy":"1","visit":"RANDOMIZATION","visitnum":"2.0","epoch":"TREATMENT","spec":null,"method":null},{"seq":"9","testcd":"AST","test":"Aspartate Aminotransferase","cat":"CHEMISTRY","orres":"6.89","orresu":"U/L","stresc":"6.89","stresn":"6.89","stresu":"U/L","stnrlo":"10","stnrhi":"40","nrind":"LOW","fast":null,"dtc":"2024-03-08","dy":"1","visit":"RANDOMIZATION","visitnum":"2.0","epoch":"TREATMENT","spec":null,"method":null},{"seq":"10","testcd":"CREAT","test":"Creatinine","cat":"CHEMISTRY","orres":"65.23","orresu":"umol/L","stresc":"65.23","stresn":"65.23","stresu":"umol/L","stnrlo":"62","stnrhi":"106","nrind":"NORMAL","fast":null,"dtc":"2024-03-08","dy":"1","visit":"RANDOMIZATION","visitnum":"2.0","epoch":"TREATMENT","spec":null,"method":null},{"seq":"11","testcd":"GLUC","test":"Glucose","cat":"CHEMISTRY","orres":"11.72","orresu":"mmol/L","stresc":"11.72","stresn":"11.72","stresu":"mmol/L","stnrlo":"3.9","stnrhi":"5.6","nrind":"HIGH","fast":null,"dtc":"2024-03-08","dy":"1","visit":"RANDOMIZATION","visitnum":"2.0","epoch":"TREATMENT","spec":null,"method":null},{"seq":"12","testcd":"HGB","test":"Hemoglobin","cat":"HEMATOLOGY","orres":"130.97","orresu":"g/L","stresc":"130.97","stresn":"130.97","stresu":"g/L","stnrlo":"130","stnrhi":"175","nrind":"NORMAL","fast":null,"dtc":"2024-03-08","dy":"1","visit":"RANDOMIZATION","visitnum":"2.0","epoch":"TREATMENT","spec":null,"method":null},{"seq":"13","testcd":"PLAT","test":"Platelets","cat":"HEMATOLOGY","orres":"281.94","orresu":"10^9/L","stresc":"281.94","stresn":"281.94","stresu":"10^9/L","stnrlo":"150","stnrhi":"400","nrind":"NORMAL","fast":null,"dtc":"2024-03-08","dy":"1","visit":"RANDOMIZATION","visitnum":"2.0","epoch":"TREATMENT","spec":null,"method":null},{"seq":"14","testcd":"WBC","test":"Leukocytes","cat":"HEMATOLOGY","orres":"5.29","orresu":"10^9/L","stresc":"5.29","stresn":"5.29","stresu":"10^9/L","stnrlo":"4.0","stnrhi":"11.0","nrind":"NORMAL","fast":null,"dtc":"2024-03-08","dy":"1","visit":"RANDOMIZATION","visitnum":"2.0","epoch":"TREATMENT","spec":null,"method":null},{"seq":"15","testcd":"ALT","test":"Alanine Aminotransferase","cat":"CHEMISTRY","orres":"8.78","orresu":"U/L","stresc":"8.78","stresn":"8.78","stresu":"U/L","stnrlo":"7","stnrhi":"56","nrind":"NORMAL","fast":null,"dtc":"2024-06-05","dy":"90","visit":"WEEK 12","visitnum":"4.0","epoch":"TREATMENT","spec":null,"method":null},{"seq":"16","testcd":"AST","test":"Aspartate Aminotransferase","cat":"CHEMISTRY","orres":"9.51","orresu":"U/L","stresc":"9.51","stresn":"9.51","stresu":"U/L","stnrlo":"10","stnrhi":"40","nrind":"LOW","fast":null,"dtc":"2024-06-05","dy":"90","visit":"WEEK 12","visitnum":"4.0","epoch":"TREATMENT","spec":null,"method":null},{"seq":"17","testcd":"CREAT","test":"Creatinine","cat":"CHEMISTRY","orres":"64.05","orresu":"umol/L","stresc":"64.05","stresn":"64.05","stresu":"umol/L","stnrlo":"62","stnrhi":"106","nrind":"NORMAL","fast":null,"dtc":"2024-06-05","dy":"90","visit":"WEEK 12","visitnum":"4.0","epoch":"TREATMENT","spec":null,"method":null},{"seq":"18","testcd":"GLUC","test":"Glucose","cat":"CHEMISTRY","orres":"4.32","orresu":"mmol/L","stresc":"4.32","stresn":"4.32","stresu":"mmol/L","stnrlo":"3.9","stnrhi":"5.6","nrind":"NORMAL","fast":null,"dtc":"2024-06-05","dy":"90","visit":"WEEK 12","visitnum":"4.0","epoch":"TREATMENT","spec":null,"method":null},{"seq":"19","testcd":"HGB","test":"Hemoglobin","cat":"HEMATOLOGY","orres":"130.68","orresu":"g/L","stresc":"130.68","stresn":"130.68","stresu":"g/L","stnrlo":"130","stnrhi":"175","nrind":"NORMAL","fast":null,"dtc":"2024-06-05","dy":"90","visit":"WEEK 12","visitnum":"4.0","epoch":"TREATMENT","spec":null,"method":null},{"seq":"20","testcd":"PLAT","test":"Platelets","cat":"HEMATOLOGY","orres":"287.14","orresu":"10^9/L","stresc":"287.14","stresn":"287.14","stresu":"10^9/L","stnrlo":"150","stnrhi":"400","nrind":"NORMAL","fast":null,"dtc":"2024-06-05","dy":"90","visit":"WEEK 12","visitnum":"4.0","epoch":"TREATMENT","spec":null,"method":null},{"seq":"21","testcd":"WBC","test":"Leukocytes","cat":"HEMATOLOGY","orres":"6.17","orresu":"10^9/L","stresc":"6.17","stresn":"6.17","stresu":"10^9/L","stnrlo":"4.0","stnrhi":"11.0","nrind":"NORMAL","fast":null,"dtc":"2024-06-05","dy":"90","visit":"WEEK 12","visitnum":"4.0","epoch":"TREATMENT","spec":null,"method":null},{"seq":"22","testcd":"ALT","test":"Alanine Aminotransferase","cat":"CHEMISTRY","orres":"8.72","orresu":"U/L","stresc":"8.72","stresn":"8.72","stresu":"U/L","stnrlo":"7","stnrhi":"56","nrind":"NORMAL","fast":null,"dtc":"2024-08-22","dy":"168","visit":"WEEK 24","visitnum":"5.0","epoch":"TREATMENT","spec":null,"method":null},{"seq":"23","testcd":"AST","test":"Aspartate Aminotransferase","cat":"CHEMISTRY","orres":"10.26","orresu":"U/L","stresc":"10.26","stresn":"10.26","stresu":"U/L","stnrlo":"10","stnrhi":"40","nrind":"NORMAL","fast":null,"dtc":"2024-08-22","dy":"168","visit":"WEEK 24","visitnum":"5.0","epoch":"TREATMENT","spec":null,"method":null},{"seq":"24","testcd":"CREAT","test":"Creatinine","cat":"CHEMISTRY","orres":"63.89","orresu":"umol/L","stresc":"63.89","stresn":"63.89","stresu":"umol/L","stnrlo":"62","stnrhi":"106","nrind":"NORMAL","fast":null,"dtc":"2024-08-22","dy":"168","visit":"WEEK 24","visitnum":"5.0","epoch":"TREATMENT","spec":null,"method":null},{"seq":"25","testcd":"GLUC","test":"Glucose","cat":"CHEMISTRY","orres":"4.09","orresu":"mmol/L","stresc":"4.09","stresn":"4.09","stresu":"mmol/L","stnrlo":"3.9","stnrhi":"5.6","nrind":"NORMAL","fast":null,"dtc":"2024-08-22","dy":"168","visit":"WEEK 24","visitnum":"5.0","epoch":"TREATMENT","spec":null,"method":null},{"seq":"26","testcd":"HGB","test":"Hemoglobin","cat":"HEMATOLOGY","orres":"131.43","orresu":"g/L","stresc":"131.43","stresn":"131.43","stresu":"g/L","stnrlo":"130","stnrhi":"175","nrind":"NORMAL","fast":null,"dtc":"2024-08-22","dy":"168","visit":"WEEK 24","visitnum":"5.0","epoch":"TREATMENT","spec":null,"method":null},{"seq":"27","testcd":"PLAT","test":"Platelets","cat":"HEMATOLOGY","orres":"280.58","orresu":"10^9/L","stresc":"280.58","stresn":"280.58","stresu":"10^9/L","stnrlo":"150","stnrhi":"400","nrind":"NORMAL","fast":null,"dtc":"2024-08-22","dy":"168","visit":"WEEK 24","visitnum":"5.0","epoch":"TREATMENT","spec":null,"method":null},{"seq":"28","testcd":"WBC","test":"Leukocytes","cat":"HEMATOLOGY","orres":"5.41","orresu":"10^9/L","stresc":"5.41","stresn":"5.41","stresu":"10^9/L","stnrlo":"4.0","stnrhi":"11.0","nrind":"NORMAL","fast":null,"dtc":"2024-08-22","dy":"168","visit":"WEEK 24","visitnum":"5.0","epoch":"TREATMENT","spec":null,"method":null},{"seq":"29","testcd":"ALT","test":"Alanine Aminotransferase","cat":"CHEMISTRY","orres":"10.67","orresu":"U/L","stresc":"10.67","stresn":"10.67","stresu":"U/L","stnrlo":"7","stnrhi":"56","nrind":"NORMAL","fast":null,"dtc":"2024-11-19","dy":"257","visit":"WEEK 36","visitnum":"6.0","epoch":"TREATMENT","spec":null,"method":null},{"seq":"30","testcd":"AST","test":"Aspartate Aminotransferase","cat":"CHEMISTRY","orres":"11.26","orresu":"U/L","stresc":"11.26","stresn":"11.26","stresu":"U/L","stnrlo":"10","stnrhi":"40","nrind":"NORMAL","fast":null,"dtc":"2024-11-19","dy":"257","visit":"WEEK 36","visitnum":"6.0","epoch":"TREATMENT","spec":null,"method":null},{"seq":"31","testcd":"CREAT","test":"Creatinine","cat":"CHEMISTRY","orres":"70.43","orresu":"umol/L","stresc":"70.43","stresn":"70.43","stresu":"umol/L","stnrlo":"62","stnrhi":"106","nrind":"NORMAL","fast":null,"dtc":"2024-11-19","dy":"257","visit":"WEEK 36","visitnum":"6.0","epoch":"TREATMENT","spec":null,"method":null},{"seq":"32","testcd":"GLUC","test":"Glucose","cat":"CHEMISTRY","orres":null,"orresu":null,"stresc":null,"stresn":null,"stresu":null,"stnrlo":null,"stnrhi":null,"nrind":null,"fast":null,"dtc":"2024-11-19","dy":"257","visit":"WEEK 36","visitnum":"6.0","epoch":"TREATMENT","spec":null,"method":null},{"seq":"33","testcd":"HGB","test":"Hemoglobin","cat":"HEMATOLOGY","orres":"131.64","orresu":"g/L","stresc":"131.64","stresn":"131.64","stresu":"g/L","stnrlo":"130","stnrhi":"175","nrind":"NORMAL","fast":null,"dtc":"2024-11-19","dy":"257","visit":"WEEK 36","visitnum":"6.0","epoch":"TREATMENT","spec":null,"method":null},{"seq":"34","testcd":"PLAT","test":"Platelets","cat":"HEMATOLOGY","orres":"260.04","orresu":"10^9/L","stresc":"260.04","stresn":"260.04","stresu":"10^9/L","stnrlo":"150","stnrhi":"400","nrind":"NORMAL","fast":null,"dtc":"2024-11-19","dy":"257","visit":"WEEK 36","visitnum":"6.0","epoch":"TREATMENT","spec":null,"method":null},{"seq":"35","testcd":"WBC","test":"Leukocytes","cat":"HEMATOLOGY","orres":"5.11","orresu":"10^9/L","stresc":"5.11","stresn":"5.11","stresu":"10^9/L","stnrlo":"4.0","stnrhi":"11.0","nrind":"NORMAL","fast":null,"dtc":"2024-11-19","dy":"257","visit":"WEEK 36","visitnum":"6.0","epoch":"TREATMENT","spec":null,"method":null},{"seq":"36","testcd":"ALT","test":"Alanine Aminotransferase","cat":"CHEMISTRY","orres":"9.19","orresu":"U/L","stresc":"9.19","stresn":"9.19","stresu":"U/L","stnrlo":"7","stnrhi":"56","nrind":"NORMAL","fast":null,"dtc":"2025-03-04","dy":"362","visit":"WEEK 52","visitnum":"7.0","epoch":"TREATMENT","spec":null,"method":null},{"seq":"37","testcd":"AST","test":"Aspartate Aminotransferase","cat":"CHEMISTRY","orres":"10.65","orresu":"U/L","stresc":"10.65","stresn":"10.65","stresu":"U/L","stnrlo":"10","stnrhi":"40","nrind":"NORMAL","fast":null,"dtc":"2025-03-04","dy":"362","visit":"WEEK 52","visitnum":"7.0","epoch":"TREATMENT","spec":null,"method":null},{"seq":"38","testcd":"CREAT","test":"Creatinine","cat":"CHEMISTRY","orres":"70.27","orresu":"umol/L","stresc":"70.27","stresn":"70.27","stresu":"umol/L","stnrlo":"62","stnrhi":"106","nrind":"NORMAL","fast":null,"dtc":"2025-03-04","dy":"362","visit":"WEEK 52","visitnum":"7.0","epoch":"TREATMENT","spec":null,"method":null},{"seq":"39","testcd":"GLUC","test":"Glucose","cat":"CHEMISTRY","orres":"4.19","orresu":"mmol/L","stresc":"4.19","stresn":"4.19","stresu":"mmol/L","stnrlo":"3.9","stnrhi":"5.6","nrind":"NORMAL","fast":null,"dtc":"2025-03-04","dy":"362","visit":"WEEK 52","visitnum":"7.0","epoch":"TREATMENT","spec":null,"method":null},{"seq":"40","testcd":"HGB","test":"Hemoglobin","cat":"HEMATOLOGY","orres":"131.03","orresu":"g/L","stresc":"131.03","stresn":"131.03","stresu":"g/L","stnrlo":"130","stnrhi":"175","nrind":"NORMAL","fast":null,"dtc":"2025-03-04","dy":"362","visit":"WEEK 52","visitnum":"7.0","epoch":"TREATMENT","spec":null,"method":null},{"seq":"41","testcd":"PLAT","test":"Platelets","cat":"HEMATOLOGY","orres":"267.35","orresu":"10^9/L","stresc":"267.35","stresn":"267.35","stresu":"10^9/L","stnrlo":"150","stnrhi":"400","nrind":"NORMAL","fast":null,"dtc":"2025-03-04","dy":"362","visit":"WEEK 52","visitnum":"7.0","epoch":"TREATMENT","spec":null,"method":null},{"seq":"42","testcd":"WBC","test":"Leukocytes","cat":"HEMATOLOGY","orres":"5.44","orresu":"10^9/L","stresc":"5.44","stresn":"5.44","stresu":"10^9/L","stnrlo":"4.0","stnrhi":"11.0","nrind":"NORMAL","fast":null,"dtc":"2025-03-04","dy":"362","visit":"WEEK 52","visitnum":"7.0","epoch":"TREATMENT","spec":null,"method":null},{"seq":"43","testcd":"ALT","test":"Alanine Aminotransferase","cat":"CHEMISTRY","orres":"6.96","orresu":"U/L","stresc":"6.96","stresn":"6.96","stresu":"U/L","stnrlo":"7","stnrhi":"56","nrind":"LOW","fast":null,"dtc":"2025-03-30","dy":"388","visit":"FOLLOW-UP","visitnum":"8.0","epoch":"FOLLOW-UP","spec":null,"method":null},{"seq":"44","testcd":"AST","test":"Aspartate Aminotransferase","cat":"CHEMISTRY","orres":"8.7","orresu":"U/L","stresc":"8.7","stresn":"8.7","stresu":"U/L","stnrlo":"10","stnrhi":"40","nrind":"LOW","fast":null,"dtc":"2025-03-30","dy":"388","visit":"FOLLOW-UP","visitnum":"8.0","epoch":"FOLLOW-UP","spec":null,"method":null},{"seq":"45","testcd":"CREAT","test":"Creatinine","cat":"CHEMISTRY","orres":"69.7","orresu":"umol/L","stresc":"69.7","stresn":"69.7","stresu":"umol/L","stnrlo":"62","stnrhi":"106","nrind":"NORMAL","fast":null,"dtc":"2025-03-30","dy":"388","visit":"FOLLOW-UP","visitnum":"8.0","epoch":"FOLLOW-UP","spec":null,"method":null},{"seq":"46","testcd":"GLUC","test":"Glucose","cat":"CHEMISTRY","orres":"4.09","orresu":"mmol/L","stresc":"4.09","stresn":"4.09","stresu":"mmol/L","stnrlo":"3.9","stnrhi":"5.6","nrind":"NORMAL","fast":null,"dtc":"2025-03-30","dy":"388","visit":"FOLLOW-UP","visitnum":"8.0","epoch":"FOLLOW-UP","spec":null,"method":null},{"seq":"47","testcd":"HGB","test":"Hemoglobin","cat":"HEMATOLOGY","orres":"132.7","orresu":"g/L","stresc":"132.7","stresn":"132.7","stresu":"g/L","stnrlo":"130","stnrhi":"175","nrind":"NORMAL","fast":null,"dtc":"2025-03-30","dy":"388","visit":"FOLLOW-UP","visitnum":"8.0","epoch":"FOLLOW-UP","spec":null,"method":null},{"seq":"48","testcd":"PLAT","test":"Platelets","cat":"HEMATOLOGY","orres":"248.83","orresu":"10^9/L","stresc":"248.83","stresn":"248.83","stresu":"10^9/L","stnrlo":"150","stnrhi":"400","nrind":"NORMAL","fast":null,"dtc":"2025-03-30","dy":"388","visit":"FOLLOW-UP","visitnum":"8.0","epoch":"FOLLOW-UP","spec":null,"method":null},{"seq":"49","testcd":"WBC","test":"Leukocytes","cat":"HEMATOLOGY","orres":"5.73","orresu":"10^9/L","stresc":"5.73","stresn":"5.73","stresu":"10^9/L","stnrlo":"4.0","stnrhi":"11.0","nrind":"NORMAL","fast":null,"dtc":"2025-03-30","dy":"388","visit":"FOLLOW-UP","visitnum":"8.0","epoch":"FOLLOW-UP","spec":null,"method":null}]},"section_9_vital_signs":{"summary":{"total_records":56},"trends":{"BMI":[{"visit":"SCREENING","visitnum":"1.0","dtc":"2024-02-13","value":"18.7","unit":"kg/m2"},{"visit":"RANDOMIZATION","visitnum":"2.0","dtc":"2024-03-08","value":"19.1","unit":"kg/m2"},{"visit":"WEEK 4","visitnum":"3.0","dtc":"2024-04-03","value":"19.1","unit":"kg/m2"},{"visit":"WEEK 12","visitnum":"4.0","dtc":"2024-06-05","value":"18.2","unit":"kg/m2"},{"visit":"WEEK 24","visitnum":"5.0","dtc":"2024-08-22","value":"19.0","unit":"kg/m2"},{"visit":"WEEK 36","visitnum":"6.0","dtc":"2024-11-19","value":"18.6","unit":"kg/m2"},{"visit":"FOLLOW-UP","visitnum":"8.0","dtc":"2025-03-30","value":"18.1","unit":"kg/m2"}],"DIABP":[{"visit":"SCREENING","visitnum":"1.0","dtc":"2024-02-13","value":"59.0","unit":"mmHg"},{"visit":"RANDOMIZATION","visitnum":"2.0","dtc":"2024-03-08","value":"61.5","unit":"mmHg"},{"visit":"WEEK 4","visitnum":"3.0","dtc":"2024-04-03","value":"59.8","unit":"mmHg"},{"visit":"WEEK 12","visitnum":"4.0","dtc":"2024-06-05","value":"58.4","unit":"mmHg"},{"visit":"WEEK 24","visitnum":"5.0","dtc":"2024-08-22","value":"57.9","unit":"mmHg"},{"visit":"WEEK 36","visitnum":"6.0","dtc":"2024-11-19","value":"58.4","unit":"mmHg"},{"visit":"FOLLOW-UP","visitnum":"8.0","dtc":"2025-03-30","value":"59.2","unit":"mmHg"}],"HEIGHT":[{"visit":"SCREENING","visitnum":"1.0","dtc":"2024-02-13","value":"176.3","unit":"cm"},{"visit":"RANDOMIZATION","visitnum":"2.0","dtc":"2024-03-08","value":"175.5","unit":"cm"},{"visit":"WEEK 4","visitnum":"3.0","dtc":"2024-04-03","value":"175.7","unit":"cm"},{"visit":"WEEK 12","visitnum":"4.0","dtc":"2024-06-05","value":"175.4","unit":"cm"},{"visit":"WEEK 24","visitnum":"5.0","dtc":"2024-08-22","value":"175.5","unit":"cm"},{"visit":"WEEK 36","visitnum":"6.0","dtc":"2024-11-19","value":"176.2","unit":"cm"},{"visit":"FOLLOW-UP","visitnum":"8.0","dtc":"2025-03-30","value":"176.3","unit":"cm"}],"PULSE":[{"visit":"SCREENING","visitnum":"1.0","dtc":"2024-02-13","value":"85.2","unit":"beats/min"},{"visit":"RANDOMIZATION","visitnum":"2.0","dtc":"2024-03-08","value":"85.5","unit":"beats/min"},{"visit":"WEEK 4","visitnum":"3.0","dtc":"2024-04-03","value":"86.4","unit":"beats/min"},{"visit":"WEEK 12","visitnum":"4.0","dtc":"2024-06-05","value":"82.6","unit":"beats/min"},{"visit":"WEEK 24","visitnum":"5.0","dtc":"2024-08-22","value":"110.9","unit":"beats/min"},{"visit":"WEEK 36","visitnum":"6.0","dtc":"2024-11-19","value":"87.3","unit":"beats/min"},{"visit":"FOLLOW-UP","visitnum":"8.0","dtc":"2025-03-30","value":"85.7","unit":"beats/min"}],"RESP":[{"visit":"SCREENING","visitnum":"1.0","dtc":"2024-02-13","value":"15.1","unit":"breaths/min"},{"visit":"RANDOMIZATION","visitnum":"2.0","dtc":"2024-03-08","value":"14.8","unit":"breaths/min"},{"visit":"WEEK 4","visitnum":"3.0","dtc":"2024-04-03","value":"15.9","unit":"breaths/min"},{"visit":"WEEK 12","visitnum":"4.0","dtc":"2024-06-05","value":"15.8","unit":"breaths/min"},{"visit":"WEEK 24","visitnum":"5.0","dtc":"2024-08-22","value":"17.1","unit":"breaths/min"},{"visit":"WEEK 36","visitnum":"6.0","dtc":"2024-11-19","value":"18.1","unit":"breaths/min"},{"visit":"FOLLOW-UP","visitnum":"8.0","dtc":"2025-03-30","value":"15.6","unit":"breaths/min"}],"SYSBP":[{"visit":"SCREENING","visitnum":"1.0","dtc":"2024-02-13","value":"116.0","unit":"mmHg"},{"visit":"RANDOMIZATION","visitnum":"2.0","dtc":"2024-03-08","value":"119.4","unit":"mmHg"},{"visit":"WEEK 4","visitnum":"3.0","dtc":"2024-04-03","value":"115.5","unit":"mmHg"},{"visit":"WEEK 12","visitnum":"4.0","dtc":"2024-06-05","value":"113.9","unit":"mmHg"},{"visit":"WEEK 24","visitnum":"5.0","dtc":"2024-08-22","value":"98.2","unit":"mmHg"},{"visit":"FOLLOW-UP","visitnum":"8.0","dtc":"2025-03-30","value":"115.0","unit":"mmHg"}],"TEMP":[{"visit":"SCREENING","visitnum":"1.0","dtc":"2024-02-13","value":"36.1","unit":"C"},{"visit":"RANDOMIZATION","visitnum":"2.0","dtc":"2024-03-08","value":"36.4","unit":"C"},{"visit":"WEEK 4","visitnum":"3.0","dtc":"2024-04-03","value":"36.2","unit":"C"},{"visit":"WEEK 12","visitnum":"4.0","dtc":"2024-06-05","value":"36.0","unit":"C"},{"visit":"WEEK 24","visitnum":"5.0","dtc":"2024-08-22","value":"36.3","unit":"C"},{"visit":"WEEK 36","visitnum":"6.0","dtc":"2024-11-19","value":"36.4","unit":"C"},{"visit":"FOLLOW-UP","visitnum":"8.0","dtc":"2025-03-30","value":"36.5","unit":"C"}],"WEIGHT":[{"visit":"SCREENING","visitnum":"1.0","dtc":"2024-02-13","value":"58.0","unit":"kg"},{"visit":"RANDOMIZATION","visitnum":"2.0","dtc":"2024-03-08","value":"58.7","unit":"kg"},{"visit":"WEEK 4","visitnum":"3.0","dtc":"2024-04-03","value":"58.9","unit":"kg"},{"visit":"WEEK 12","visitnum":"4.0","dtc":"2024-06-05","value":"55.9","unit":"kg"},{"visit":"WEEK 24","visitnum":"5.0","dtc":"2024-08-22","value":"58.5","unit":"kg"},{"visit":"WEEK 36","visitnum":"6.0","dtc":"2024-11-19","value":"57.9","unit":"kg"},{"visit":"FOLLOW-UP","visitnum":"8.0","dtc":"2025-03-30","value":"56.2","unit":"kg"}]},"results":[{"seq":"1","testcd":"BMI","test":"BMI","cat":null,"orres":"18.7","orresu":"kg/m2","stresc":"18.7","stresn":"18.7","stresu":"kg/m2","stnrlo":null,"stnrhi":null,"nrind":null,"pos":null,"loc":null,"dtc":"2024-02-13","dy":"-24","visit":"SCREENING","visitnum":"1.0","epoch":"SCREENING"},{"seq":"2","testcd":"DIABP","test":"Diastolic Blood Pressure","cat":null,"orres":"59.0","orresu":"mmHg","stresc":"59.0","stresn":"59.0","stresu":"mmHg","stnrlo":null,"stnrhi":null,"nrind":null,"pos":null,"loc":null,"dtc":"2024-02-13","dy":"-24","visit":"SCREENING","visitnum":"1.0","epoch":"SCREENING"},{"seq":"3","testcd":"HEIGHT","test":"Height","cat":null,"orres":"176.3","orresu":"cm","stresc":"176.3","stresn":"176.3","stresu":"cm","stnrlo":null,"stnrhi":null,"nrind":null,"pos":null,"loc":null,"dtc":"2024-02-13","dy":"-24","visit":"SCREENING","visitnum":"1.0","epoch":"SCREENING"},{"seq":"4","testcd":"PULSE","test":"Pulse Rate","cat":null,"orres":"85.2","orresu":"beats/min","stresc":"85.2","stresn":"85.2","stresu":"beats/min","stnrlo":null,"stnrhi":null,"nrind":null,"pos":null,"loc":null,"dtc":"2024-02-13","dy":"-24","visit":"SCREENING","visitnum":"1.0","epoch":"SCREENING"},{"seq":"5","testcd":"RESP","test":"Respiratory Rate","cat":null,"orres":"15.1","orresu":"breaths/min","stresc":"15.1","stresn":"15.1","stresu":"breaths/min","stnrlo":null,"stnrhi":null,"nrind":null,"pos":null,"loc":null,"dtc":"2024-02-13","dy":"-24","visit":"SCREENING","visitnum":"1.0","epoch":"SCREENING"},{"seq":"6","testcd":"SYSBP","test":"Systolic Blood Pressure","cat":null,"orres":"116.0","orresu":"mmHg","stresc":"116.0","stresn":"116.0","stresu":"mmHg","stnrlo":null,"stnrhi":null,"nrind":null,"pos":null,"loc":null,"dtc":"2024-02-13","dy":"-24","visit":"SCREENING","visitnum":"1.0","epoch":"SCREENING"},{"seq":"7","testcd":"TEMP","test":"Temperature","cat":null,"orres":"36.1","orresu":"C","stresc":"36.1","stresn":"36.1","stresu":"C","stnrlo":null,"stnrhi":null,"nrind":null,"pos":null,"loc":null,"dtc":"2024-02-13","dy":"-24","visit":"SCREENING","visitnum":"1.0","epoch":"SCREENING"},{"seq":"8","testcd":"WEIGHT","test":"Weight","cat":null,"orres":"58.0","orresu":"kg","stresc":"58.0","stresn":"58.0","stresu":"kg","stnrlo":null,"stnrhi":null,"nrind":null,"pos":null,"loc":null,"dtc":"2024-02-13","dy":"-24","visit":"SCREENING","visitnum":"1.0","epoch":"SCREENING"},{"seq":"9","testcd":"BMI","test":"BMI","cat":null,"orres":"19.1","orresu":"kg/m2","stresc":"19.1","stresn":"19.1","stresu":"kg/m2","stnrlo":null,"stnrhi":null,"nrind":null,"pos":null,"loc":null,"dtc":"2024-03-08","dy":"1","visit":"RANDOMIZATION","visitnum":"2.0","epoch":"TREATMENT"},{"seq":"10","testcd":"DIABP","test":"Diastolic Blood Pressure","cat":null,"orres":"61.5","orresu":"mmHg","stresc":"61.5","stresn":"61.5","stresu":"mmHg","stnrlo":null,"stnrhi":null,"nrind":null,"pos":null,"loc":null,"dtc":"2024-03-08","dy":"1","visit":"RANDOMIZATION","visitnum":"2.0","epoch":"TREATMENT"},{"seq":"11","testcd":"HEIGHT","test":"Height","cat":null,"orres":"175.5","orresu":"cm","stresc":"175.5","stresn":"175.5","stresu":"cm","stnrlo":null,"stnrhi":null,"nrind":null,"pos":null,"loc":null,"dtc":"2024-03-08","dy":"1","visit":"RANDOMIZATION","visitnum":"2.0","epoch":"TREATMENT"},{"seq":"12","testcd":"PULSE","test":"Pulse Rate","cat":null,"orres":"85.5","orresu":"beats/min","stresc":"85.5","stresn":"85.5","stresu":"beats/min","stnrlo":null,"stnrhi":null,"nrind":null,"pos":null,"loc":null,"dtc":"2024-03-08","dy":"1","visit":"RANDOMIZATION","visitnum":"2.0","epoch":"TREATMENT"},{"seq":"13","testcd":"RESP","test":"Respiratory Rate","cat":null,"orres":"14.8","orresu":"breaths/min","stresc":"14.8","stresn":"14.8","stresu":"breaths/min","stnrlo":null,"stnrhi":null,"nrind":null,"pos":null,"loc":null,"dtc":"2024-03-08","dy":"1","visit":"RANDOMIZATION","visitnum":"2.0","epoch":"TREATMENT"},{"seq":"14","testcd":"SYSBP","test":"Systolic Blood Pressure","cat":null,"orres":"119.4","orresu":"mmHg","stresc":"119.4","stresn":"119.4","stresu":"mmHg","stnrlo":null,"stnrhi":null,"nrind":null,"pos":null,"loc":null,"dtc":"2024-03-08","dy":"1","visit":"RANDOMIZATION","visitnum":"2.0","epoch":"TREATMENT"},{"seq":"15","testcd":"TEMP","test":"Temperature","cat":null,"orres":"36.4","orresu":"C","stresc":"36.4","stresn":"36.4","stresu":"C","stnrlo":null,"stnrhi":null,"nrind":null,"pos":null,"loc":null,"dtc":"2024-03-08","dy":"1","visit":"RANDOMIZATION","visitnum":"2.0","epoch":"TREATMENT"},{"seq":"16","testcd":"WEIGHT","test":"Weight","cat":null,"orres":"58.7","orresu":"kg","stresc":"58.7","stresn":"58.7","stresu":"kg","stnrlo":null,"stnrhi":null,"nrind":null,"pos":null,"loc":null,"dtc":"2024-03-08","dy":"1","visit":"RANDOMIZATION","visitnum":"2.0","epoch":"TREATMENT"},{"seq":"17","testcd":"BMI","test":"BMI","cat":null,"orres":"19.1","orresu":"kg/m2","stresc":"19.1","stresn":"19.1","stresu":"kg/m2","stnrlo":null,"stnrhi":null,"nrind":null,"pos":null,"loc":null,"dtc":"2024-04-03","dy":"27","visit":"WEEK 4","visitnum":"3.0","epoch":"TREATMENT"},{"seq":"18","testcd":"DIABP","test":"Diastolic Blood Pressure","cat":null,"orres":"59.8","orresu":"mmHg","stresc":"59.8","stresn":"59.8","stresu":"mmHg","stnrlo":null,"stnrhi":null,"nrind":null,"pos":null,"loc":null,"dtc":"2024-04-03","dy":"27","visit":"WEEK 4","visitnum":"3.0","epoch":"TREATMENT"},{"seq":"19","testcd":"HEIGHT","test":"Height","cat":null,"orres":"175.7","orresu":"cm","stresc":"175.7","stresn":"175.7","stresu":"cm","stnrlo":null,"stnrhi":null,"nrind":null,"pos":null,"loc":null,"dtc":"2024-04-03","dy":"27","visit":"WEEK 4","visitnum":"3.0","epoch":"TREATMENT"},{"seq":"20","testcd":"PULSE","test":"Pulse Rate","cat":null,"orres":"86.4","orresu":"beats/min","stresc":"86.4","stresn":"86.4","stresu":"beats/min","stnrlo":null,"stnrhi":null,"nrind":null,"pos":null,"loc":null,"dtc":"2024-04-03","dy":"27","visit":"WEEK 4","visitnum":"3.0","epoch":"TREATMENT"},{"seq":"21","testcd":"RESP","test":"Respiratory Rate","cat":null,"orres":"15.9","orresu":"breaths/min","stresc":"15.9","stresn":"15.9","stresu":"breaths/min","stnrlo":null,"stnrhi":null,"nrind":null,"pos":null,"loc":null,"dtc":"2024-04-03","dy":"27","visit":"WEEK 4","visitnum":"3.0","epoch":"TREATMENT"},{"seq":"22","testcd":"SYSBP","test":"Systolic Blood Pressure","cat":null,"orres":"115.5","orresu":"mmHg","stresc":"115.5","stresn":"115.5","stresu":"mmHg","stnrlo":null,"stnrhi":null,"nrind":null,"pos":null,"loc":null,"dtc":"2024-04-03","dy":"27","visit":"WEEK 4","visitnum":"3.0","epoch":"TREATMENT"},{"seq":"23","testcd":"TEMP","test":"Temperature","cat":null,"orres":"36.2","orresu":"C","stresc":"36.2","stresn":"36.2","stresu":"C","stnrlo":null,"stnrhi":null,"nrind":null,"pos":null,"loc":null,"dtc":"2024-04-03","dy":"27","visit":"WEEK 4","visitnum":"3.0","epoch":"TREATMENT"},{"seq":"24","testcd":"WEIGHT","test":"Weight","cat":null,"orres":"58.9","orresu":"kg","stresc":"58.9","stresn":"58.9","stresu":"kg","stnrlo":null,"stnrhi":null,"nrind":null,"pos":null,"loc":null,"dtc":"2024-04-03","dy":"27","visit":"WEEK 4","visitnum":"3.0","epoch":"TREATMENT"},{"seq":"25","testcd":"BMI","test":"BMI","cat":null,"orres":"18.2","orresu":"kg/m2","stresc":"18.2","stresn":"18.2","stresu":"kg/m2","stnrlo":null,"stnrhi":null,"nrind":null,"pos":null,"loc":null,"dtc":"2024-06-05","dy":"90","visit":"WEEK 12","visitnum":"4.0","epoch":"TREATMENT"},{"seq":"26","testcd":"DIABP","test":"Diastolic Blood Pressure","cat":null,"orres":"58.4","orresu":"mmHg","stresc":"58.4","stresn":"58.4","stresu":"mmHg","stnrlo":null,"stnrhi":null,"nrind":null,"pos":null,"loc":null,"dtc":"2024-06-05","dy":"90","visit":"WEEK 12","visitnum":"4.0","epoch":"TREATMENT"},{"seq":"27","testcd":"HEIGHT","test":"Height","cat":null,"orres":"175.4","orresu":"cm","stresc":"175.4","stresn":"175.4","stresu":"cm","stnrlo":null,"stnrhi":null,"nrind":null,"pos":null,"loc":null,"dtc":"2024-06-05","dy":"90","visit":"WEEK 12","visitnum":"4.0","epoch":"TREATMENT"},{"seq":"28","testcd":"PULSE","test":"Pulse Rate","cat":null,"orres":"82.6","orresu":"beats/min","stresc":"82.6","stresn":"82.6","stresu":"beats/min","stnrlo":null,"stnrhi":null,"nrind":null,"pos":null,"loc":null,"dtc":"2024-06-05","dy":"90","visit":"WEEK 12","visitnum":"4.0","epoch":"TREATMENT"},{"seq":"29","testcd":"RESP","test":"Respiratory Rate","cat":null,"orres":"15.8","orresu":"breaths/min","stresc":"15.8","stresn":"15.8","stresu":"breaths/min","stnrlo":null,"stnrhi":null,"nrind":null,"pos":null,"loc":null,"dtc":"2024-06-05","dy":"90","visit":"WEEK 12","visitnum":"4.0","epoch":"TREATMENT"},{"seq":"30","testcd":"SYSBP","test":"Systolic Blood Pressure","cat":null,"orres":"113.9","orresu":"mmHg","stresc":"113.9","stresn":"113.9","stresu":"mmHg","stnrlo":null,"stnrhi":null,"nrind":null,"pos":null,"loc":null,"dtc":"2024-06-05","dy":"90","visit":"WEEK 12","visitnum":"4.0","epoch":"TREATMENT"},{"seq":"31","testcd":"TEMP","test":"Temperature","cat":null,"orres":"36.0","orresu":"C","stresc":"36.0","stresn":"36.0","stresu":"C","stnrlo":null,"stnrhi":null,"nrind":null,"pos":null,"loc":null,"dtc":"2024-06-05","dy":"90","visit":"WEEK 12","visitnum":"4.0","epoch":"TREATMENT"},{"seq":"32","testcd":"WEIGHT","test":"Weight","cat":null,"orres":"55.9","orresu":"kg","stresc":"55.9","stresn":"55.9","stresu":"kg","stnrlo":null,"stnrhi":null,"nrind":null,"pos":null,"loc":null,"dtc":"2024-06-05","dy":"90","visit":"WEEK 12","visitnum":"4.0","epoch":"TREATMENT"},{"seq":"33","testcd":"BMI","test":"BMI","cat":null,"orres":"19.0","orresu":"kg/m2","stresc":"19.0","stresn":"19.0","stresu":"kg/m2","stnrlo":null,"stnrhi":null,"nrind":null,"pos":null,"loc":null,"dtc":"2024-08-22","dy":"168","visit":"WEEK 24","visitnum":"5.0","epoch":"TREATMENT"},{"seq":"34","testcd":"DIABP","test":"Diastolic Blood Pressure","cat":null,"orres":"57.9","orresu":"mmHg","stresc":"57.9","stresn":"57.9","stresu":"mmHg","stnrlo":null,"stnrhi":null,"nrind":null,"pos":null,"loc":null,"dtc":"2024-08-22","dy":"168","visit":"WEEK 24","visitnum":"5.0","epoch":"TREATMENT"},{"seq":"35","testcd":"HEIGHT","test":"Height","cat":null,"orres":"175.5","orresu":"cm","stresc":"175.5","stresn":"175.5","stresu":"cm","stnrlo":null,"stnrhi":null,"nrind":null,"pos":null,"loc":null,"dtc":"2024-08-22","dy":"168","visit":"WEEK 24","visitnum":"5.0","epoch":"TREATMENT"},{"seq":"36","testcd":"PULSE","test":"Pulse Rate","cat":null,"orres":"110.9","orresu":"beats/min","stresc":"110.9","stresn":"110.9","stresu":"beats/min","stnrlo":null,"stnrhi":null,"nrind":null,"pos":null,"loc":null,"dtc":"2024-08-22","dy":"168","visit":"WEEK 24","visitnum":"5.0","epoch":"TREATMENT"},{"seq":"37","testcd":"RESP","test":"Respiratory Rate","cat":null,"orres":"17.1","orresu":"breaths/min","stresc":"17.1","stresn":"17.1","stresu":"breaths/min","stnrlo":null,"stnrhi":null,"nrind":null,"pos":null,"loc":null,"dtc":"2024-08-22","dy":"168","visit":"WEEK 24","visitnum":"5.0","epoch":"TREATMENT"},{"seq":"38","testcd":"SYSBP","test":"Systolic Blood Pressure","cat":null,"orres":"98.2","orresu":"mmHg","stresc":"98.2","stresn":"98.2","stresu":"mmHg","stnrlo":null,"stnrhi":null,"nrind":null,"pos":null,"loc":null,"dtc":"2024-08-22","dy":"168","visit":"WEEK 24","visitnum":"5.0","epoch":"TREATMENT"},{"seq":"39","testcd":"TEMP","test":"Temperature","cat":null,"orres":"36.3","orresu":"C","stresc":"36.3","stresn":"36.3","stresu":"C","stnrlo":null,"stnrhi":null,"nrind":null,"pos":null,"loc":null,"dtc":"2024-08-22","dy":"168","visit":"WEEK 24","visitnum":"5.0","epoch":"TREATMENT"},{"seq":"40","testcd":"WEIGHT","test":"Weight","cat":null,"orres":"58.5","orresu":"kg","stresc":"58.5","stresn":"58.5","stresu":"kg","stnrlo":null,"stnrhi":null,"nrind":null,"pos":null,"loc":null,"dtc":"2024-08-22","dy":"168","visit":"WEEK 24","visitnum":"5.0","epoch":"TREATMENT"},{"seq":"41","testcd":"BMI","test":"BMI","cat":null,"orres":"18.6","orresu":"kg/m2","stresc":"18.6","stresn":"18.6","stresu":"kg/m2","stnrlo":null,"stnrhi":null,"nrind":null,"pos":null,"loc":null,"dtc":"2024-11-19","dy":"257","visit":"WEEK 36","visitnum":"6.0","epoch":"TREATMENT"},{"seq":"42","testcd":"DIABP","test":"Diastolic Blood Pressure","cat":null,"orres":"58.4","orresu":"mmHg","stresc":"58.4","stresn":"58.4","stresu":"mmHg","stnrlo":null,"stnrhi":null,"nrind":null,"pos":null,"loc":null,"dtc":"2024-11-19","dy":"257","visit":"WEEK 36","visitnum":"6.0","epoch":"TREATMENT"},{"seq":"43","testcd":"HEIGHT","test":"Height","cat":null,"orres":"176.2","orresu":"cm","stresc":"176.2","stresn":"176.2","stresu":"cm","stnrlo":null,"stnrhi":null,"nrind":null,"pos":null,"loc":null,"dtc":"2024-11-19","dy":"257","visit":"WEEK 36","visitnum":"6.0","epoch":"TREATMENT"},{"seq":"44","testcd":"PULSE","test":"Pulse Rate","cat":null,"orres":"87.3","orresu":"beats/min","stresc":"87.3","stresn":"87.3","stresu":"beats/min","stnrlo":null,"stnrhi":null,"nrind":null,"pos":null,"loc":null,"dtc":"2024-11-19","dy":"257","visit":"WEEK 36","visitnum":"6.0","epoch":"TREATMENT"},{"seq":"45","testcd":"RESP","test":"Respiratory Rate","cat":null,"orres":"18.1","orresu":"breaths/min","stresc":"18.1","stresn":"18.1","stresu":"breaths/min","stnrlo":null,"stnrhi":null,"nrind":null,"pos":null,"loc":null,"dtc":"2024-11-19","dy":"257","visit":"WEEK 36","visitnum":"6.0","epoch":"TREATMENT"},{"seq":"46","testcd":"SYSBP","test":"Systolic Blood Pressure","cat":null,"orres":null,"orresu":null,"stresc":null,"stresn":null,"stresu":null,"stnrlo":null,"stnrhi":null,"nrind":null,"pos":null,"loc":null,"dtc":"2024-11-19","dy":"257","visit":"WEEK 36","visitnum":"6.0","epoch":"TREATMENT"},{"seq":"47","testcd":"TEMP","test":"Temperature","cat":null,"orres":"36.4","orresu":"C","stresc":"36.4","stresn":"36.4","stresu":"C","stnrlo":null,"stnrhi":null,"nrind":null,"pos":null,"loc":null,"dtc":"2024-11-19","dy":"257","visit":"WEEK 36","visitnum":"6.0","epoch":"TREATMENT"},{"seq":"48","testcd":"WEIGHT","test":"Weight","cat":null,"orres":"57.9","orresu":"kg","stresc":"57.9","stresn":"57.9","stresu":"kg","stnrlo":null,"stnrhi":null,"nrind":null,"pos":null,"loc":null,"dtc":"2024-11-19","dy":"257","visit":"WEEK 36","visitnum":"6.0","epoch":"TREATMENT"},{"seq":"49","testcd":"BMI","test":"BMI","cat":null,"orres":"18.1","orresu":"kg/m2","stresc":"18.1","stresn":"18.1","stresu":"kg/m2","stnrlo":null,"stnrhi":null,"nrind":null,"pos":null,"loc":null,"dtc":"2025-03-30","dy":"388","visit":"FOLLOW-UP","visitnum":"8.0","epoch":"FOLLOW-UP"},{"seq":"50","testcd":"DIABP","test":"Diastolic Blood Pressure","cat":null,"orres":"59.2","orresu":"mmHg","stresc":"59.2","stresn":"59.2","stresu":"mmHg","stnrlo":null,"stnrhi":null,"nrind":null,"pos":null,"loc":null,"dtc":"2025-03-30","dy":"388","visit":"FOLLOW-UP","visitnum":"8.0","epoch":"FOLLOW-UP"},{"seq":"51","testcd":"HEIGHT","test":"Height","cat":null,"orres":"176.3","orresu":"cm","stresc":"176.3","stresn":"176.3","stresu":"cm","stnrlo":null,"stnrhi":null,"nrind":null,"pos":null,"loc":null,"dtc":"2025-03-30","dy":"388","visit":"FOLLOW-UP","visitnum":"8.0","epoch":"FOLLOW-UP"},{"seq":"52","testcd":"PULSE","test":"Pulse Rate","cat":null,"orres":"85.7","orresu":"beats/min","stresc":"85.7","stresn":"85.7","stresu":"beats/min","stnrlo":null,"stnrhi":null,"nrind":null,"pos":null,"loc":null,"dtc":"2025-03-30","dy":"388","visit":"FOLLOW-UP","visitnum":"8.0","epoch":"FOLLOW-UP"},{"seq":"53","testcd":"RESP","test":"Respiratory Rate","cat":null,"orres":"15.6","orresu":"breaths/min","stresc":"15.6","stresn":"15.6","stresu":"breaths/min","stnrlo":null,"stnrhi":null,"nrind":null,"pos":null,"loc":null,"dtc":"2025-03-30","dy":"388","visit":"FOLLOW-UP","visitnum":"8.0","epoch":"FOLLOW-UP"},{"seq":"54","testcd":"SYSBP","test":"Systolic Blood Pressure","cat":null,"orres":"115.0","orresu":"mmHg","stresc":"115.0","stresn":"115.0","stresu":"mmHg","stnrlo":null,"stnrhi":null,"nrind":null,"pos":null,"loc":null,"dtc":"2025-03-30","dy":"388","visit":"FOLLOW-UP","visitnum":"8.0","epoch":"FOLLOW-UP"},{"seq":"55","testcd":"TEMP","test":"Temperature","cat":null,"orres":"36.5","orresu":"C","stresc":"36.5","stresn":"36.5","stresu":"C","stnrlo":null,"stnrhi":null,"nrind":null,"pos":null,"loc":null,"dtc":"2025-03-30","dy":"388","visit":"FOLLOW-UP","visitnum":"8.0","epoch":"FOLLOW-UP"},{"seq":"56","testcd":"WEIGHT","test":"Weight","cat":null,"orres":"56.2","orresu":"kg","stresc":"56.2","stresn":"56.2","stresu":"kg","stnrlo":null,"stnrhi":null,"nrind":null,"pos":null,"loc":null,"dtc":"2025-03-30","dy":"388","visit":"FOLLOW-UP","visitnum":"8.0","epoch":"FOLLOW-UP"}]},"section_10_questionnaires_and_scores":{"questionnaires":[],"findings_about":[]},"section_11_protocol_deviations":{"deviations":[{"seq":"1","term":"Missed EMPAGLIFLOZIN dose on 2024-04-06","decod":"MISSED DOSE","cat":"MINOR","scat":"DOSING","start_dtc":"2024-04-06","end_dtc":null,"visit":null},{"seq":"2","term":"Visit WEEK 24 occurred 1 days early (Day 168 vs planned Day 169)","decod":"VISIT OCCURRED OUTSIDE VISIT WINDOW","cat":"MINOR","scat":"VISIT WINDOW","start_dtc":"2024-08-22","end_dtc":null,"visit":null},{"seq":"3","term":"Missed EMPAGLIFLOZIN dose on 2024-09-23","decod":"MISSED DOSE","cat":"MINOR","scat":"DOSING","start_dtc":"2024-09-23","end_dtc":null,"visit":null},{"seq":"4","term":"Missed EMPAGLIFLOZIN dose on 2024-10-17","decod":"MISSED DOSE","cat":"MINOR","scat":"DOSING","start_dtc":"2024-10-17","end_dtc":null,"visit":null},{"seq":"5","term":"Visit WEEK 36 occurred 4 days late (Day 257 vs planned Day 253)","decod":"VISIT OCCURRED OUTSIDE VISIT WINDOW","cat":"MINOR","scat":"VISIT WINDOW","start_dtc":"2024-11-19","end_dtc":null,"visit":null}],"total":5},"section_12_disposition":{"completion_status":"COMPLETED","disposition_records":[{"seq":"1","term":"INFORMED CONSENT OBTAINED","decod":"INFORMED CONSENT OBTAINED","cat":"PROTOCOL MILESTONE","scat":null,"dtc":"2024-02-25","dy":null,"visit":null,"epoch":"SCREENING"},{"seq":"2","term":"RANDOMIZED","decod":"RANDOMIZED","cat":"PROTOCOL MILESTONE","scat":null,"dtc":"2024-03-08","dy":null,"visit":null,"epoch":"TREATMENT"},{"seq":"3","term":"COMPLETED","decod":"COMPLETED","cat":"DISPOSITION EVENT","scat":null,"dtc":"2025-04-19","dy":null,"visit":null,"epoch":"FOLLOW-UP"}],"death":null},"section_13_hospitalizations":{"items":[],"total":0},"section_14_substance_use":{"items":[{"seq":"1","substance":"ALCOHOL","decod":"ALCOHOL","cat":"ALCOHOL","scat":null,"usage":"Y","dose":"3.0","dosu":"DRINKS/WEEK","freq":"QW","start_dtc":"2011-02-28","end_dtc":null},{"seq":"2","substance":"COFFEE","decod":"COFFEE","cat":"CAFFEINE","scat":null,"usage":"Y","dose":null,"dosu":null,"freq":null,"start_dtc":"2007-03-01","end_dtc":"2014-02-27"},{"seq":"3","substance":"CIGARETTES","decod":"CIGARETTES","cat":"TOBACCO","scat":"CIGARETTES","usage":"N","dose":null,"dosu":null,"freq":null,"start_dtc":null,"end_dtc":null}],"total":3},"section_15_subject_status":{"items":[{"seq":"1","testcd":"SURVSTAT","test":"Survival Status","orres":"ALIVE","stresc":"ALIVE","dtc":"2025-04-06","visit":"FOLLOW-UP","epoch":"FOLLOW-UP"}],"total":1}}