{"subject_id":"EMPEROR-HFPEF-SITE003-0045","study_id":"EMPEROR-HFPEF","generated_at":"2026-06-16T09:54:13.494910+00:00","sdtmig_version":"3.4","flags":{"has_serious_ae":true,"has_fatal_ae":false,"has_protocol_deviation":true,"n_protocol_deviations":11,"n_adverse_events":4,"n_concomitant_meds":2,"max_ae_severity":"SEVERE","screen_failure":false,"discontinued_early":false,"discontinuation_reason":null,"death":false,"exposure_days":285},"timeline":[{"dtc":"2024-03-28","dy":"-23","event":"VISIT: SCREENING","domain":"SV","category":"visit"},{"dtc":"2024-04-01","dy":"-19","event":"INFORMED CONSENT OBTAINED","domain":"DS","category":"milestone"},{"dtc":"2024-04-20","dy":"1","event":"RANDOMIZED","domain":"DS","category":"milestone"},{"dtc":"2024-04-20","dy":"1","event":"FIRST DOSE: PLACEBO","domain":"EX","category":"exposure"},{"dtc":"2024-04-20","dy":"1","event":"VISIT: RANDOMIZATION","domain":"SV","category":"visit"},{"dtc":"2024-04-21","dy":"2","event":"DEVIATION: MISSED DOSE","domain":"DV","category":"deviation"},{"dtc":"2024-04-28","dy":"9","event":"AE: Dehydration (MODERATE)","domain":"AE","category":"adverse_event"},{"dtc":"2024-04-28","dy":"9","event":"CM START: ORAL REHYDRATION SALTS","domain":"CM","category":"concomitant_med"},{"dtc":"2024-05-20","dy":"31","event":"DEVIATION: MISSED DOSE","domain":"DV","category":"deviation"},{"dtc":"2024-05-21","dy":"32","event":"DEVIATION: MISSED ASSESSMENT","domain":"DV","category":"deviation"},{"dtc":"2024-05-21","dy":"32","event":"VISIT: WEEK 4","domain":"SV","category":"visit"},{"dtc":"2024-07-11","dy":"83","event":"VISIT: WEEK 12","domain":"SV","category":"visit"},{"dtc":"2024-09-12","dy":"146","event":"DEVIATION: MISSED DOSE","domain":"DV","category":"deviation"},{"dtc":"2024-09-30","dy":"164","event":"DEVIATION: MISSED DOSE","domain":"DV","category":"deviation"},{"dtc":"2024-10-04","dy":"168","event":"DEVIATION: MISSED DOSE","domain":"DV","category":"deviation"},{"dtc":"2024-10-08","dy":"172","event":"AE: Urinary tract infection (SEVERE) [SERIOUS]","domain":"AE","category":"adverse_event"},{"dtc":"2024-10-08","dy":"172","event":"CM START: NITROFURANTOIN","domain":"CM","category":"concomitant_med"},{"dtc":"2024-10-09","dy":"173","event":"VISIT: WEEK 24","domain":"SV","category":"visit"},{"dtc":"2024-10-15","dy":"179","event":"DEVIATION: MISSED DOSE","domain":"DV","category":"deviation"},{"dtc":"2024-11-04","dy":"199","event":"DEVIATION: MISSED DOSE","domain":"DV","category":"deviation"},{"dtc":"2024-11-10","dy":"205","event":"DEVIATION: MISSED DOSE","domain":"DV","category":"deviation"},{"dtc":"2024-11-19","dy":"214","event":"DEVIATION: MISSED DOSE","domain":"DV","category":"deviation"},{"dtc":"2024-12-27","dy":"252","event":"DEVIATION: VISIT OCCURRED OUTSIDE VISIT WINDOW","domain":"DV","category":"deviation"},{"dtc":"2024-12-27","dy":"252","event":"VISIT: WEEK 36","domain":"SV","category":"visit"},{"dtc":"2025-01-04","dy":"260","event":"AE: Hypoglycaemia (MODERATE)","domain":"AE","category":"adverse_event"},{"dtc":"2025-01-10","dy":"266","event":"AE: Urinary tract infection (MODERATE)","domain":"AE","category":"adverse_event"},{"dtc":"2025-04-13","dy":"359","event":"VISIT: WEEK 52","domain":"SV","category":"visit"},{"dtc":"2025-05-25","dy":"401","event":"VISIT: FOLLOW-UP","domain":"SV","category":"visit"},{"dtc":"2025-06-01","dy":"408","event":"COMPLETED","domain":"DS","category":"milestone"}],"section_1_demographics":{"usubjid":"EMPEROR-HFPEF-SITE003-0045","subjid":"0045","siteid":"SITE003","age":"32","ageu":"YEARS","sex":"F","race":"ASIAN","ethnicity":"NOT HISPANIC OR LATINO","country":"USA","arm":"Placebo","armcd":"PBO","actarm":"Placebo","actarmcd":"PBO","randomization_date":null,"informed_consent_date":"2024-04-01","reference_start_date":"2024-04-20","reference_end_date":"2025-06-01","screen_failure":false,"death_flag":null,"death_date":null,"subject_characteristics":[{"testcd":"ALCUSE","test":"Alcohol Use","orres":"NON-DRINKER","stresc":"NON-DRINKER","visit":null,"dtc":"2024-04-01"},{"testcd":"BMI","test":"Body Mass Index","orres":"24.5","stresc":"24.5","visit":null,"dtc":"2024-04-01"},{"testcd":"DURDIS","test":"Duration of Disease","orres":"109 months","stresc":"109","visit":null,"dtc":"2024-04-01"},{"testcd":"TOBPKYR","test":"Tobacco Pack-Years","orres":"9","stresc":"9","visit":null,"dtc":"2024-04-01"},{"testcd":"TOBUSE","test":"Tobacco Use","orres":"FORMER SMOKER","stresc":"FORMER SMOKER","visit":null,"dtc":"2024-04-01"}]},"section_2_medical_history":{"items":[{"seq":"1","term":"DEPRESSION","decod":"DEPRESSION","cat":"PSYCHIATRIC","scat":null,"presp":null,"occur":null,"status":null,"onset_dtc":"2017-04","end_dtc":"2019-04-29","visit":null},{"seq":"2","term":"DIABETES MELLITUS TYPE 2","decod":"DIABETES MELLITUS TYPE 2","cat":"ENDOCRINE","scat":null,"presp":null,"occur":null,"status":null,"onset_dtc":"2015-04-04","end_dtc":"2018-03-14","visit":null},{"seq":"3","term":"GASTROESOPHAGEAL REFLUX DISEASE","decod":"GASTROESOPHAGEAL REFLUX DISEASE","cat":"GASTROINTESTINAL","scat":null,"presp":null,"occur":null,"status":null,"onset_dtc":"2017-04-03","end_dtc":"2022-07-22","visit":null},{"seq":"4","term":"HYPERTENSION","decod":"HYPERTENSION","cat":"CARDIOVASCULAR","scat":null,"presp":null,"occur":null,"status":null,"onset_dtc":"2023-04-02","end_dtc":"2023-12-29","visit":null}]},"section_3_inclusion_exclusion":{"criteria":[]},"section_4_trial_participation":{"visits":[{"visitnum":"1.0","visit":"SCREENING","start_dtc":"2024-03-28","end_dtc":"2024-03-28","updes":null},{"visitnum":"2.0","visit":"RANDOMIZATION","start_dtc":"2024-04-20","end_dtc":"2024-04-20","updes":null},{"visitnum":"3.0","visit":"WEEK 4","start_dtc":"2024-05-21","end_dtc":"2024-05-21","updes":null},{"visitnum":"4.0","visit":"WEEK 12","start_dtc":"2024-07-11","end_dtc":"2024-07-11","updes":null},{"visitnum":"5.0","visit":"WEEK 24","start_dtc":"2024-10-09","end_dtc":"2024-10-09","updes":null},{"visitnum":"6.0","visit":"WEEK 36","start_dtc":"2024-12-27","end_dtc":"2024-12-27","updes":null},{"visitnum":"7.0","visit":"WEEK 52","start_dtc":"2025-04-13","end_dtc":"2025-04-13","updes":null},{"visitnum":"8.0","visit":"FOLLOW-UP","start_dtc":"2025-05-25","end_dtc":"2025-05-25","updes":null}],"epochs":[{"seq":"1","etcd":"SCRN","element":"Screening","start_dtc":"2024-04-06","end_dtc":"2024-04-20","updes":null},{"seq":"2","etcd":"TRT","element":"Treatment","start_dtc":"2024-04-20","end_dtc":"2025-04-19","updes":null},{"seq":"3","etcd":"FU","element":"Follow-up","start_dtc":"2025-04-19","end_dtc":"2025-05-18","updes":null}],"visit_count":8},"section_5_concomitant_medications":{"medications":[{"seq":"1","trt":"ORAL REHYDRATION SALTS","decod":"ORAL REHYDRATION SALTS","cat":"CONCOMITANT","dose":null,"doseu":null,"dosef":"PRN","route":"ORAL","indication":"DEHYDRATION","start_dtc":"2024-04-28","end_dtc":"2024-05-05","ongoing":null,"visit":null},{"seq":"2","trt":"NITROFURANTOIN","decod":"NITROFURANTOIN","cat":"CONCOMITANT","dose":"100.0","doseu":null,"dosef":"BID","route":"ORAL","indication":"URINARY TRACT INFECTION","start_dtc":"2024-10-08","end_dtc":"2024-11-03","ongoing":null,"visit":null}]},"section_6_exposure":{"exposure_as_administered":[{"seq":"1","trt":"PLACEBO","dose":"0.0","doseu":null,"dosef":"QD","route":"ORAL","lot":null,"start_dtc":"2024-04-20","end_dtc":"2025-01-30","start_dy":"1","end_dy":"286","epoch":"TREATMENT","visit":null}],"exposure_as_collected":[{"seq":"1","trt":"PLACEBO","dose":null,"doseu":null,"dosef":"QD","route":"ORAL","start_dtc":"2024-04-20","end_dtc":"2024-04-20","visit":"RANDOMIZATION"},{"seq":"2","trt":"PLACEBO","dose":null,"doseu":null,"dosef":"QD","route":"ORAL","start_dtc":"2024-04-21","end_dtc":"2024-04-21","visit":"RANDOMIZATION"},{"seq":"3","trt":"PLACEBO","dose":null,"doseu":null,"dosef":"QD","route":"ORAL","start_dtc":"2024-04-22","end_dtc":"2024-04-22","visit":"RANDOMIZATION"},{"seq":"4","trt":"PLACEBO","dose":null,"doseu":null,"dosef":"QD","route":"ORAL","start_dtc":"2024-04-23","end_dtc":"2024-04-23","visit":"RANDOMIZATION"},{"seq":"5","trt":"PLACEBO","dose":null,"doseu":null,"dosef":"QD","route":"ORAL","start_dtc":"2024-04-24","end_dtc":"2024-04-24","visit":null},{"seq":"6","trt":"PLACEBO","dose":null,"doseu":null,"dosef":"QD","route":"ORAL","start_dtc":"2024-04-25","end_dtc":"2024-04-25","visit":null},{"seq":"7","trt":"PLACEBO","dose":null,"doseu":null,"dosef":"QD","route":"ORAL","start_dtc":"2024-04-26","end_dtc":"2024-04-26","visit":null},{"seq":"8","trt":"PLACEBO","dose":null,"doseu":null,"dosef":"QD","route":"ORAL","start_dtc":"2024-04-27","end_dtc":"2024-04-27","visit":null},{"seq":"9","trt":"PLACEBO","dose":null,"doseu":null,"dosef":"QD","route":"ORAL","start_dtc":"2024-04-28","end_dtc":"2024-04-28","visit":null},{"seq":"10","trt":"PLACEBO","dose":null,"doseu":null,"dosef":"QD","route":"ORAL","start_dtc":"2024-04-29","end_dtc":"2024-04-29","visit":null},{"seq":"11","trt":"PLACEBO","dose":null,"doseu":null,"dosef":"QD","route":"ORAL","start_dtc":"2024-04-30","end_dtc":"2024-04-30","visit":null},{"seq":"12","trt":"PLACEBO","dose":null,"doseu":null,"dosef":"QD","route":"ORAL","start_dtc":"2024-05-01","end_dtc":"2024-05-01","visit":null},{"seq":"13","trt":"PLACEBO","dose":null,"doseu":null,"dosef":"QD","route":"ORAL","start_dtc":"2024-05-02","end_dtc":"2024-05-02","visit":null},{"seq":"14","trt":"PLACEBO","dose":null,"doseu":null,"dosef":"QD","route":"ORAL","start_dtc":"2024-05-03","end_dtc":"2024-05-03","visit":null},{"seq":"15","trt":"PLACEBO","dose":null,"doseu":null,"dosef":"QD","route":"ORAL","start_dtc":"2024-05-04","end_dtc":"2024-05-04","visit":null},{"seq":"16","trt":"PLACEBO","dose":null,"doseu":null,"dosef":"QD","route":"ORAL","start_dtc":"2024-05-05","end_dtc":"2024-05-05","visit":null},{"seq":"17","trt":"PLACEBO","dose":null,"doseu":null,"dosef":"QD","route":"ORAL","start_dtc":"2024-05-06","end_dtc":"2024-05-06","visit":null},{"seq":"18","trt":"PLACEBO","dose":null,"doseu":null,"dosef":"QD","route":"ORAL","start_dtc":"2024-05-07","end_dtc":"2024-05-07","visit":null},{"seq":"19","trt":"PLACEBO","dose":null,"doseu":null,"dosef":"QD","route":"ORAL","start_dtc":"2024-05-08","end_dtc":"2024-05-08","visit":null},{"seq":"20","trt":"PLACEBO","dose":null,"doseu":null,"dosef":"QD","route":"ORAL","start_dtc":"2024-05-09","end_dtc":"2024-05-09","visit":null},{"seq":"21","trt":"PLACEBO","dose":null,"doseu":null,"dosef":"QD","route":"ORAL","start_dtc":"2024-05-10","end_dtc":"2024-05-10","visit":null},{"seq":"22","trt":"PLACEBO","dose":null,"doseu":null,"dosef":"QD","route":"ORAL","start_dtc":"2024-05-11","end_dtc":"2024-05-11","visit":null},{"seq":"23","trt":"PLACEBO","dose":null,"doseu":null,"dosef":"QD","route":"ORAL","start_dtc":"2024-05-12","end_dtc":"2024-05-12","visit":null},{"seq":"24","trt":"PLACEBO","dose":null,"doseu":null,"dosef":"QD","route":"ORAL","start_dtc":"2024-05-13","end_dtc":"2024-05-13","visit":null},{"seq":"25","trt":"PLACEBO","dose":null,"doseu":null,"dosef":"QD","route":"ORAL","start_dtc":"2024-05-14","end_dtc":"2024-05-14","visit":null},{"seq":"26","trt":"PLACEBO","dose":null,"doseu":null,"dosef":"QD","route":"ORAL","start_dtc":"2024-05-15","end_dtc":"2024-05-15","visit":"WEEK 4"},{"seq":"27","trt":"PLACEBO","dose":null,"doseu":null,"dosef":"QD","route":"ORAL","start_dtc":"2024-05-16","end_dtc":"2024-05-16","visit":"WEEK 4"},{"seq":"28","trt":"PLACEBO","dose":null,"doseu":null,"dosef":"QD","route":"ORAL","start_dtc":"2024-05-17","end_dtc":"2024-05-17","visit":"WEEK 4"},{"seq":"29","trt":"PLACEBO","dose":null,"doseu":null,"dosef":"QD","route":"ORAL","start_dtc":"2024-05-18","end_dtc":"2024-05-18","visit":"WEEK 4"},{"seq":"30","trt":"PLACEBO","dose":null,"doseu":null,"dosef":"QD","route":"ORAL","start_dtc":"2024-05-19","end_dtc":"2024-05-19","visit":"WEEK 4"},{"seq":"31","trt":"PLACEBO","dose":null,"doseu":null,"dosef":"QD","route":"ORAL","start_dtc":"2024-05-20","end_dtc":"2024-05-20","visit":"WEEK 4"},{"seq":"32","trt":"PLACEBO","dose":null,"doseu":null,"dosef":"QD","route":"ORAL","start_dtc":"2024-05-21","end_dtc":"2024-05-21","visit":"WEEK 4"},{"seq":"33","trt":"PLACEBO","dose":null,"doseu":null,"dosef":"QD","route":"ORAL","start_dtc":"2024-05-22","end_dtc":"2024-05-22","visit":null},{"seq":"34","trt":"PLACEBO","dose":null,"doseu":null,"dosef":"QD","route":"ORAL","start_dtc":"2024-05-23","end_dtc":"2024-05-23","visit":null},{"seq":"35","trt":"PLACEBO","dose":null,"doseu":null,"dosef":"QD","route":"ORAL","start_dtc":"2024-05-24","end_dtc":"2024-05-24","visit":null},{"seq":"36","trt":"PLACEBO","dose":null,"doseu":null,"dosef":"QD","route":"ORAL","start_dtc":"2024-05-25","end_dtc":"2024-05-25","visit":null},{"seq":"37","trt":"PLACEBO","dose":null,"doseu":null,"dosef":"QD","route":"ORAL","start_dtc":"2024-05-26","end_dtc":"2024-05-26","visit":null},{"seq":"38","trt":"PLACEBO","dose":null,"doseu":null,"dosef":"QD","route":"ORAL","start_dtc":"2024-05-27","end_dtc":"2024-05-27","visit":null},{"seq":"39","trt":"PLACEBO","dose":null,"doseu":null,"dosef":"QD","route":"ORAL","start_dtc":"2024-05-28","end_dtc":"2024-05-28","visit":null},{"seq":"40","trt":"PLACEBO","dose":null,"doseu":null,"dosef":"QD","route":"ORAL","start_dtc":"2024-05-29","end_dtc":"2024-05-29","visit":null},{"seq":"41","trt":"PLACEBO","dose":null,"doseu":null,"dosef":"QD","route":"ORAL","start_dtc":"2024-05-30","end_dtc":"2024-05-30","visit":null},{"seq":"42","trt":"PLACEBO","dose":null,"doseu":null,"dosef":"QD","route":"ORAL","start_dtc":"2024-05-31","end_dtc":"2024-05-31","visit":null},{"seq":"43","trt":"PLACEBO","dose":null,"doseu":null,"dosef":"QD","route":"ORAL","start_dtc":"2024-06-01","end_dtc":"2024-06-01","visit":null},{"seq":"44","trt":"PLACEBO","dose":null,"doseu":null,"dosef":"QD","route":"ORAL","start_dtc":"2024-06-02","end_dtc":"2024-06-02","visit":null},{"seq":"45","trt":"PLACEBO","dose":null,"doseu":null,"dosef":"QD","route":"ORAL","start_dtc":"2024-06-03","end_dtc":"2024-06-03","visit":null},{"seq":"46","trt":"PLACEBO","dose":null,"doseu":null,"dosef":"QD","route":"ORAL","start_dtc":"2024-06-04","end_dtc":"2024-06-04","visit":null},{"seq":"47","trt":"PLACEBO","dose":null,"doseu":null,"dosef":"QD","route":"ORAL","start_dtc":"2024-06-05","end_dtc":"2024-06-05","visit":null},{"seq":"48","trt":"PLACEBO","dose":null,"doseu":null,"dosef":"QD","route":"ORAL","start_dtc":"2024-06-06","end_dtc":"2024-06-06","visit":null},{"seq":"49","trt":"PLACEBO","dose":null,"doseu":null,"dosef":"QD","route":"ORAL","start_dtc":"2024-06-07","end_dtc":"2024-06-07","visit":null},{"seq":"50","trt":"PLACEBO","dose":null,"doseu":null,"dosef":"QD","route":"ORAL","start_dtc":"2024-06-08","end_dtc":"2024-06-08","visit":null},{"seq":"51","trt":"PLACEBO","dose":null,"doseu":null,"dosef":"QD","route":"ORAL","start_dtc":"2024-06-09","end_dtc":"2024-06-09","visit":null},{"seq":"52","trt":"PLACEBO","dose":null,"doseu":null,"dosef":"QD","route":"ORAL","start_dtc":"2024-06-10","end_dtc":"2024-06-10","visit":null},{"seq":"53","trt":"PLACEBO","dose":null,"doseu":null,"dosef":"QD","route":"ORAL","start_dtc":"2024-06-11","end_dtc":"2024-06-11","visit":null},{"seq":"54","trt":"PLACEBO","dose":null,"doseu":null,"dosef":"QD","route":"ORAL","start_dtc":"2024-06-12","end_dtc":"2024-06-12","visit":null},{"seq":"55","trt":"PLACEBO","dose":null,"doseu":null,"dosef":"QD","route":"ORAL","start_dtc":"2024-06-13","end_dtc":"2024-06-13","visit":null},{"seq":"56","trt":"PLACEBO","dose":null,"doseu":null,"dosef":"QD","route":"ORAL","start_dtc":"2024-06-14","end_dtc":"2024-06-14","visit":null},{"seq":"57","trt":"PLACEBO","dose":null,"doseu":null,"dosef":"QD","route":"ORAL","start_dtc":"2024-06-15","end_dtc":"2024-06-15","visit":null},{"seq":"58","trt":"PLACEBO","dose":null,"doseu":null,"dosef":"QD","route":"ORAL","start_dtc":"2024-06-16","end_dtc":"2024-06-16","visit":null},{"seq":"59","trt":"PLACEBO","dose":null,"doseu":null,"dosef":"QD","route":"ORAL","start_dtc":"2024-06-17","end_dtc":"2024-06-17","visit":null},{"seq":"60","trt":"PLACEBO","dose":null,"doseu":null,"dosef":"QD","route":"ORAL","start_dtc":"2024-06-18","end_dtc":"2024-06-18","visit":null},{"seq":"61","trt":"PLACEBO","dose":null,"doseu":null,"dosef":"QD","route":"ORAL","start_dtc":"2024-06-19","end_dtc":"2024-06-19","visit":null},{"seq":"62","trt":"PLACEBO","dose":null,"doseu":null,"dosef":"QD","route":"ORAL","start_dtc":"2024-06-20","end_dtc":"2024-06-20","visit":null},{"seq":"63","trt":"PLACEBO","dose":null,"doseu":null,"dosef":"QD","route":"ORAL","start_dtc":"2024-06-21","end_dtc":"2024-06-21","visit":null},{"seq":"64","trt":"PLACEBO","dose":null,"doseu":null,"dosef":"QD","route":"ORAL","start_dtc":"2024-06-22","end_dtc":"2024-06-22","visit":null},{"seq":"65","trt":"PLACEBO","dose":null,"doseu":null,"dosef":"QD","route":"ORAL","start_dtc":"2024-06-23","end_dtc":"2024-06-23","visit":null},{"seq":"66","trt":"PLACEBO","dose":null,"doseu":null,"dosef":"QD","route":"ORAL","start_dtc":"2024-06-24","end_dtc":"2024-06-24","visit":null},{"seq":"67","trt":"PLACEBO","dose":null,"doseu":null,"dosef":"QD","route":"ORAL","start_dtc":"2024-06-25","end_dtc":"2024-06-25","visit":null},{"seq":"68","trt":"PLACEBO","dose":null,"doseu":null,"dosef":"QD","route":"ORAL","start_dtc":"2024-06-26","end_dtc":"2024-06-26","visit":null},{"seq":"69","trt":"PLACEBO","dose":null,"doseu":null,"dosef":"QD","route":"ORAL","start_dtc":"2024-06-27","end_dtc":"2024-06-27","visit":null},{"seq":"70","trt":"PLACEBO","dose":null,"doseu":null,"dosef":"QD","route":"ORAL","start_dtc":"2024-06-28","end_dtc":"2024-06-28","visit":null},{"seq":"71","trt":"PLACEBO","dose":null,"doseu":null,"dosef":"QD","route":"ORAL","start_dtc":"2024-06-29","end_dtc":"2024-06-29","visit":null},{"seq":"72","trt":"PLACEBO","dose":null,"doseu":null,"dosef":"QD","route":"ORAL","start_dtc":"2024-06-30","end_dtc":"2024-06-30","visit":null},{"seq":"73","trt":"PLACEBO","dose":null,"doseu":null,"dosef":"QD","route":"ORAL","start_dtc":"2024-07-01","end_dtc":"2024-07-01","visit":null},{"seq":"74","trt":"PLACEBO","dose":null,"doseu":null,"dosef":"QD","route":"ORAL","start_dtc":"2024-07-02","end_dtc":"2024-07-02","visit":null},{"seq":"75","trt":"PLACEBO","dose":null,"doseu":null,"dosef":"QD","route":"ORAL","start_dtc":"2024-07-03","end_dtc":"2024-07-03","visit":null},{"seq":"76","trt":"PLACEBO","dose":null,"doseu":null,"dosef":"QD","route":"ORAL","start_dtc":"2024-07-04","end_dtc":"2024-07-04","visit":null},{"seq":"77","trt":"PLACEBO","dose":null,"doseu":null,"dosef":"QD","route":"ORAL","start_dtc":"2024-07-05","end_dtc":"2024-07-05","visit":null},{"seq":"78","trt":"PLACEBO","dose":null,"doseu":null,"dosef":"QD","route":"ORAL","start_dtc":"2024-07-06","end_dtc":"2024-07-06","visit":null},{"seq":"79","trt":"PLACEBO","dose":null,"doseu":null,"dosef":"QD","route":"ORAL","start_dtc":"2024-07-07","end_dtc":"2024-07-07","visit":null},{"seq":"80","trt":"PLACEBO","dose":null,"doseu":null,"dosef":"QD","route":"ORAL","start_dtc":"2024-07-08","end_dtc":"2024-07-08","visit":null},{"seq":"81","trt":"PLACEBO","dose":null,"doseu":null,"dosef":"QD","route":"ORAL","start_dtc":"2024-07-09","end_dtc":"2024-07-09","visit":null},{"seq":"82","trt":"PLACEBO","dose":null,"doseu":null,"dosef":"QD","route":"ORAL","start_dtc":"2024-07-10","end_dtc":"2024-07-10","visit":"WEEK 12"},{"seq":"83","trt":"PLACEBO","dose":null,"doseu":null,"dosef":"QD","route":"ORAL","start_dtc":"2024-07-11","end_dtc":"2024-07-11","visit":"WEEK 12"},{"seq":"84","trt":"PLACEBO","dose":null,"doseu":null,"dosef":"QD","route":"ORAL","start_dtc":"2024-07-12","end_dtc":"2024-07-12","visit":"WEEK 12"},{"seq":"85","trt":"PLACEBO","dose":null,"doseu":null,"dosef":"QD","route":"ORAL","start_dtc":"2024-07-13","end_dtc":"2024-07-13","visit":"WEEK 12"},{"seq":"86","trt":"PLACEBO","dose":null,"doseu":null,"dosef":"QD","route":"ORAL","start_dtc":"2024-07-14","end_dtc":"2024-07-14","visit":"WEEK 12"},{"seq":"87","trt":"PLACEBO","dose":null,"doseu":null,"dosef":"QD","route":"ORAL","start_dtc":"2024-07-15","end_dtc":"2024-07-15","visit":"WEEK 12"},{"seq":"88","trt":"PLACEBO","dose":null,"doseu":null,"dosef":"QD","route":"ORAL","start_dtc":"2024-07-16","end_dtc":"2024-07-16","visit":"WEEK 12"},{"seq":"89","trt":"PLACEBO","dose":null,"doseu":null,"dosef":"QD","route":"ORAL","start_dtc":"2024-07-17","end_dtc":"2024-07-17","visit":null},{"seq":"90","trt":"PLACEBO","dose":null,"doseu":null,"dosef":"QD","route":"ORAL","start_dtc":"2024-07-18","end_dtc":"2024-07-18","visit":null},{"seq":"91","trt":"PLACEBO","dose":null,"doseu":null,"dosef":"QD","route":"ORAL","start_dtc":"2024-07-19","end_dtc":"2024-07-19","visit":null},{"seq":"92","trt":"PLACEBO","dose":null,"doseu":null,"dosef":"QD","route":"ORAL","start_dtc":"2024-07-20","end_dtc":"2024-07-20","visit":null},{"seq":"93","trt":"PLACEBO","dose":null,"doseu":null,"dosef":"QD","route":"ORAL","start_dtc":"2024-07-21","end_dtc":"2024-07-21","visit":null},{"seq":"94","trt":"PLACEBO","dose":null,"doseu":null,"dosef":"QD","route":"ORAL","start_dtc":"2024-07-22","end_dtc":"2024-07-22","visit":null},{"seq":"95","trt":"PLACEBO","dose":null,"doseu":null,"dosef":"QD","route":"ORAL","start_dtc":"2024-07-23","end_dtc":"2024-07-23","visit":null},{"seq":"96","trt":"PLACEBO","dose":null,"doseu":null,"dosef":"QD","route":"ORAL","start_dtc":"2024-07-24","end_dtc":"2024-07-24","visit":null},{"seq":"97","trt":"PLACEBO","dose":null,"doseu":null,"dosef":"QD","route":"ORAL","start_dtc":"2024-07-25","end_dtc":"2024-07-25","visit":null},{"seq":"98","trt":"PLACEBO","dose":null,"doseu":null,"dosef":"QD","route":"ORAL","start_dtc":"2024-07-26","end_dtc":"2024-07-26","visit":null},{"seq":"99","trt":"PLACEBO","dose":null,"doseu":null,"dosef":"QD","route":"ORAL","start_dtc":"2024-07-27","end_dtc":"2024-07-27","visit":null},{"seq":"100","trt":"PLACEBO","dose":null,"doseu":null,"dosef":"QD","route":"ORAL","start_dtc":"2024-07-28","end_dtc":"2024-07-28","visit":null},{"seq":"101","trt":"PLACEBO","dose":null,"doseu":null,"dosef":"QD","route":"ORAL","start_dtc":"2024-07-29","end_dtc":"2024-07-29","visit":null},{"seq":"102","trt":"PLACEBO","dose":null,"doseu":null,"dosef":"QD","route":"ORAL","start_dtc":"2024-07-30","end_dtc":"2024-07-30","visit":null},{"seq":"103","trt":"PLACEBO","dose":null,"doseu":null,"dosef":"QD","route":"ORAL","start_dtc":"2024-07-31","end_dtc":"2024-07-31","visit":null},{"seq":"104","trt":"PLACEBO","dose":null,"doseu":null,"dosef":"QD","route":"ORAL","start_dtc":"2024-08-01","end_dtc":"2024-08-01","visit":null},{"seq":"105","trt":"PLACEBO","dose":null,"doseu":null,"dosef":"QD","route":"ORAL","start_dtc":"2024-08-02","end_dtc":"2024-08-02","visit":null},{"seq":"106","trt":"PLACEBO","dose":null,"doseu":null,"dosef":"QD","route":"ORAL","start_dtc":"2024-08-03","end_dtc":"2024-08-03","visit":null},{"seq":"107","trt":"PLACEBO","dose":null,"doseu":null,"dosef":"QD","route":"ORAL","start_dtc":"2024-08-04","end_dtc":"2024-08-04","visit":null},{"seq":"108","trt":"PLACEBO","dose":null,"doseu":null,"dosef":"QD","route":"ORAL","start_dtc":"2024-08-05","end_dtc":"2024-08-05","visit":null},{"seq":"109","trt":"PLACEBO","dose":null,"doseu":null,"dosef":"QD","route":"ORAL","start_dtc":"2024-08-06","end_dtc":"2024-08-06","visit":null},{"seq":"110","trt":"PLACEBO","dose":null,"doseu":null,"dosef":"QD","route":"ORAL","start_dtc":"2024-08-07","end_dtc":"2024-08-07","visit":null},{"seq":"111","trt":"PLACEBO","dose":null,"doseu":null,"dosef":"QD","route":"ORAL","start_dtc":"2024-08-08","end_dtc":"2024-08-08","visit":null},{"seq":"112","trt":"PLACEBO","dose":null,"doseu":null,"dosef":"QD","route":"ORAL","start_dtc":"2024-08-09","end_dtc":"2024-08-09","visit":null},{"seq":"113","trt":"PLACEBO","dose":null,"doseu":null,"dosef":"QD","route":"ORAL","start_dtc":"2024-08-10","end_dtc":"2024-08-10","visit":null},{"seq":"114","trt":"PLACEBO","dose":null,"doseu":null,"dosef":"QD","route":"ORAL","start_dtc":"2024-08-11","end_dtc":"2024-08-11","visit":null},{"seq":"115","trt":"PLACEBO","dose":null,"doseu":null,"dosef":"QD","route":"ORAL","start_dtc":"2024-08-12","end_dtc":"2024-08-12","visit":null},{"seq":"116","trt":"PLACEBO","dose":null,"doseu":null,"dosef":"QD","route":"ORAL","start_dtc":"2024-08-13","end_dtc":"2024-08-13","visit":null},{"seq":"117","trt":"PLACEBO","dose":null,"doseu":null,"dosef":"QD","route":"ORAL","start_dtc":"2024-08-14","end_dtc":"2024-08-14","visit":null},{"seq":"118","trt":"PLACEBO","dose":null,"doseu":null,"dosef":"QD","route":"ORAL","start_dtc":"2024-08-15","end_dtc":"2024-08-15","visit":null},{"seq":"119","trt":"PLACEBO","dose":null,"doseu":null,"dosef":"QD","route":"ORAL","start_dtc":"2024-08-16","end_dtc":"2024-08-16","visit":null},{"seq":"120","trt":"PLACEBO","dose":null,"doseu":null,"dosef":"QD","route":"ORAL","start_dtc":"2024-08-17","end_dtc":"2024-08-17","visit":null},{"seq":"121","trt":"PLACEBO","dose":null,"doseu":null,"dosef":"QD","route":"ORAL","start_dtc":"2024-08-18","end_dtc":"2024-08-18","visit":null},{"seq":"122","trt":"PLACEBO","dose":null,"doseu":null,"dosef":"QD","route":"ORAL","start_dtc":"2024-08-19","end_dtc":"2024-08-19","visit":null},{"seq":"123","trt":"PLACEBO","dose":null,"doseu":null,"dosef":"QD","route":"ORAL","start_dtc":"2024-08-20","end_dtc":"2024-08-20","visit":null},{"seq":"124","trt":"PLACEBO","dose":null,"doseu":null,"dosef":"QD","route":"ORAL","start_dtc":"2024-08-21","end_dtc":"2024-08-21","visit":null},{"seq":"125","trt":"PLACEBO","dose":null,"doseu":null,"dosef":"QD","route":"ORAL","start_dtc":"2024-08-22","end_dtc":"2024-08-22","visit":null},{"seq":"126","trt":"PLACEBO","dose":null,"doseu":null,"dosef":"QD","route":"ORAL","start_dtc":"2024-08-23","end_dtc":"2024-08-23","visit":null},{"seq":"127","trt":"PLACEBO","dose":null,"doseu":null,"dosef":"QD","route":"ORAL","start_dtc":"2024-08-24","end_dtc":"2024-08-24","visit":null},{"seq":"128","trt":"PLACEBO","dose":null,"doseu":null,"dosef":"QD","route":"ORAL","start_dtc":"2024-08-25","end_dtc":"2024-08-25","visit":null},{"seq":"129","trt":"PLACEBO","dose":null,"doseu":null,"dosef":"QD","route":"ORAL","start_dtc":"2024-08-26","end_dtc":"2024-08-26","visit":null},{"seq":"130","trt":"PLACEBO","dose":null,"doseu":null,"dosef":"QD","route":"ORAL","start_dtc":"2024-08-27","end_dtc":"2024-08-27","visit":null},{"seq":"131","trt":"PLACEBO","dose":null,"doseu":null,"dosef":"QD","route":"ORAL","start_dtc":"2024-08-28","end_dtc":"2024-08-28","visit":null},{"seq":"132","trt":"PLACEBO","dose":null,"doseu":null,"dosef":"QD","route":"ORAL","start_dtc":"2024-08-29","end_dtc":"2024-08-29","visit":null},{"seq":"133","trt":"PLACEBO","dose":null,"doseu":null,"dosef":"QD","route":"ORAL","start_dtc":"2024-08-30","end_dtc":"2024-08-30","visit":null},{"seq":"134","trt":"PLACEBO","dose":null,"doseu":null,"dosef":"QD","route":"ORAL","start_dtc":"2024-08-31","end_dtc":"2024-08-31","visit":null},{"seq":"135","trt":"PLACEBO","dose":null,"doseu":null,"dosef":"QD","route":"ORAL","start_dtc":"2024-09-01","end_dtc":"2024-09-01","visit":null},{"seq":"136","trt":"PLACEBO","dose":null,"doseu":null,"dosef":"QD","route":"ORAL","start_dtc":"2024-09-02","end_dtc":"2024-09-02","visit":null},{"seq":"137","trt":"PLACEBO","dose":null,"doseu":null,"dosef":"QD","route":"ORAL","start_dtc":"2024-09-03","end_dtc":"2024-09-03","visit":null},{"seq":"138","trt":"PLACEBO","dose":null,"doseu":null,"dosef":"QD","route":"ORAL","start_dtc":"2024-09-04","end_dtc":"2024-09-04","visit":null},{"seq":"139","trt":"PLACEBO","dose":null,"doseu":null,"dosef":"QD","route":"ORAL","start_dtc":"2024-09-05","end_dtc":"2024-09-05","visit":null},{"seq":"140","trt":"PLACEBO","dose":null,"doseu":null,"dosef":"QD","route":"ORAL","start_dtc":"2024-09-06","end_dtc":"2024-09-06","visit":null},{"seq":"141","trt":"PLACEBO","dose":null,"doseu":null,"dosef":"QD","route":"ORAL","start_dtc":"2024-09-07","end_dtc":"2024-09-07","visit":null},{"seq":"142","trt":"PLACEBO","dose":null,"doseu":null,"dosef":"QD","route":"ORAL","start_dtc":"2024-09-08","end_dtc":"2024-09-08","visit":null},{"seq":"143","trt":"PLACEBO","dose":null,"doseu":null,"dosef":"QD","route":"ORAL","start_dtc":"2024-09-09","end_dtc":"2024-09-09","visit":null},{"seq":"144","trt":"PLACEBO","dose":null,"doseu":null,"dosef":"QD","route":"ORAL","start_dtc":"2024-09-10","end_dtc":"2024-09-10","visit":null},{"seq":"145","trt":"PLACEBO","dose":null,"doseu":null,"dosef":"QD","route":"ORAL","start_dtc":"2024-09-11","end_dtc":"2024-09-11","visit":null},{"seq":"146","trt":"PLACEBO","dose":null,"doseu":null,"dosef":"QD","route":"ORAL","start_dtc":"2024-09-12","end_dtc":"2024-09-12","visit":null},{"seq":"147","trt":"PLACEBO","dose":null,"doseu":null,"dosef":"QD","route":"ORAL","start_dtc":"2024-09-13","end_dtc":"2024-09-13","visit":null},{"seq":"148","trt":"PLACEBO","dose":null,"doseu":null,"dosef":"QD","route":"ORAL","start_dtc":"2024-09-14","end_dtc":"2024-09-14","visit":null},{"seq":"149","trt":"PLACEBO","dose":null,"doseu":null,"dosef":"QD","route":"ORAL","start_dtc":"2024-09-15","end_dtc":"2024-09-15","visit":null},{"seq":"150","trt":"PLACEBO","dose":null,"doseu":null,"dosef":"QD","route":"ORAL","start_dtc":"2024-09-16","end_dtc":"2024-09-16","visit":null},{"seq":"151","trt":"PLACEBO","dose":null,"doseu":null,"dosef":"QD","route":"ORAL","start_dtc":"2024-09-17","end_dtc":"2024-09-17","visit":null},{"seq":"152","trt":"PLACEBO","dose":null,"doseu":null,"dosef":"QD","route":"ORAL","start_dtc":"2024-09-18","end_dtc":"2024-09-18","visit":null},{"seq":"153","trt":"PLACEBO","dose":null,"doseu":null,"dosef":"QD","route":"ORAL","start_dtc":"2024-09-19","end_dtc":"2024-09-19","visit":null},{"seq":"154","trt":"PLACEBO","dose":null,"doseu":null,"dosef":"QD","route":"ORAL","start_dtc":"2024-09-20","end_dtc":"2024-09-20","visit":null},{"seq":"155","trt":"PLACEBO","dose":null,"doseu":null,"dosef":"QD","route":"ORAL","start_dtc":"2024-09-21","end_dtc":"2024-09-21","visit":null},{"seq":"156","trt":"PLACEBO","dose":null,"doseu":null,"dosef":"QD","route":"ORAL","start_dtc":"2024-09-22","end_dtc":"2024-09-22","visit":null},{"seq":"157","trt":"PLACEBO","dose":null,"doseu":null,"dosef":"QD","route":"ORAL","start_dtc":"2024-09-23","end_dtc":"2024-09-23","visit":null},{"seq":"158","trt":"PLACEBO","dose":null,"doseu":null,"dosef":"QD","route":"ORAL","start_dtc":"2024-09-24","end_dtc":"2024-09-24","visit":null},{"seq":"159","trt":"PLACEBO","dose":null,"doseu":null,"dosef":"QD","route":"ORAL","start_dtc":"2024-09-25","end_dtc":"2024-09-25","visit":null},{"seq":"160","trt":"PLACEBO","dose":null,"doseu":null,"dosef":"QD","route":"ORAL","start_dtc":"2024-09-26","end_dtc":"2024-09-26","visit":null},{"seq":"161","trt":"PLACEBO","dose":null,"doseu":null,"dosef":"QD","route":"ORAL","start_dtc":"2024-09-27","end_dtc":"2024-09-27","visit":null},{"seq":"162","trt":"PLACEBO","dose":null,"doseu":null,"dosef":"QD","route":"ORAL","start_dtc":"2024-09-28","end_dtc":"2024-09-28","visit":null},{"seq":"163","trt":"PLACEBO","dose":null,"doseu":null,"dosef":"QD","route":"ORAL","start_dtc":"2024-09-29","end_dtc":"2024-09-29","visit":null},{"seq":"164","trt":"PLACEBO","dose":null,"doseu":null,"dosef":"QD","route":"ORAL","start_dtc":"2024-09-30","end_dtc":"2024-09-30","visit":null},{"seq":"165","trt":"PLACEBO","dose":null,"doseu":null,"dosef":"QD","route":"ORAL","start_dtc":"2024-10-01","end_dtc":"2024-10-01","visit":null},{"seq":"166","trt":"PLACEBO","dose":null,"doseu":null,"dosef":"QD","route":"ORAL","start_dtc":"2024-10-02","end_dtc":"2024-10-02","visit":"WEEK 24"},{"seq":"167","trt":"PLACEBO","dose":null,"doseu":null,"dosef":"QD","route":"ORAL","start_dtc":"2024-10-03","end_dtc":"2024-10-03","visit":"WEEK 24"},{"seq":"168","trt":"PLACEBO","dose":null,"doseu":null,"dosef":"QD","route":"ORAL","start_dtc":"2024-10-04","end_dtc":"2024-10-04","visit":"WEEK 24"},{"seq":"169","trt":"PLACEBO","dose":null,"doseu":null,"dosef":"QD","route":"ORAL","start_dtc":"2024-10-05","end_dtc":"2024-10-05","visit":"WEEK 24"},{"seq":"170","trt":"PLACEBO","dose":null,"doseu":null,"dosef":"QD","route":"ORAL","start_dtc":"2024-10-06","end_dtc":"2024-10-06","visit":"WEEK 24"},{"seq":"171","trt":"PLACEBO","dose":null,"doseu":null,"dosef":"QD","route":"ORAL","start_dtc":"2024-10-07","end_dtc":"2024-10-07","visit":"WEEK 24"},{"seq":"172","trt":"PLACEBO","dose":null,"doseu":null,"dosef":"QD","route":"ORAL","start_dtc":"2024-10-08","end_dtc":"2024-10-08","visit":"WEEK 24"},{"seq":"173","trt":"PLACEBO","dose":null,"doseu":null,"dosef":"QD","route":"ORAL","start_dtc":"2024-10-09","end_dtc":"2024-10-09","visit":null},{"seq":"174","trt":"PLACEBO","dose":null,"doseu":null,"dosef":"QD","route":"ORAL","start_dtc":"2024-10-10","end_dtc":"2024-10-10","visit":null},{"seq":"175","trt":"PLACEBO","dose":null,"doseu":null,"dosef":"QD","route":"ORAL","start_dtc":"2024-10-11","end_dtc":"2024-10-11","visit":null},{"seq":"176","trt":"PLACEBO","dose":null,"doseu":null,"dosef":"QD","route":"ORAL","start_dtc":"2024-10-12","end_dtc":"2024-10-12","visit":null},{"seq":"177","trt":"PLACEBO","dose":null,"doseu":null,"dosef":"QD","route":"ORAL","start_dtc":"2024-10-13","end_dtc":"2024-10-13","visit":null},{"seq":"178","trt":"PLACEBO","dose":null,"doseu":null,"dosef":"QD","route":"ORAL","start_dtc":"2024-10-14","end_dtc":"2024-10-14","visit":null},{"seq":"179","trt":"PLACEBO","dose":null,"doseu":null,"dosef":"QD","route":"ORAL","start_dtc":"2024-10-15","end_dtc":"2024-10-15","visit":null},{"seq":"180","trt":"PLACEBO","dose":null,"doseu":null,"dosef":"QD","route":"ORAL","start_dtc":"2024-10-16","end_dtc":"2024-10-16","visit":null},{"seq":"181","trt":"PLACEBO","dose":null,"doseu":null,"dosef":"QD","route":"ORAL","start_dtc":"2024-10-17","end_dtc":"2024-10-17","visit":null},{"seq":"182","trt":"PLACEBO","dose":null,"doseu":null,"dosef":"QD","route":"ORAL","start_dtc":"2024-10-18","end_dtc":"2024-10-18","visit":null},{"seq":"183","trt":"PLACEBO","dose":null,"doseu":null,"dosef":"QD","route":"ORAL","start_dtc":"2024-10-19","end_dtc":"2024-10-19","visit":null},{"seq":"184","trt":"PLACEBO","dose":null,"doseu":null,"dosef":"QD","route":"ORAL","start_dtc":"2024-10-20","end_dtc":"2024-10-20","visit":null},{"seq":"185","trt":"PLACEBO","dose":null,"doseu":null,"dosef":"QD","route":"ORAL","start_dtc":"2024-10-21","end_dtc":"2024-10-21","visit":null},{"seq":"186","trt":"PLACEBO","dose":null,"doseu":null,"dosef":"QD","route":"ORAL","start_dtc":"2024-10-22","end_dtc":"2024-10-22","visit":null},{"seq":"187","trt":"PLACEBO","dose":null,"doseu":null,"dosef":"QD","route":"ORAL","start_dtc":"2024-10-23","end_dtc":"2024-10-23","visit":null},{"seq":"188","trt":"PLACEBO","dose":null,"doseu":null,"dosef":"QD","route":"ORAL","start_dtc":"2024-10-24","end_dtc":"2024-10-24","visit":null},{"seq":"189","trt":"PLACEBO","dose":null,"doseu":null,"dosef":"QD","route":"ORAL","start_dtc":"2024-10-25","end_dtc":"2024-10-25","visit":null},{"seq":"190","trt":"PLACEBO","dose":null,"doseu":null,"dosef":"QD","route":"ORAL","start_dtc":"2024-10-26","end_dtc":"2024-10-26","visit":null},{"seq":"191","trt":"PLACEBO","dose":null,"doseu":null,"dosef":"QD","route":"ORAL","start_dtc":"2024-10-27","end_dtc":"2024-10-27","visit":null},{"seq":"192","trt":"PLACEBO","dose":null,"doseu":null,"dosef":"QD","route":"ORAL","start_dtc":"2024-10-28","end_dtc":"2024-10-28","visit":null},{"seq":"193","trt":"PLACEBO","dose":null,"doseu":null,"dosef":"QD","route":"ORAL","start_dtc":"2024-10-29","end_dtc":"2024-10-29","visit":null},{"seq":"194","trt":"PLACEBO","dose":null,"doseu":null,"dosef":"QD","route":"ORAL","start_dtc":"2024-10-30","end_dtc":"2024-10-30","visit":null},{"seq":"195","trt":"PLACEBO","dose":null,"doseu":null,"dosef":"QD","route":"ORAL","start_dtc":"2024-10-31","end_dtc":"2024-10-31","visit":null},{"seq":"196","trt":"PLACEBO","dose":null,"doseu":null,"dosef":"QD","route":"ORAL","start_dtc":"2024-11-01","end_dtc":"2024-11-01","visit":null},{"seq":"197","trt":"PLACEBO","dose":null,"doseu":null,"dosef":"QD","route":"ORAL","start_dtc":"2024-11-02","end_dtc":"2024-11-02","visit":null},{"seq":"198","trt":"PLACEBO","dose":null,"doseu":null,"dosef":"QD","route":"ORAL","start_dtc":"2024-11-03","end_dtc":"2024-11-03","visit":null},{"seq":"199","trt":"PLACEBO","dose":null,"doseu":null,"dosef":"QD","route":"ORAL","start_dtc":"2024-11-04","end_dtc":"2024-11-04","visit":null},{"seq":"200","trt":"PLACEBO","dose":null,"doseu":null,"dosef":"QD","route":"ORAL","start_dtc":"2024-11-05","end_dtc":"2024-11-05","visit":null},{"seq":"201","trt":"PLACEBO","dose":null,"doseu":null,"dosef":"QD","route":"ORAL","start_dtc":"2024-11-06","end_dtc":"2024-11-06","visit":null},{"seq":"202","trt":"PLACEBO","dose":null,"doseu":null,"dosef":"QD","route":"ORAL","start_dtc":"2024-11-07","end_dtc":"2024-11-07","visit":null},{"seq":"203","trt":"PLACEBO","dose":null,"doseu":null,"dosef":"QD","route":"ORAL","start_dtc":"2024-11-08","end_dtc":"2024-11-08","visit":null},{"seq":"204","trt":"PLACEBO","dose":null,"doseu":null,"dosef":"QD","route":"ORAL","start_dtc":"2024-11-09","end_dtc":"2024-11-09","visit":null},{"seq":"205","trt":"PLACEBO","dose":null,"doseu":null,"dosef":"QD","route":"ORAL","start_dtc":"2024-11-10","end_dtc":"2024-11-10","visit":null},{"seq":"206","trt":"PLACEBO","dose":null,"doseu":null,"dosef":"QD","route":"ORAL","start_dtc":"2024-11-11","end_dtc":"2024-11-11","visit":null},{"seq":"207","trt":"PLACEBO","dose":null,"doseu":null,"dosef":"QD","route":"ORAL","start_dtc":"2024-11-12","end_dtc":"2024-11-12","visit":null},{"seq":"208","trt":"PLACEBO","dose":null,"doseu":null,"dosef":"QD","route":"ORAL","start_dtc":"2024-11-13","end_dtc":"2024-11-13","visit":null},{"seq":"209","trt":"PLACEBO","dose":null,"doseu":null,"dosef":"QD","route":"ORAL","start_dtc":"2024-11-14","end_dtc":"2024-11-14","visit":null},{"seq":"210","trt":"PLACEBO","dose":null,"doseu":null,"dosef":"QD","route":"ORAL","start_dtc":"2024-11-15","end_dtc":"2024-11-15","visit":null},{"seq":"211","trt":"PLACEBO","dose":null,"doseu":null,"dosef":"QD","route":"ORAL","start_dtc":"2024-11-16","end_dtc":"2024-11-16","visit":null},{"seq":"212","trt":"PLACEBO","dose":null,"doseu":null,"dosef":"QD","route":"ORAL","start_dtc":"2024-11-17","end_dtc":"2024-11-17","visit":null},{"seq":"213","trt":"PLACEBO","dose":null,"doseu":null,"dosef":"QD","route":"ORAL","start_dtc":"2024-11-18","end_dtc":"2024-11-18","visit":null},{"seq":"214","trt":"PLACEBO","dose":null,"doseu":null,"dosef":"QD","route":"ORAL","start_dtc":"2024-11-19","end_dtc":"2024-11-19","visit":null},{"seq":"215","trt":"PLACEBO","dose":null,"doseu":null,"dosef":"QD","route":"ORAL","start_dtc":"2024-11-20","end_dtc":"2024-11-20","visit":null},{"seq":"216","trt":"PLACEBO","dose":null,"doseu":null,"dosef":"QD","route":"ORAL","start_dtc":"2024-11-21","end_dtc":"2024-11-21","visit":null},{"seq":"217","trt":"PLACEBO","dose":null,"doseu":null,"dosef":"QD","route":"ORAL","start_dtc":"2024-11-22","end_dtc":"2024-11-22","visit":null},{"seq":"218","trt":"PLACEBO","dose":null,"doseu":null,"dosef":"QD","route":"ORAL","start_dtc":"2024-11-23","end_dtc":"2024-11-23","visit":null},{"seq":"219","trt":"PLACEBO","dose":null,"doseu":null,"dosef":"QD","route":"ORAL","start_dtc":"2024-11-24","end_dtc":"2024-11-24","visit":null},{"seq":"220","trt":"PLACEBO","dose":null,"doseu":null,"dosef":"QD","route":"ORAL","start_dtc":"2024-11-25","end_dtc":"2024-11-25","visit":null},{"seq":"221","trt":"PLACEBO","dose":null,"doseu":null,"dosef":"QD","route":"ORAL","start_dtc":"2024-11-26","end_dtc":"2024-11-26","visit":null},{"seq":"222","trt":"PLACEBO","dose":null,"doseu":null,"dosef":"QD","route":"ORAL","start_dtc":"2024-11-27","end_dtc":"2024-11-27","visit":null},{"seq":"223","trt":"PLACEBO","dose":null,"doseu":null,"dosef":"QD","route":"ORAL","start_dtc":"2024-11-28","end_dtc":"2024-11-28","visit":null},{"seq":"224","trt":"PLACEBO","dose":null,"doseu":null,"dosef":"QD","route":"ORAL","start_dtc":"2024-11-29","end_dtc":"2024-11-29","visit":null},{"seq":"225","trt":"PLACEBO","dose":null,"doseu":null,"dosef":"QD","route":"ORAL","start_dtc":"2024-11-30","end_dtc":"2024-11-30","visit":null},{"seq":"226","trt":"PLACEBO","dose":null,"doseu":null,"dosef":"QD","route":"ORAL","start_dtc":"2024-12-01","end_dtc":"2024-12-01","visit":null},{"seq":"227","trt":"PLACEBO","dose":null,"doseu":null,"dosef":"QD","route":"ORAL","start_dtc":"2024-12-02","end_dtc":"2024-12-02","visit":null},{"seq":"228","trt":"PLACEBO","dose":null,"doseu":null,"dosef":"QD","route":"ORAL","start_dtc":"2024-12-03","end_dtc":"2024-12-03","visit":null},{"seq":"229","trt":"PLACEBO","dose":null,"doseu":null,"dosef":"QD","route":"ORAL","start_dtc":"2024-12-04","end_dtc":"2024-12-04","visit":null},{"seq":"230","trt":"PLACEBO","dose":null,"doseu":null,"dosef":"QD","route":"ORAL","start_dtc":"2024-12-05","end_dtc":"2024-12-05","visit":null},{"seq":"231","trt":"PLACEBO","dose":null,"doseu":null,"dosef":"QD","route":"ORAL","start_dtc":"2024-12-06","end_dtc":"2024-12-06","visit":null},{"seq":"232","trt":"PLACEBO","dose":null,"doseu":null,"dosef":"QD","route":"ORAL","start_dtc":"2024-12-07","end_dtc":"2024-12-07","visit":null},{"seq":"233","trt":"PLACEBO","dose":null,"doseu":null,"dosef":"QD","route":"ORAL","start_dtc":"2024-12-08","end_dtc":"2024-12-08","visit":null},{"seq":"234","trt":"PLACEBO","dose":null,"doseu":null,"dosef":"QD","route":"ORAL","start_dtc":"2024-12-09","end_dtc":"2024-12-09","visit":null},{"seq":"235","trt":"PLACEBO","dose":null,"doseu":null,"dosef":"QD","route":"ORAL","start_dtc":"2024-12-10","end_dtc":"2024-12-10","visit":null},{"seq":"236","trt":"PLACEBO","dose":null,"doseu":null,"dosef":"QD","route":"ORAL","start_dtc":"2024-12-11","end_dtc":"2024-12-11","visit":null},{"seq":"237","trt":"PLACEBO","dose":null,"doseu":null,"dosef":"QD","route":"ORAL","start_dtc":"2024-12-12","end_dtc":"2024-12-12","visit":null},{"seq":"238","trt":"PLACEBO","dose":null,"doseu":null,"dosef":"QD","route":"ORAL","start_dtc":"2024-12-13","end_dtc":"2024-12-13","visit":null},{"seq":"239","trt":"PLACEBO","dose":null,"doseu":null,"dosef":"QD","route":"ORAL","start_dtc":"2024-12-14","end_dtc":"2024-12-14","visit":null},{"seq":"240","trt":"PLACEBO","dose":null,"doseu":null,"dosef":"QD","route":"ORAL","start_dtc":"2024-12-15","end_dtc":"2024-12-15","visit":null},{"seq":"241","trt":"PLACEBO","dose":null,"doseu":null,"dosef":"QD","route":"ORAL","start_dtc":"2024-12-16","end_dtc":"2024-12-16","visit":null},{"seq":"242","trt":"PLACEBO","dose":null,"doseu":null,"dosef":"QD","route":"ORAL","start_dtc":"2024-12-17","end_dtc":"2024-12-17","visit":null},{"seq":"243","trt":"PLACEBO","dose":null,"doseu":null,"dosef":"QD","route":"ORAL","start_dtc":"2024-12-18","end_dtc":"2024-12-18","visit":null},{"seq":"244","trt":"PLACEBO","dose":null,"doseu":null,"dosef":"QD","route":"ORAL","start_dtc":"2024-12-19","end_dtc":"2024-12-19","visit":null},{"seq":"245","trt":"PLACEBO","dose":null,"doseu":null,"dosef":"QD","route":"ORAL","start_dtc":"2024-12-20","end_dtc":"2024-12-20","visit":null},{"seq":"246","trt":"PLACEBO","dose":null,"doseu":null,"dosef":"QD","route":"ORAL","start_dtc":"2024-12-21","end_dtc":"2024-12-21","visit":null},{"seq":"247","trt":"PLACEBO","dose":null,"doseu":null,"dosef":"QD","route":"ORAL","start_dtc":"2024-12-22","end_dtc":"2024-12-22","visit":null},{"seq":"248","trt":"PLACEBO","dose":null,"doseu":null,"dosef":"QD","route":"ORAL","start_dtc":"2024-12-23","end_dtc":"2024-12-23","visit":null},{"seq":"249","trt":"PLACEBO","dose":null,"doseu":null,"dosef":"QD","route":"ORAL","start_dtc":"2024-12-24","end_dtc":"2024-12-24","visit":null},{"seq":"250","trt":"PLACEBO","dose":null,"doseu":null,"dosef":"QD","route":"ORAL","start_dtc":"2024-12-25","end_dtc":"2024-12-25","visit":"WEEK 36"},{"seq":"251","trt":"PLACEBO","dose":null,"doseu":null,"dosef":"QD","route":"ORAL","start_dtc":"2024-12-26","end_dtc":"2024-12-26","visit":"WEEK 36"},{"seq":"252","trt":"PLACEBO","dose":null,"doseu":null,"dosef":"QD","route":"ORAL","start_dtc":"2024-12-27","end_dtc":"2024-12-27","visit":"WEEK 36"},{"seq":"253","trt":"PLACEBO","dose":null,"doseu":null,"dosef":"QD","route":"ORAL","start_dtc":"2024-12-28","end_dtc":"2024-12-28","visit":"WEEK 36"},{"seq":"254","trt":"PLACEBO","dose":null,"doseu":null,"dosef":"QD","route":"ORAL","start_dtc":"2024-12-29","end_dtc":"2024-12-29","visit":"WEEK 36"},{"seq":"255","trt":"PLACEBO","dose":null,"doseu":null,"dosef":"QD","route":"ORAL","start_dtc":"2024-12-30","end_dtc":"2024-12-30","visit":"WEEK 36"},{"seq":"256","trt":"PLACEBO","dose":null,"doseu":null,"dosef":"QD","route":"ORAL","start_dtc":"2024-12-31","end_dtc":"2024-12-31","visit":"WEEK 36"},{"seq":"257","trt":"PLACEBO","dose":null,"doseu":null,"dosef":"QD","route":"ORAL","start_dtc":"2025-01-01","end_dtc":"2025-01-01","visit":null},{"seq":"258","trt":"PLACEBO","dose":null,"doseu":null,"dosef":"QD","route":"ORAL","start_dtc":"2025-01-02","end_dtc":"2025-01-02","visit":null},{"seq":"259","trt":"PLACEBO","dose":null,"doseu":null,"dosef":"QD","route":"ORAL","start_dtc":"2025-01-03","end_dtc":"2025-01-03","visit":null},{"seq":"260","trt":"PLACEBO","dose":null,"doseu":null,"dosef":"QD","route":"ORAL","start_dtc":"2025-01-04","end_dtc":"2025-01-04","visit":null},{"seq":"261","trt":"PLACEBO","dose":null,"doseu":null,"dosef":"QD","route":"ORAL","start_dtc":"2025-01-05","end_dtc":"2025-01-05","visit":null},{"seq":"262","trt":"PLACEBO","dose":null,"doseu":null,"dosef":"QD","route":"ORAL","start_dtc":"2025-01-06","end_dtc":"2025-01-06","visit":null},{"seq":"263","trt":"PLACEBO","dose":null,"doseu":null,"dosef":"QD","route":"ORAL","start_dtc":"2025-01-07","end_dtc":"2025-01-07","visit":null},{"seq":"264","trt":"PLACEBO","dose":null,"doseu":null,"dosef":"QD","route":"ORAL","start_dtc":"2025-01-08","end_dtc":"2025-01-08","visit":null},{"seq":"265","trt":"PLACEBO","dose":null,"doseu":null,"dosef":"QD","route":"ORAL","start_dtc":"2025-01-09","end_dtc":"2025-01-09","visit":null},{"seq":"266","trt":"PLACEBO","dose":null,"doseu":null,"dosef":"QD","route":"ORAL","start_dtc":"2025-01-10","end_dtc":"2025-01-10","visit":null},{"seq":"267","trt":"PLACEBO","dose":null,"doseu":null,"dosef":"QD","route":"ORAL","start_dtc":"2025-01-11","end_dtc":"2025-01-11","visit":null},{"seq":"268","trt":"PLACEBO","dose":null,"doseu":null,"dosef":"QD","route":"ORAL","start_dtc":"2025-01-12","end_dtc":"2025-01-12","visit":null},{"seq":"269","trt":"PLACEBO","dose":null,"doseu":null,"dosef":"QD","route":"ORAL","start_dtc":"2025-01-13","end_dtc":"2025-01-13","visit":null},{"seq":"270","trt":"PLACEBO","dose":null,"doseu":null,"dosef":"QD","route":"ORAL","start_dtc":"2025-01-14","end_dtc":"2025-01-14","visit":null},{"seq":"271","trt":"PLACEBO","dose":null,"doseu":null,"dosef":"QD","route":"ORAL","start_dtc":"2025-01-15","end_dtc":"2025-01-15","visit":null},{"seq":"272","trt":"PLACEBO","dose":null,"doseu":null,"dosef":"QD","route":"ORAL","start_dtc":"2025-01-16","end_dtc":"2025-01-16","visit":null},{"seq":"273","trt":"PLACEBO","dose":null,"doseu":null,"dosef":"QD","route":"ORAL","start_dtc":"2025-01-17","end_dtc":"2025-01-17","visit":null},{"seq":"274","trt":"PLACEBO","dose":null,"doseu":null,"dosef":"QD","route":"ORAL","start_dtc":"2025-01-18","end_dtc":"2025-01-18","visit":null},{"seq":"275","trt":"PLACEBO","dose":null,"doseu":null,"dosef":"QD","route":"ORAL","start_dtc":"2025-01-19","end_dtc":"2025-01-19","visit":null},{"seq":"276","trt":"PLACEBO","dose":null,"doseu":null,"dosef":"QD","route":"ORAL","start_dtc":"2025-01-20","end_dtc":"2025-01-20","visit":null},{"seq":"277","trt":"PLACEBO","dose":null,"doseu":null,"dosef":"QD","route":"ORAL","start_dtc":"2025-01-21","end_dtc":"2025-01-21","visit":null},{"seq":"278","trt":"PLACEBO","dose":null,"doseu":null,"dosef":"QD","route":"ORAL","start_dtc":"2025-01-22","end_dtc":"2025-01-22","visit":null},{"seq":"279","trt":"PLACEBO","dose":null,"doseu":null,"dosef":"QD","route":"ORAL","start_dtc":"2025-01-23","end_dtc":"2025-01-23","visit":null},{"seq":"280","trt":"PLACEBO","dose":null,"doseu":null,"dosef":"QD","route":"ORAL","start_dtc":"2025-01-24","end_dtc":"2025-01-24","visit":null},{"seq":"281","trt":"PLACEBO","dose":null,"doseu":null,"dosef":"QD","route":"ORAL","start_dtc":"2025-01-25","end_dtc":"2025-01-25","visit":null},{"seq":"282","trt":"PLACEBO","dose":null,"doseu":null,"dosef":"QD","route":"ORAL","start_dtc":"2025-01-26","end_dtc":"2025-01-26","visit":null},{"seq":"283","trt":"PLACEBO","dose":null,"doseu":null,"dosef":"QD","route":"ORAL","start_dtc":"2025-01-27","end_dtc":"2025-01-27","visit":null},{"seq":"284","trt":"PLACEBO","dose":null,"doseu":null,"dosef":"QD","route":"ORAL","start_dtc":"2025-01-28","end_dtc":"2025-01-28","visit":null},{"seq":"285","trt":"PLACEBO","dose":null,"doseu":null,"dosef":"QD","route":"ORAL","start_dtc":"2025-01-29","end_dtc":"2025-01-29","visit":null},{"seq":"286","trt":"PLACEBO","dose":null,"doseu":null,"dosef":"QD","route":"ORAL","start_dtc":"2025-01-30","end_dtc":"2025-01-30","visit":null}]},"section_7_adverse_events":{"summary":{"total_aes":4,"serious_aes":1,"fatal_aes":0,"by_severity":{"MODERATE":3,"SEVERE":1},"by_soc":{"Metabolism and nutrition disorders":2,"Infections and infestations":2}},"events":[{"seq":"1","term":"DEHYDRATION","decod":"Dehydration","llt":"Dehydration","hlt":"Fluid intake decreased and dehydration","hlgt":"Fluid and electrolyte conditions NEC","soc":"Metabolism and nutrition disorders","bodsys":"Metabolism and nutrition disorders","severity":"MODERATE","serious":"N","causality":"NOT RELATED","action_taken":"DOSE NOT CHANGED","outcome":"RECOVERED/RESOLVED","fatal":"N","hospitalization":"N","life_threatening":"N","onset_dtc":"2024-04-28","end_dtc":"2024-05-25","onset_dy":"9","end_dy":"36","duration":null,"epoch":"TREATMENT","visit":null,"supplemental":{}},{"seq":"2","term":"URINARY TRACT INFECTION","decod":"Urinary tract infection","llt":"Urinary tract infection","hlt":"Urinary tract infections","hlgt":"Infections NEC","soc":"Infections and infestations","bodsys":"Infections and infestations","severity":"SEVERE","serious":"Y","causality":"NOT RELATED","action_taken":"DOSE NOT CHANGED","outcome":"RECOVERED/RESOLVED","fatal":"N","hospitalization":"Y","life_threatening":"N","onset_dtc":"2024-10-08","end_dtc":"2024-11-07","onset_dy":"172","end_dy":"202","duration":null,"epoch":"TREATMENT","visit":null,"supplemental":{}},{"seq":"3","term":"HYPOGLYCAEMIA","decod":"Hypoglycaemia","llt":"Hypoglycaemia","hlt":"Hypoglycaemic conditions NEC","hlgt":"Glucose metabolism disorders (incl diabetes mellitus)","soc":"Metabolism and nutrition disorders","bodsys":"Metabolism and nutrition disorders","severity":"MODERATE","serious":"N","causality":"NOT RELATED","action_taken":"DOSE NOT CHANGED","outcome":"RECOVERED/RESOLVED","fatal":"N","hospitalization":"N","life_threatening":"N","onset_dtc":"2025-01-04","end_dtc":"2025-01-26","onset_dy":"260","end_dy":"282","duration":null,"epoch":"TREATMENT","visit":null,"supplemental":{}},{"seq":"4","term":"URINARY TRACT INFECTION","decod":"Urinary tract infection","llt":"Urinary tract infection","hlt":"Urinary tract infections","hlgt":"Infections NEC","soc":"Infections and infestations","bodsys":"Infections and infestations","severity":"MODERATE","serious":"N","causality":"NOT RELATED","action_taken":"DOSE NOT CHANGED","outcome":"RECOVERED/RESOLVED","fatal":"N","hospitalization":"N","life_threatening":"N","onset_dtc":"2025-01-10","end_dtc":"2025-01-24","onset_dy":"266","end_dy":"280","duration":null,"epoch":"TREATMENT","visit":null,"supplemental":{}}]},"section_8_laboratory_results":{"summary":{"total_records":49,"abnormal_count":12,"abnormal_pct":24.5},"shift_summary":[{"testcd":"ALT","baseline_value":30.87,"baseline_nrind":"NORMAL","worst_post_baseline_value":35.79,"worst_post_baseline_nrind":"NORMAL","worst_visit":"WEEK 52"},{"testcd":"AST","baseline_value":33.88,"baseline_nrind":"NORMAL","worst_post_baseline_value":35.3,"worst_post_baseline_nrind":"NORMAL","worst_visit":"RANDOMIZATION"},{"testcd":"CREAT","baseline_value":63.05,"baseline_nrind":"NORMAL","worst_post_baseline_value":98.08,"worst_post_baseline_nrind":"HIGH","worst_visit":"WEEK 4"},{"testcd":"GLUC","baseline_value":5.79,"baseline_nrind":"HIGH","worst_post_baseline_value":5.82,"worst_post_baseline_nrind":"HIGH","worst_visit":"WEEK 52"},{"testcd":"HGB","baseline_value":113.43,"baseline_nrind":"LOW","worst_post_baseline_value":110.19,"worst_post_baseline_nrind":"LOW","worst_visit":"WEEK 24"},{"testcd":"PLAT","baseline_value":243.14,"baseline_nrind":"NORMAL","worst_post_baseline_value":266.66,"worst_post_baseline_nrind":"NORMAL","worst_visit":"FOLLOW-UP"},{"testcd":"WBC","baseline_value":7.6,"baseline_nrind":"NORMAL","worst_post_baseline_value":10.57,"worst_post_baseline_nrind":"NORMAL","worst_visit":"WEEK 24"}],"results":[{"seq":"1","testcd":"ALT","test":"Alanine Aminotransferase","cat":"CHEMISTRY","orres":"30.87","orresu":"U/L","stresc":"30.87","stresn":"30.87","stresu":"U/L","stnrlo":"7","stnrhi":"56","nrind":"NORMAL","fast":null,"dtc":"2024-03-28","dy":"-23","visit":"SCREENING","visitnum":"1.0","epoch":"SCREENING","spec":null,"method":null},{"seq":"2","testcd":"AST","test":"Aspartate Aminotransferase","cat":"CHEMISTRY","orres":"33.88","orresu":"U/L","stresc":"33.88","stresn":"33.88","stresu":"U/L","stnrlo":"10","stnrhi":"40","nrind":"NORMAL","fast":null,"dtc":"2024-03-28","dy":"-23","visit":"SCREENING","visitnum":"1.0","epoch":"SCREENING","spec":null,"method":null},{"seq":"3","testcd":"CREAT","test":"Creatinine","cat":"CHEMISTRY","orres":"63.05","orresu":"umol/L","stresc":"63.05","stresn":"63.05","stresu":"umol/L","stnrlo":"44","stnrhi":"80","nrind":"NORMAL","fast":null,"dtc":"2024-03-28","dy":"-23","visit":"SCREENING","visitnum":"1.0","epoch":"SCREENING","spec":null,"method":null},{"seq":"4","testcd":"GLUC","test":"Glucose","cat":"CHEMISTRY","orres":null,"orresu":null,"stresc":null,"stresn":null,"stresu":null,"stnrlo":null,"stnrhi":null,"nrind":null,"fast":null,"dtc":"2024-03-28","dy":"-23","visit":"SCREENING","visitnum":"1.0","epoch":"SCREENING","spec":null,"method":null},{"seq":"5","testcd":"HGB","test":"Hemoglobin","cat":"HEMATOLOGY","orres":"113.43","orresu":"g/L","stresc":"113.43","stresn":"113.43","stresu":"g/L","stnrlo":"120","stnrhi":"155","nrind":"LOW","fast":null,"dtc":"2024-03-28","dy":"-23","visit":"SCREENING","visitnum":"1.0","epoch":"SCREENING","spec":null,"method":null},{"seq":"6","testcd":"PLAT","test":"Platelets","cat":"HEMATOLOGY","orres":"243.14","orresu":"10^9/L","stresc":"243.14","stresn":"243.14","stresu":"10^9/L","stnrlo":"150","stnrhi":"400","nrind":"NORMAL","fast":null,"dtc":"2024-03-28","dy":"-23","visit":"SCREENING","visitnum":"1.0","epoch":"SCREENING","spec":null,"method":null},{"seq":"7","testcd":"WBC","test":"Leukocytes","cat":"HEMATOLOGY","orres":"7.6","orresu":"10^9/L","stresc":"7.6","stresn":"7.6","stresu":"10^9/L","stnrlo":"4.0","stnrhi":"11.0","nrind":"NORMAL","fast":null,"dtc":"2024-03-28","dy":"-23","visit":"SCREENING","visitnum":"1.0","epoch":"SCREENING","spec":null,"method":null},{"seq":"8","testcd":"ALT","test":"Alanine Aminotransferase","cat":"CHEMISTRY","orres":"31.98","orresu":"U/L","stresc":"31.98","stresn":"31.98","stresu":"U/L","stnrlo":"7","stnrhi":"56","nrind":"NORMAL","fast":null,"dtc":"2024-04-20","dy":"1","visit":"RANDOMIZATION","visitnum":"2.0","epoch":"TREATMENT","spec":null,"method":null},{"seq":"9","testcd":"AST","test":"Aspartate Aminotransferase","cat":"CHEMISTRY","orres":"35.3","orresu":"U/L","stresc":"35.3","stresn":"35.3","stresu":"U/L","stnrlo":"10","stnrhi":"40","nrind":"NORMAL","fast":null,"dtc":"2024-04-20","dy":"1","visit":"RANDOMIZATION","visitnum":"2.0","epoch":"TREATMENT","spec":null,"method":null},{"seq":"10","testcd":"CREAT","test":"Creatinine","cat":"CHEMISTRY","orres":"67.76","orresu":"umol/L","stresc":"67.76","stresn":"67.76","stresu":"umol/L","stnrlo":"44","stnrhi":"80","nrind":"NORMAL","fast":null,"dtc":"2024-04-20","dy":"1","visit":"RANDOMIZATION","visitnum":"2.0","epoch":"TREATMENT","spec":null,"method":null},{"seq":"11","testcd":"GLUC","test":"Glucose","cat":"CHEMISTRY","orres":"5.79","orresu":"mmol/L","stresc":"5.79","stresn":"5.79","stresu":"mmol/L","stnrlo":"3.9","stnrhi":"5.6","nrind":"HIGH","fast":null,"dtc":"2024-04-20","dy":"1","visit":"RANDOMIZATION","visitnum":"2.0","epoch":"TREATMENT","spec":null,"method":null},{"seq":"12","testcd":"HGB","test":"Hemoglobin","cat":"HEMATOLOGY","orres":"114.19","orresu":"g/L","stresc":"114.19","stresn":"114.19","stresu":"g/L","stnrlo":"120","stnrhi":"155","nrind":"LOW","fast":null,"dtc":"2024-04-20","dy":"1","visit":"RANDOMIZATION","visitnum":"2.0","epoch":"TREATMENT","spec":null,"method":null},{"seq":"13","testcd":"PLAT","test":"Platelets","cat":"HEMATOLOGY","orres":"243.02","orresu":"10^9/L","stresc":"243.02","stresn":"243.02","stresu":"10^9/L","stnrlo":"150","stnrhi":"400","nrind":"NORMAL","fast":null,"dtc":"2024-04-20","dy":"1","visit":"RANDOMIZATION","visitnum":"2.0","epoch":"TREATMENT","spec":null,"method":null},{"seq":"14","testcd":"WBC","test":"Leukocytes","cat":"HEMATOLOGY","orres":"7.4","orresu":"10^9/L","stresc":"7.4","stresn":"7.4","stresu":"10^9/L","stnrlo":"4.0","stnrhi":"11.0","nrind":"NORMAL","fast":null,"dtc":"2024-04-20","dy":"1","visit":"RANDOMIZATION","visitnum":"2.0","epoch":"TREATMENT","spec":null,"method":null},{"seq":"15","testcd":"ALT","test":"Alanine Aminotransferase","cat":"CHEMISTRY","orres":"32.49","orresu":"U/L","stresc":"32.49","stresn":"32.49","stresu":"U/L","stnrlo":"7","stnrhi":"56","nrind":"NORMAL","fast":null,"dtc":"2024-05-21","dy":"32","visit":"WEEK 4","visitnum":"3.0","epoch":"TREATMENT","spec":null,"method":null},{"seq":"16","testcd":"AST","test":"Aspartate Aminotransferase","cat":"CHEMISTRY","orres":"34.37","orresu":"U/L","stresc":"34.37","stresn":"34.37","stresu":"U/L","stnrlo":"10","stnrhi":"40","nrind":"NORMAL","fast":null,"dtc":"2024-05-21","dy":"32","visit":"WEEK 4","visitnum":"3.0","epoch":"TREATMENT","spec":null,"method":null},{"seq":"17","testcd":"CREAT","test":"Creatinine","cat":"CHEMISTRY","orres":"98.08","orresu":"umol/L","stresc":"98.08","stresn":"98.08","stresu":"umol/L","stnrlo":"44","stnrhi":"80","nrind":"HIGH","fast":null,"dtc":"2024-05-21","dy":"32","visit":"WEEK 4","visitnum":"3.0","epoch":"TREATMENT","spec":null,"method":null},{"seq":"18","testcd":"GLUC","test":"Glucose","cat":"CHEMISTRY","orres":"5.59","orresu":"mmol/L","stresc":"5.59","stresn":"5.59","stresu":"mmol/L","stnrlo":"3.9","stnrhi":"5.6","nrind":"NORMAL","fast":null,"dtc":"2024-05-21","dy":"32","visit":"WEEK 4","visitnum":"3.0","epoch":"TREATMENT","spec":null,"method":null},{"seq":"19","testcd":"HGB","test":"Hemoglobin","cat":"HEMATOLOGY","orres":"110.49","orresu":"g/L","stresc":"110.49","stresn":"110.49","stresu":"g/L","stnrlo":"120","stnrhi":"155","nrind":"LOW","fast":null,"dtc":"2024-05-21","dy":"32","visit":"WEEK 4","visitnum":"3.0","epoch":"TREATMENT","spec":null,"method":null},{"seq":"20","testcd":"PLAT","test":"Platelets","cat":"HEMATOLOGY","orres":null,"orresu":null,"stresc":null,"stresn":null,"stresu":null,"stnrlo":null,"stnrhi":null,"nrind":null,"fast":null,"dtc":"2024-05-21","dy":"32","visit":"WEEK 4","visitnum":"3.0","epoch":"TREATMENT","spec":null,"method":null},{"seq":"21","testcd":"WBC","test":"Leukocytes","cat":"HEMATOLOGY","orres":"6.86","orresu":"10^9/L","stresc":"6.86","stresn":"6.86","stresu":"10^9/L","stnrlo":"4.0","stnrhi":"11.0","nrind":"NORMAL","fast":null,"dtc":"2024-05-21","dy":"32","visit":"WEEK 4","visitnum":"3.0","epoch":"TREATMENT","spec":null,"method":null},{"seq":"22","testcd":"ALT","test":"Alanine Aminotransferase","cat":"CHEMISTRY","orres":"30.8","orresu":"U/L","stresc":"30.8","stresn":"30.8","stresu":"U/L","stnrlo":"7","stnrhi":"56","nrind":"NORMAL","fast":null,"dtc":"2024-07-11","dy":"83","visit":"WEEK 12","visitnum":"4.0","epoch":"TREATMENT","spec":null,"method":null},{"seq":"23","testcd":"AST","test":"Aspartate Aminotransferase","cat":"CHEMISTRY","orres":"34.23","orresu":"U/L","stresc":"34.23","stresn":"34.23","stresu":"U/L","stnrlo":"10","stnrhi":"40","nrind":"NORMAL","fast":null,"dtc":"2024-07-11","dy":"83","visit":"WEEK 12","visitnum":"4.0","epoch":"TREATMENT","spec":null,"method":null},{"seq":"24","testcd":"CREAT","test":"Creatinine","cat":"CHEMISTRY","orres":"65.86","orresu":"umol/L","stresc":"65.86","stresn":"65.86","stresu":"umol/L","stnrlo":"44","stnrhi":"80","nrind":"NORMAL","fast":null,"dtc":"2024-07-11","dy":"83","visit":"WEEK 12","visitnum":"4.0","epoch":"TREATMENT","spec":null,"method":null},{"seq":"25","testcd":"GLUC","test":"Glucose","cat":"CHEMISTRY","orres":"5.63","orresu":"mmol/L","stresc":"5.63","stresn":"5.63","stresu":"mmol/L","stnrlo":"3.9","stnrhi":"5.6","nrind":"HIGH","fast":null,"dtc":"2024-07-11","dy":"83","visit":"WEEK 12","visitnum":"4.0","epoch":"TREATMENT","spec":null,"method":null},{"seq":"26","testcd":"HGB","test":"Hemoglobin","cat":"HEMATOLOGY","orres":"110.32","orresu":"g/L","stresc":"110.32","stresn":"110.32","stresu":"g/L","stnrlo":"120","stnrhi":"155","nrind":"LOW","fast":null,"dtc":"2024-07-11","dy":"83","visit":"WEEK 12","visitnum":"4.0","epoch":"TREATMENT","spec":null,"method":null},{"seq":"27","testcd":"PLAT","test":"Platelets","cat":"HEMATOLOGY","orres":"237.88","orresu":"10^9/L","stresc":"237.88","stresn":"237.88","stresu":"10^9/L","stnrlo":"150","stnrhi":"400","nrind":"NORMAL","fast":null,"dtc":"2024-07-11","dy":"83","visit":"WEEK 12","visitnum":"4.0","epoch":"TREATMENT","spec":null,"method":null},{"seq":"28","testcd":"WBC","test":"Leukocytes","cat":"HEMATOLOGY","orres":"6.77","orresu":"10^9/L","stresc":"6.77","stresn":"6.77","stresu":"10^9/L","stnrlo":"4.0","stnrhi":"11.0","nrind":"NORMAL","fast":null,"dtc":"2024-07-11","dy":"83","visit":"WEEK 12","visitnum":"4.0","epoch":"TREATMENT","spec":null,"method":null},{"seq":"29","testcd":"ALT","test":"Alanine Aminotransferase","cat":"CHEMISTRY","orres":"31.66","orresu":"U/L","stresc":"31.66","stresn":"31.66","stresu":"U/L","stnrlo":"7","stnrhi":"56","nrind":"NORMAL","fast":null,"dtc":"2024-10-09","dy":"173","visit":"WEEK 24","visitnum":"5.0","epoch":"TREATMENT","spec":null,"method":null},{"seq":"30","testcd":"AST","test":"Aspartate Aminotransferase","cat":"CHEMISTRY","orres":"34.59","orresu":"U/L","stresc":"34.59","stresn":"34.59","stresu":"U/L","stnrlo":"10","stnrhi":"40","nrind":"NORMAL","fast":null,"dtc":"2024-10-09","dy":"173","visit":"WEEK 24","visitnum":"5.0","epoch":"TREATMENT","spec":null,"method":null},{"seq":"31","testcd":"CREAT","test":"Creatinine","cat":"CHEMISTRY","orres":"66.42","orresu":"umol/L","stresc":"66.42","stresn":"66.42","stresu":"umol/L","stnrlo":"44","stnrhi":"80","nrind":"NORMAL","fast":null,"dtc":"2024-10-09","dy":"173","visit":"WEEK 24","visitnum":"5.0","epoch":"TREATMENT","spec":null,"method":null},{"seq":"32","testcd":"GLUC","test":"Glucose","cat":"CHEMISTRY","orres":"5.71","orresu":"mmol/L","stresc":"5.71","stresn":"5.71","stresu":"mmol/L","stnrlo":"3.9","stnrhi":"5.6","nrind":"HIGH","fast":null,"dtc":"2024-10-09","dy":"173","visit":"WEEK 24","visitnum":"5.0","epoch":"TREATMENT","spec":null,"method":null},{"seq":"33","testcd":"HGB","test":"Hemoglobin","cat":"HEMATOLOGY","orres":"110.19","orresu":"g/L","stresc":"110.19","stresn":"110.19","stresu":"g/L","stnrlo":"120","stnrhi":"155","nrind":"LOW","fast":null,"dtc":"2024-10-09","dy":"173","visit":"WEEK 24","visitnum":"5.0","epoch":"TREATMENT","spec":null,"method":null},{"seq":"34","testcd":"PLAT","test":"Platelets","cat":"HEMATOLOGY","orres":"241.94","orresu":"10^9/L","stresc":"241.94","stresn":"241.94","stresu":"10^9/L","stnrlo":"150","stnrhi":"400","nrind":"NORMAL","fast":null,"dtc":"2024-10-09","dy":"173","visit":"WEEK 24","visitnum":"5.0","epoch":"TREATMENT","spec":null,"method":null},{"seq":"35","testcd":"WBC","test":"Leukocytes","cat":"HEMATOLOGY","orres":"10.57","orresu":"10^9/L","stresc":"10.57","stresn":"10.57","stresu":"10^9/L","stnrlo":"4.0","stnrhi":"11.0","nrind":"NORMAL","fast":null,"dtc":"2024-10-09","dy":"173","visit":"WEEK 24","visitnum":"5.0","epoch":"TREATMENT","spec":null,"method":null},{"seq":"36","testcd":"ALT","test":"Alanine Aminotransferase","cat":"CHEMISTRY","orres":"35.79","orresu":"U/L","stresc":"35.79","stresn":"35.79","stresu":"U/L","stnrlo":"7","stnrhi":"56","nrind":"NORMAL","fast":null,"dtc":"2025-04-13","dy":"359","visit":"WEEK 52","visitnum":"7.0","epoch":"TREATMENT","spec":null,"method":null},{"seq":"37","testcd":"AST","test":"Aspartate Aminotransferase","cat":"CHEMISTRY","orres":"34.51","orresu":"U/L","stresc":"34.51","stresn":"34.51","stresu":"U/L","stnrlo":"10","stnrhi":"40","nrind":"NORMAL","fast":null,"dtc":"2025-04-13","dy":"359","visit":"WEEK 52","visitnum":"7.0","epoch":"TREATMENT","spec":null,"method":null},{"seq":"38","testcd":"CREAT","test":"Creatinine","cat":"CHEMISTRY","orres":"64.55","orresu":"umol/L","stresc":"64.55","stresn":"64.55","stresu":"umol/L","stnrlo":"44","stnrhi":"80","nrind":"NORMAL","fast":null,"dtc":"2025-04-13","dy":"359","visit":"WEEK 52","visitnum":"7.0","epoch":"TREATMENT","spec":null,"method":null},{"seq":"39","testcd":"GLUC","test":"Glucose","cat":"CHEMISTRY","orres":"5.82","orresu":"mmol/L","stresc":"5.82","stresn":"5.82","stresu":"mmol/L","stnrlo":"3.9","stnrhi":"5.6","nrind":"HIGH","fast":null,"dtc":"2025-04-13","dy":"359","visit":"WEEK 52","visitnum":"7.0","epoch":"TREATMENT","spec":null,"method":null},{"seq":"40","testcd":"HGB","test":"Hemoglobin","cat":"HEMATOLOGY","orres":"112.4","orresu":"g/L","stresc":"112.4","stresn":"112.4","stresu":"g/L","stnrlo":"120","stnrhi":"155","nrind":"LOW","fast":null,"dtc":"2025-04-13","dy":"359","visit":"WEEK 52","visitnum":"7.0","epoch":"TREATMENT","spec":null,"method":null},{"seq":"41","testcd":"PLAT","test":"Platelets","cat":"HEMATOLOGY","orres":"260.61","orresu":"10^9/L","stresc":"260.61","stresn":"260.61","stresu":"10^9/L","stnrlo":"150","stnrhi":"400","nrind":"NORMAL","fast":null,"dtc":"2025-04-13","dy":"359","visit":"WEEK 52","visitnum":"7.0","epoch":"TREATMENT","spec":null,"method":null},{"seq":"42","testcd":"WBC","test":"Leukocytes","cat":"HEMATOLOGY","orres":"6.91","orresu":"10^9/L","stresc":"6.91","stresn":"6.91","stresu":"10^9/L","stnrlo":"4.0","stnrhi":"11.0","nrind":"NORMAL","fast":null,"dtc":"2025-04-13","dy":"359","visit":"WEEK 52","visitnum":"7.0","epoch":"TREATMENT","spec":null,"method":null},{"seq":"43","testcd":"ALT","test":"Alanine Aminotransferase","cat":"CHEMISTRY","orres":"32.9","orresu":"U/L","stresc":"32.9","stresn":"32.9","stresu":"U/L","stnrlo":"7","stnrhi":"56","nrind":"NORMAL","fast":null,"dtc":"2025-05-25","dy":"401","visit":"FOLLOW-UP","visitnum":"8.0","epoch":"FOLLOW-UP","spec":null,"method":null},{"seq":"44","testcd":"AST","test":"Aspartate Aminotransferase","cat":"CHEMISTRY","orres":"35.26","orresu":"U/L","stresc":"35.26","stresn":"35.26","stresu":"U/L","stnrlo":"10","stnrhi":"40","nrind":"NORMAL","fast":null,"dtc":"2025-05-25","dy":"401","visit":"FOLLOW-UP","visitnum":"8.0","epoch":"FOLLOW-UP","spec":null,"method":null},{"seq":"45","testcd":"CREAT","test":"Creatinine","cat":"CHEMISTRY","orres":"65.02","orresu":"umol/L","stresc":"65.02","stresn":"65.02","stresu":"umol/L","stnrlo":"44","stnrhi":"80","nrind":"NORMAL","fast":null,"dtc":"2025-05-25","dy":"401","visit":"FOLLOW-UP","visitnum":"8.0","epoch":"FOLLOW-UP","spec":null,"method":null},{"seq":"46","testcd":"GLUC","test":"Glucose","cat":"CHEMISTRY","orres":null,"orresu":null,"stresc":null,"stresn":null,"stresu":null,"stnrlo":null,"stnrhi":null,"nrind":null,"fast":null,"dtc":"2025-05-25","dy":"401","visit":"FOLLOW-UP","visitnum":"8.0","epoch":"FOLLOW-UP","spec":null,"method":null},{"seq":"47","testcd":"HGB","test":"Hemoglobin","cat":"HEMATOLOGY","orres":"112.72","orresu":"g/L","stresc":"112.72","stresn":"112.72","stresu":"g/L","stnrlo":"120","stnrhi":"155","nrind":"LOW","fast":null,"dtc":"2025-05-25","dy":"401","visit":"FOLLOW-UP","visitnum":"8.0","epoch":"FOLLOW-UP","spec":null,"method":null},{"seq":"48","testcd":"PLAT","test":"Platelets","cat":"HEMATOLOGY","orres":"266.66","orresu":"10^9/L","stresc":"266.66","stresn":"266.66","stresu":"10^9/L","stnrlo":"150","stnrhi":"400","nrind":"NORMAL","fast":null,"dtc":"2025-05-25","dy":"401","visit":"FOLLOW-UP","visitnum":"8.0","epoch":"FOLLOW-UP","spec":null,"method":null},{"seq":"49","testcd":"WBC","test":"Leukocytes","cat":"HEMATOLOGY","orres":"7.5","orresu":"10^9/L","stresc":"7.5","stresn":"7.5","stresu":"10^9/L","stnrlo":"4.0","stnrhi":"11.0","nrind":"NORMAL","fast":null,"dtc":"2025-05-25","dy":"401","visit":"FOLLOW-UP","visitnum":"8.0","epoch":"FOLLOW-UP","spec":null,"method":null}]},"section_9_vital_signs":{"summary":{"total_records":48},"trends":{"BMI":[{"visit":"SCREENING","visitnum":"1.0","dtc":"2024-03-28","value":"24.5","unit":"kg/m2"},{"visit":"RANDOMIZATION","visitnum":"2.0","dtc":"2024-04-20","value":"23.9","unit":"kg/m2"},{"visit":"WEEK 4","visitnum":"3.0","dtc":"2024-05-21","value":"23.5","unit":"kg/m2"},{"visit":"WEEK 12","visitnum":"4.0","dtc":"2024-07-11","value":"22.4","unit":"kg/m2"},{"visit":"WEEK 36","visitnum":"6.0","dtc":"2024-12-27","value":"22.3","unit":"kg/m2"},{"visit":"WEEK 52","visitnum":"7.0","dtc":"2025-04-13","value":"22.6","unit":"kg/m2"}],"DIABP":[{"visit":"SCREENING","visitnum":"1.0","dtc":"2024-03-28","value":"85.0","unit":"mmHg"},{"visit":"RANDOMIZATION","visitnum":"2.0","dtc":"2024-04-20","value":"85.5","unit":"mmHg"},{"visit":"WEEK 4","visitnum":"3.0","dtc":"2024-05-21","value":"87.0","unit":"mmHg"},{"visit":"WEEK 12","visitnum":"4.0","dtc":"2024-07-11","value":"87.0","unit":"mmHg"},{"visit":"WEEK 36","visitnum":"6.0","dtc":"2024-12-27","value":"89.2","unit":"mmHg"},{"visit":"WEEK 52","visitnum":"7.0","dtc":"2025-04-13","value":"90.6","unit":"mmHg"}],"HEIGHT":[{"visit":"SCREENING","visitnum":"1.0","dtc":"2024-03-28","value":"163.1","unit":"cm"},{"visit":"RANDOMIZATION","visitnum":"2.0","dtc":"2024-04-20","value":"162.6","unit":"cm"},{"visit":"WEEK 4","visitnum":"3.0","dtc":"2024-05-21","value":"162.8","unit":"cm"},{"visit":"WEEK 12","visitnum":"4.0","dtc":"2024-07-11","value":"163.2","unit":"cm"},{"visit":"WEEK 36","visitnum":"6.0","dtc":"2024-12-27","value":"162.1","unit":"cm"},{"visit":"WEEK 52","visitnum":"7.0","dtc":"2025-04-13","value":"162.1","unit":"cm"}],"PULSE":[{"visit":"SCREENING","visitnum":"1.0","dtc":"2024-03-28","value":"81.5","unit":"beats/min"},{"visit":"RANDOMIZATION","visitnum":"2.0","dtc":"2024-04-20","value":"78.8","unit":"beats/min"},{"visit":"WEEK 4","visitnum":"3.0","dtc":"2024-05-21","value":"77.7","unit":"beats/min"},{"visit":"WEEK 12","visitnum":"4.0","dtc":"2024-07-11","value":"80.0","unit":"beats/min"},{"visit":"WEEK 36","visitnum":"6.0","dtc":"2024-12-27","value":"82.3","unit":"beats/min"},{"visit":"WEEK 52","visitnum":"7.0","dtc":"2025-04-13","value":"80.1","unit":"beats/min"}],"RESP":[{"visit":"SCREENING","visitnum":"1.0","dtc":"2024-03-28","value":"17.8","unit":"breaths/min"},{"visit":"RANDOMIZATION","visitnum":"2.0","dtc":"2024-04-20","value":"19.0","unit":"breaths/min"},{"visit":"WEEK 4","visitnum":"3.0","dtc":"2024-05-21","value":"18.4","unit":"breaths/min"},{"visit":"WEEK 12","visitnum":"4.0","dtc":"2024-07-11","value":"16.7","unit":"breaths/min"},{"visit":"WEEK 36","visitnum":"6.0","dtc":"2024-12-27","value":"17.8","unit":"breaths/min"},{"visit":"WEEK 52","visitnum":"7.0","dtc":"2025-04-13","value":"18.4","unit":"breaths/min"}],"SYSBP":[{"visit":"SCREENING","visitnum":"1.0","dtc":"2024-03-28","value":"121.3","unit":"mmHg"},{"visit":"RANDOMIZATION","visitnum":"2.0","dtc":"2024-04-20","value":"122.1","unit":"mmHg"},{"visit":"WEEK 12","visitnum":"4.0","dtc":"2024-07-11","value":"122.4","unit":"mmHg"},{"visit":"WEEK 36","visitnum":"6.0","dtc":"2024-12-27","value":"125.0","unit":"mmHg"},{"visit":"WEEK 52","visitnum":"7.0","dtc":"2025-04-13","value":"126.7","unit":"mmHg"}],"TEMP":[{"visit":"SCREENING","visitnum":"1.0","dtc":"2024-03-28","value":"36.6","unit":"C"},{"visit":"RANDOMIZATION","visitnum":"2.0","dtc":"2024-04-20","value":"36.5","unit":"C"},{"visit":"WEEK 4","visitnum":"3.0","dtc":"2024-05-21","value":"36.8","unit":"C"},{"visit":"WEEK 12","visitnum":"4.0","dtc":"2024-07-11","value":"36.9","unit":"C"},{"visit":"WEEK 36","visitnum":"6.0","dtc":"2024-12-27","value":"36.8","unit":"C"},{"visit":"WEEK 52","visitnum":"7.0","dtc":"2025-04-13","value":"36.9","unit":"C"}],"WEIGHT":[{"visit":"SCREENING","visitnum":"1.0","dtc":"2024-03-28","value":"65.2","unit":"kg"},{"visit":"RANDOMIZATION","visitnum":"2.0","dtc":"2024-04-20","value":"63.3","unit":"kg"},{"visit":"WEEK 4","visitnum":"3.0","dtc":"2024-05-21","value":"62.4","unit":"kg"},{"visit":"WEEK 12","visitnum":"4.0","dtc":"2024-07-11","value":"59.7","unit":"kg"},{"visit":"WEEK 36","visitnum":"6.0","dtc":"2024-12-27","value":"58.6","unit":"kg"},{"visit":"WEEK 52","visitnum":"7.0","dtc":"2025-04-13","value":"59.4","unit":"kg"}]},"results":[{"seq":"1","testcd":"BMI","test":"BMI","cat":null,"orres":"24.5","orresu":"kg/m2","stresc":"24.5","stresn":"24.5","stresu":"kg/m2","stnrlo":null,"stnrhi":null,"nrind":null,"pos":null,"loc":null,"dtc":"2024-03-28","dy":"-23","visit":"SCREENING","visitnum":"1.0","epoch":"SCREENING"},{"seq":"2","testcd":"DIABP","test":"Diastolic Blood Pressure","cat":null,"orres":"85.0","orresu":"mmHg","stresc":"85.0","stresn":"85.0","stresu":"mmHg","stnrlo":null,"stnrhi":null,"nrind":null,"pos":null,"loc":null,"dtc":"2024-03-28","dy":"-23","visit":"SCREENING","visitnum":"1.0","epoch":"SCREENING"},{"seq":"3","testcd":"HEIGHT","test":"Height","cat":null,"orres":"163.1","orresu":"cm","stresc":"163.1","stresn":"163.1","stresu":"cm","stnrlo":null,"stnrhi":null,"nrind":null,"pos":null,"loc":null,"dtc":"2024-03-28","dy":"-23","visit":"SCREENING","visitnum":"1.0","epoch":"SCREENING"},{"seq":"4","testcd":"PULSE","test":"Pulse Rate","cat":null,"orres":"81.5","orresu":"beats/min","stresc":"81.5","stresn":"81.5","stresu":"beats/min","stnrlo":null,"stnrhi":null,"nrind":null,"pos":null,"loc":null,"dtc":"2024-03-28","dy":"-23","visit":"SCREENING","visitnum":"1.0","epoch":"SCREENING"},{"seq":"5","testcd":"RESP","test":"Respiratory Rate","cat":null,"orres":"17.8","orresu":"breaths/min","stresc":"17.8","stresn":"17.8","stresu":"breaths/min","stnrlo":null,"stnrhi":null,"nrind":null,"pos":null,"loc":null,"dtc":"2024-03-28","dy":"-23","visit":"SCREENING","visitnum":"1.0","epoch":"SCREENING"},{"seq":"6","testcd":"SYSBP","test":"Systolic Blood Pressure","cat":null,"orres":"121.3","orresu":"mmHg","stresc":"121.3","stresn":"121.3","stresu":"mmHg","stnrlo":null,"stnrhi":null,"nrind":null,"pos":null,"loc":null,"dtc":"2024-03-28","dy":"-23","visit":"SCREENING","visitnum":"1.0","epoch":"SCREENING"},{"seq":"7","testcd":"TEMP","test":"Temperature","cat":null,"orres":"36.6","orresu":"C","stresc":"36.6","stresn":"36.6","stresu":"C","stnrlo":null,"stnrhi":null,"nrind":null,"pos":null,"loc":null,"dtc":"2024-03-28","dy":"-23","visit":"SCREENING","visitnum":"1.0","epoch":"SCREENING"},{"seq":"8","testcd":"WEIGHT","test":"Weight","cat":null,"orres":"65.2","orresu":"kg","stresc":"65.2","stresn":"65.2","stresu":"kg","stnrlo":null,"stnrhi":null,"nrind":null,"pos":null,"loc":null,"dtc":"2024-03-28","dy":"-23","visit":"SCREENING","visitnum":"1.0","epoch":"SCREENING"},{"seq":"9","testcd":"BMI","test":"BMI","cat":null,"orres":"23.9","orresu":"kg/m2","stresc":"23.9","stresn":"23.9","stresu":"kg/m2","stnrlo":null,"stnrhi":null,"nrind":null,"pos":null,"loc":null,"dtc":"2024-04-20","dy":"1","visit":"RANDOMIZATION","visitnum":"2.0","epoch":"TREATMENT"},{"seq":"10","testcd":"DIABP","test":"Diastolic Blood Pressure","cat":null,"orres":"85.5","orresu":"mmHg","stresc":"85.5","stresn":"85.5","stresu":"mmHg","stnrlo":null,"stnrhi":null,"nrind":null,"pos":null,"loc":null,"dtc":"2024-04-20","dy":"1","visit":"RANDOMIZATION","visitnum":"2.0","epoch":"TREATMENT"},{"seq":"11","testcd":"HEIGHT","test":"Height","cat":null,"orres":"162.6","orresu":"cm","stresc":"162.6","stresn":"162.6","stresu":"cm","stnrlo":null,"stnrhi":null,"nrind":null,"pos":null,"loc":null,"dtc":"2024-04-20","dy":"1","visit":"RANDOMIZATION","visitnum":"2.0","epoch":"TREATMENT"},{"seq":"12","testcd":"PULSE","test":"Pulse Rate","cat":null,"orres":"78.8","orresu":"beats/min","stresc":"78.8","stresn":"78.8","stresu":"beats/min","stnrlo":null,"stnrhi":null,"nrind":null,"pos":null,"loc":null,"dtc":"2024-04-20","dy":"1","visit":"RANDOMIZATION","visitnum":"2.0","epoch":"TREATMENT"},{"seq":"13","testcd":"RESP","test":"Respiratory Rate","cat":null,"orres":"19.0","orresu":"breaths/min","stresc":"19.0","stresn":"19.0","stresu":"breaths/min","stnrlo":null,"stnrhi":null,"nrind":null,"pos":null,"loc":null,"dtc":"2024-04-20","dy":"1","visit":"RANDOMIZATION","visitnum":"2.0","epoch":"TREATMENT"},{"seq":"14","testcd":"SYSBP","test":"Systolic Blood Pressure","cat":null,"orres":"122.1","orresu":"mmHg","stresc":"122.1","stresn":"122.1","stresu":"mmHg","stnrlo":null,"stnrhi":null,"nrind":null,"pos":null,"loc":null,"dtc":"2024-04-20","dy":"1","visit":"RANDOMIZATION","visitnum":"2.0","epoch":"TREATMENT"},{"seq":"15","testcd":"TEMP","test":"Temperature","cat":null,"orres":"36.5","orresu":"C","stresc":"36.5","stresn":"36.5","stresu":"C","stnrlo":null,"stnrhi":null,"nrind":null,"pos":null,"loc":null,"dtc":"2024-04-20","dy":"1","visit":"RANDOMIZATION","visitnum":"2.0","epoch":"TREATMENT"},{"seq":"16","testcd":"WEIGHT","test":"Weight","cat":null,"orres":"63.3","orresu":"kg","stresc":"63.3","stresn":"63.3","stresu":"kg","stnrlo":null,"stnrhi":null,"nrind":null,"pos":null,"loc":null,"dtc":"2024-04-20","dy":"1","visit":"RANDOMIZATION","visitnum":"2.0","epoch":"TREATMENT"},{"seq":"17","testcd":"BMI","test":"BMI","cat":null,"orres":"23.5","orresu":"kg/m2","stresc":"23.5","stresn":"23.5","stresu":"kg/m2","stnrlo":null,"stnrhi":null,"nrind":null,"pos":null,"loc":null,"dtc":"2024-05-21","dy":"32","visit":"WEEK 4","visitnum":"3.0","epoch":"TREATMENT"},{"seq":"18","testcd":"DIABP","test":"Diastolic Blood Pressure","cat":null,"orres":"87.0","orresu":"mmHg","stresc":"87.0","stresn":"87.0","stresu":"mmHg","stnrlo":null,"stnrhi":null,"nrind":null,"pos":null,"loc":null,"dtc":"2024-05-21","dy":"32","visit":"WEEK 4","visitnum":"3.0","epoch":"TREATMENT"},{"seq":"19","testcd":"HEIGHT","test":"Height","cat":null,"orres":"162.8","orresu":"cm","stresc":"162.8","stresn":"162.8","stresu":"cm","stnrlo":null,"stnrhi":null,"nrind":null,"pos":null,"loc":null,"dtc":"2024-05-21","dy":"32","visit":"WEEK 4","visitnum":"3.0","epoch":"TREATMENT"},{"seq":"20","testcd":"PULSE","test":"Pulse Rate","cat":null,"orres":"77.7","orresu":"beats/min","stresc":"77.7","stresn":"77.7","stresu":"beats/min","stnrlo":null,"stnrhi":null,"nrind":null,"pos":null,"loc":null,"dtc":"2024-05-21","dy":"32","visit":"WEEK 4","visitnum":"3.0","epoch":"TREATMENT"},{"seq":"21","testcd":"RESP","test":"Respiratory Rate","cat":null,"orres":"18.4","orresu":"breaths/min","stresc":"18.4","stresn":"18.4","stresu":"breaths/min","stnrlo":null,"stnrhi":null,"nrind":null,"pos":null,"loc":null,"dtc":"2024-05-21","dy":"32","visit":"WEEK 4","visitnum":"3.0","epoch":"TREATMENT"},{"seq":"22","testcd":"SYSBP","test":"Systolic Blood Pressure","cat":null,"orres":null,"orresu":null,"stresc":null,"stresn":null,"stresu":null,"stnrlo":null,"stnrhi":null,"nrind":null,"pos":null,"loc":null,"dtc":"2024-05-21","dy":"32","visit":"WEEK 4","visitnum":"3.0","epoch":"TREATMENT"},{"seq":"23","testcd":"TEMP","test":"Temperature","cat":null,"orres":"36.8","orresu":"C","stresc":"36.8","stresn":"36.8","stresu":"C","stnrlo":null,"stnrhi":null,"nrind":null,"pos":null,"loc":null,"dtc":"2024-05-21","dy":"32","visit":"WEEK 4","visitnum":"3.0","epoch":"TREATMENT"},{"seq":"24","testcd":"WEIGHT","test":"Weight","cat":null,"orres":"62.4","orresu":"kg","stresc":"62.4","stresn":"62.4","stresu":"kg","stnrlo":null,"stnrhi":null,"nrind":null,"pos":null,"loc":null,"dtc":"2024-05-21","dy":"32","visit":"WEEK 4","visitnum":"3.0","epoch":"TREATMENT"},{"seq":"25","testcd":"BMI","test":"BMI","cat":null,"orres":"22.4","orresu":"kg/m2","stresc":"22.4","stresn":"22.4","stresu":"kg/m2","stnrlo":null,"stnrhi":null,"nrind":null,"pos":null,"loc":null,"dtc":"2024-07-11","dy":"83","visit":"WEEK 12","visitnum":"4.0","epoch":"TREATMENT"},{"seq":"26","testcd":"DIABP","test":"Diastolic Blood Pressure","cat":null,"orres":"87.0","orresu":"mmHg","stresc":"87.0","stresn":"87.0","stresu":"mmHg","stnrlo":null,"stnrhi":null,"nrind":null,"pos":null,"loc":null,"dtc":"2024-07-11","dy":"83","visit":"WEEK 12","visitnum":"4.0","epoch":"TREATMENT"},{"seq":"27","testcd":"HEIGHT","test":"Height","cat":null,"orres":"163.2","orresu":"cm","stresc":"163.2","stresn":"163.2","stresu":"cm","stnrlo":null,"stnrhi":null,"nrind":null,"pos":null,"loc":null,"dtc":"2024-07-11","dy":"83","visit":"WEEK 12","visitnum":"4.0","epoch":"TREATMENT"},{"seq":"28","testcd":"PULSE","test":"Pulse Rate","cat":null,"orres":"80.0","orresu":"beats/min","stresc":"80.0","stresn":"80.0","stresu":"beats/min","stnrlo":null,"stnrhi":null,"nrind":null,"pos":null,"loc":null,"dtc":"2024-07-11","dy":"83","visit":"WEEK 12","visitnum":"4.0","epoch":"TREATMENT"},{"seq":"29","testcd":"RESP","test":"Respiratory Rate","cat":null,"orres":"16.7","orresu":"breaths/min","stresc":"16.7","stresn":"16.7","stresu":"breaths/min","stnrlo":null,"stnrhi":null,"nrind":null,"pos":null,"loc":null,"dtc":"2024-07-11","dy":"83","visit":"WEEK 12","visitnum":"4.0","epoch":"TREATMENT"},{"seq":"30","testcd":"SYSBP","test":"Systolic Blood Pressure","cat":null,"orres":"122.4","orresu":"mmHg","stresc":"122.4","stresn":"122.4","stresu":"mmHg","stnrlo":null,"stnrhi":null,"nrind":null,"pos":null,"loc":null,"dtc":"2024-07-11","dy":"83","visit":"WEEK 12","visitnum":"4.0","epoch":"TREATMENT"},{"seq":"31","testcd":"TEMP","test":"Temperature","cat":null,"orres":"36.9","orresu":"C","stresc":"36.9","stresn":"36.9","stresu":"C","stnrlo":null,"stnrhi":null,"nrind":null,"pos":null,"loc":null,"dtc":"2024-07-11","dy":"83","visit":"WEEK 12","visitnum":"4.0","epoch":"TREATMENT"},{"seq":"32","testcd":"WEIGHT","test":"Weight","cat":null,"orres":"59.7","orresu":"kg","stresc":"59.7","stresn":"59.7","stresu":"kg","stnrlo":null,"stnrhi":null,"nrind":null,"pos":null,"loc":null,"dtc":"2024-07-11","dy":"83","visit":"WEEK 12","visitnum":"4.0","epoch":"TREATMENT"},{"seq":"33","testcd":"BMI","test":"BMI","cat":null,"orres":"22.3","orresu":"kg/m2","stresc":"22.3","stresn":"22.3","stresu":"kg/m2","stnrlo":null,"stnrhi":null,"nrind":null,"pos":null,"loc":null,"dtc":"2024-12-27","dy":"252","visit":"WEEK 36","visitnum":"6.0","epoch":"TREATMENT"},{"seq":"34","testcd":"DIABP","test":"Diastolic Blood Pressure","cat":null,"orres":"89.2","orresu":"mmHg","stresc":"89.2","stresn":"89.2","stresu":"mmHg","stnrlo":null,"stnrhi":null,"nrind":null,"pos":null,"loc":null,"dtc":"2024-12-27","dy":"252","visit":"WEEK 36","visitnum":"6.0","epoch":"TREATMENT"},{"seq":"35","testcd":"HEIGHT","test":"Height","cat":null,"orres":"162.1","orresu":"cm","stresc":"162.1","stresn":"162.1","stresu":"cm","stnrlo":null,"stnrhi":null,"nrind":null,"pos":null,"loc":null,"dtc":"2024-12-27","dy":"252","visit":"WEEK 36","visitnum":"6.0","epoch":"TREATMENT"},{"seq":"36","testcd":"PULSE","test":"Pulse Rate","cat":null,"orres":"82.3","orresu":"beats/min","stresc":"82.3","stresn":"82.3","stresu":"beats/min","stnrlo":null,"stnrhi":null,"nrind":null,"pos":null,"loc":null,"dtc":"2024-12-27","dy":"252","visit":"WEEK 36","visitnum":"6.0","epoch":"TREATMENT"},{"seq":"37","testcd":"RESP","test":"Respiratory Rate","cat":null,"orres":"17.8","orresu":"breaths/min","stresc":"17.8","stresn":"17.8","stresu":"breaths/min","stnrlo":null,"stnrhi":null,"nrind":null,"pos":null,"loc":null,"dtc":"2024-12-27","dy":"252","visit":"WEEK 36","visitnum":"6.0","epoch":"TREATMENT"},{"seq":"38","testcd":"SYSBP","test":"Systolic Blood Pressure","cat":null,"orres":"125.0","orresu":"mmHg","stresc":"125.0","stresn":"125.0","stresu":"mmHg","stnrlo":null,"stnrhi":null,"nrind":null,"pos":null,"loc":null,"dtc":"2024-12-27","dy":"252","visit":"WEEK 36","visitnum":"6.0","epoch":"TREATMENT"},{"seq":"39","testcd":"TEMP","test":"Temperature","cat":null,"orres":"36.8","orresu":"C","stresc":"36.8","stresn":"36.8","stresu":"C","stnrlo":null,"stnrhi":null,"nrind":null,"pos":null,"loc":null,"dtc":"2024-12-27","dy":"252","visit":"WEEK 36","visitnum":"6.0","epoch":"TREATMENT"},{"seq":"40","testcd":"WEIGHT","test":"Weight","cat":null,"orres":"58.6","orresu":"kg","stresc":"58.6","stresn":"58.6","stresu":"kg","stnrlo":null,"stnrhi":null,"nrind":null,"pos":null,"loc":null,"dtc":"2024-12-27","dy":"252","visit":"WEEK 36","visitnum":"6.0","epoch":"TREATMENT"},{"seq":"41","testcd":"BMI","test":"BMI","cat":null,"orres":"22.6","orresu":"kg/m2","stresc":"22.6","stresn":"22.6","stresu":"kg/m2","stnrlo":null,"stnrhi":null,"nrind":null,"pos":null,"loc":null,"dtc":"2025-04-13","dy":"359","visit":"WEEK 52","visitnum":"7.0","epoch":"TREATMENT"},{"seq":"42","testcd":"DIABP","test":"Diastolic Blood Pressure","cat":null,"orres":"90.6","orresu":"mmHg","stresc":"90.6","stresn":"90.6","stresu":"mmHg","stnrlo":null,"stnrhi":null,"nrind":null,"pos":null,"loc":null,"dtc":"2025-04-13","dy":"359","visit":"WEEK 52","visitnum":"7.0","epoch":"TREATMENT"},{"seq":"43","testcd":"HEIGHT","test":"Height","cat":null,"orres":"162.1","orresu":"cm","stresc":"162.1","stresn":"162.1","stresu":"cm","stnrlo":null,"stnrhi":null,"nrind":null,"pos":null,"loc":null,"dtc":"2025-04-13","dy":"359","visit":"WEEK 52","visitnum":"7.0","epoch":"TREATMENT"},{"seq":"44","testcd":"PULSE","test":"Pulse Rate","cat":null,"orres":"80.1","orresu":"beats/min","stresc":"80.1","stresn":"80.1","stresu":"beats/min","stnrlo":null,"stnrhi":null,"nrind":null,"pos":null,"loc":null,"dtc":"2025-04-13","dy":"359","visit":"WEEK 52","visitnum":"7.0","epoch":"TREATMENT"},{"seq":"45","testcd":"RESP","test":"Respiratory Rate","cat":null,"orres":"18.4","orresu":"breaths/min","stresc":"18.4","stresn":"18.4","stresu":"breaths/min","stnrlo":null,"stnrhi":null,"nrind":null,"pos":null,"loc":null,"dtc":"2025-04-13","dy":"359","visit":"WEEK 52","visitnum":"7.0","epoch":"TREATMENT"},{"seq":"46","testcd":"SYSBP","test":"Systolic Blood Pressure","cat":null,"orres":"126.7","orresu":"mmHg","stresc":"126.7","stresn":"126.7","stresu":"mmHg","stnrlo":null,"stnrhi":null,"nrind":null,"pos":null,"loc":null,"dtc":"2025-04-13","dy":"359","visit":"WEEK 52","visitnum":"7.0","epoch":"TREATMENT"},{"seq":"47","testcd":"TEMP","test":"Temperature","cat":null,"orres":"36.9","orresu":"C","stresc":"36.9","stresn":"36.9","stresu":"C","stnrlo":null,"stnrhi":null,"nrind":null,"pos":null,"loc":null,"dtc":"2025-04-13","dy":"359","visit":"WEEK 52","visitnum":"7.0","epoch":"TREATMENT"},{"seq":"48","testcd":"WEIGHT","test":"Weight","cat":null,"orres":"59.4","orresu":"kg","stresc":"59.4","stresn":"59.4","stresu":"kg","stnrlo":null,"stnrhi":null,"nrind":null,"pos":null,"loc":null,"dtc":"2025-04-13","dy":"359","visit":"WEEK 52","visitnum":"7.0","epoch":"TREATMENT"}]},"section_10_questionnaires_and_scores":{"questionnaires":[],"findings_about":[]},"section_11_protocol_deviations":{"deviations":[{"seq":"1","term":"Missed PLACEBO dose on 2024-04-21","decod":"MISSED DOSE","cat":"MINOR","scat":"DOSING","start_dtc":"2024-04-21","end_dtc":null,"visit":null},{"seq":"2","term":"Missed PLACEBO dose on 2024-05-20","decod":"MISSED DOSE","cat":"MINOR","scat":"DOSING","start_dtc":"2024-05-20","end_dtc":null,"visit":null},{"seq":"3","term":"Vital signs assessment not performed at WEEK 4","decod":"MISSED ASSESSMENT","cat":"MINOR","scat":"ASSESSMENT","start_dtc":"2024-05-21","end_dtc":null,"visit":null},{"seq":"4","term":"Missed PLACEBO dose on 2024-09-12","decod":"MISSED DOSE","cat":"MINOR","scat":"DOSING","start_dtc":"2024-09-12","end_dtc":null,"visit":null},{"seq":"5","term":"Missed PLACEBO dose on 2024-09-30","decod":"MISSED DOSE","cat":"MINOR","scat":"DOSING","start_dtc":"2024-09-30","end_dtc":null,"visit":null},{"seq":"6","term":"Missed PLACEBO dose on 2024-10-04","decod":"MISSED DOSE","cat":"MINOR","scat":"DOSING","start_dtc":"2024-10-04","end_dtc":null,"visit":null},{"seq":"7","term":"Missed PLACEBO dose on 2024-10-15","decod":"MISSED DOSE","cat":"MINOR","scat":"DOSING","start_dtc":"2024-10-15","end_dtc":null,"visit":null},{"seq":"8","term":"Missed PLACEBO dose on 2024-11-04","decod":"MISSED DOSE","cat":"MINOR","scat":"DOSING","start_dtc":"2024-11-04","end_dtc":null,"visit":null},{"seq":"9","term":"Missed PLACEBO dose on 2024-11-10","decod":"MISSED DOSE","cat":"MINOR","scat":"DOSING","start_dtc":"2024-11-10","end_dtc":null,"visit":null},{"seq":"10","term":"Missed PLACEBO dose on 2024-11-19","decod":"MISSED DOSE","cat":"MINOR","scat":"DOSING","start_dtc":"2024-11-19","end_dtc":null,"visit":null},{"seq":"11","term":"Visit WEEK 36 occurred 1 days early (Day 252 vs planned Day 253)","decod":"VISIT OCCURRED OUTSIDE VISIT WINDOW","cat":"MINOR","scat":"VISIT WINDOW","start_dtc":"2024-12-27","end_dtc":null,"visit":null}],"total":11},"section_12_disposition":{"completion_status":"COMPLETED","disposition_records":[{"seq":"1","term":"INFORMED CONSENT OBTAINED","decod":"INFORMED CONSENT OBTAINED","cat":"PROTOCOL MILESTONE","scat":null,"dtc":"2024-04-01","dy":null,"visit":null,"epoch":"SCREENING"},{"seq":"2","term":"RANDOMIZED","decod":"RANDOMIZED","cat":"PROTOCOL MILESTONE","scat":null,"dtc":"2024-04-20","dy":null,"visit":null,"epoch":"TREATMENT"},{"seq":"3","term":"COMPLETED","decod":"COMPLETED","cat":"DISPOSITION EVENT","scat":null,"dtc":"2025-06-01","dy":null,"visit":null,"epoch":"FOLLOW-UP"}],"death":null},"section_13_hospitalizations":{"items":[{"seq":"1","term":"Urinary tract infection","decod":"Urinary tract infection","cat":"HOSPITALIZATION","start_dtc":"2024-10-08","end_dtc":"2024-10-19","epoch":"TREATMENT"}],"total":1},"section_14_substance_use":{"items":[{"seq":"1","substance":"ALCOHOL","decod":"ALCOHOL","cat":"ALCOHOL","scat":null,"usage":"Y","dose":"12.0","dosu":"DRINKS/WEEK","freq":"QW","start_dtc":"1994-04-09","end_dtc":null},{"seq":"2","substance":"COFFEE","decod":"COFFEE","cat":"CAFFEINE","scat":null,"usage":"Y","dose":"1.0","dosu":"CUPS/DAY","freq":"QD","start_dtc":"2005-04-06","end_dtc":null},{"seq":"3","substance":"CIGARETTES","decod":"CIGARETTES","cat":"TOBACCO","scat":"CIGARETTES","usage":"Y","dose":null,"dosu":null,"freq":null,"start_dtc":"2004-04-06","end_dtc":"2010-04-05"}],"total":3},"section_15_subject_status":{"items":[{"seq":"1","testcd":"SURVSTAT","test":"Survival Status","orres":"ALIVE","stresc":"ALIVE","dtc":"2025-05-19","visit":"FOLLOW-UP","epoch":"FOLLOW-UP"}],"total":1}}