{"subject_id":"EMPEROR-HFPEF-SITE003-0006","study_id":"EMPEROR-HFPEF","generated_at":"2026-06-16T09:54:11.937101+00:00","sdtmig_version":"3.4","flags":{"has_serious_ae":false,"has_fatal_ae":false,"has_protocol_deviation":true,"n_protocol_deviations":2,"n_adverse_events":1,"n_concomitant_meds":1,"max_ae_severity":"MODERATE","screen_failure":false,"discontinued_early":true,"discontinuation_reason":"PROTOCOL VIOLATION","death":false,"exposure_days":23},"timeline":[{"dtc":"2024-01-20","dy":"-21","event":"INFORMED CONSENT OBTAINED","domain":"DS","category":"milestone"},{"dtc":"2024-01-27","dy":"-14","event":"VISIT: SCREENING","domain":"SV","category":"visit"},{"dtc":"2024-02-10","dy":"1","event":"RANDOMIZED","domain":"DS","category":"milestone"},{"dtc":"2024-02-10","dy":"1","event":"FIRST DOSE: EMPAGLIFLOZIN","domain":"EX","category":"exposure"},{"dtc":"2024-02-10","dy":"1","event":"VISIT: RANDOMIZATION","domain":"SV","category":"visit"},{"dtc":"2024-02-16","dy":"7","event":"DEVIATION: MISSED DOSE","domain":"DV","category":"deviation"},{"dtc":"2024-03-06","dy":"26","event":"DEVIATION: VISIT OCCURRED OUTSIDE VISIT WINDOW","domain":"DV","category":"deviation"},{"dtc":"2024-03-06","dy":"26","event":"VISIT: WEEK 4","domain":"SV","category":"visit"},{"dtc":"2024-03-16","dy":"36","event":"AE: Blood creatinine increased (MODERATE)","domain":"AE","category":"adverse_event"},{"dtc":"2024-03-16","dy":"36","event":"CM START: PARACETAMOL","domain":"CM","category":"concomitant_med"},{"dtc":"2024-03-18","dy":"38","event":"PROTOCOL VIOLATION","domain":"DS","category":"milestone"}],"section_1_demographics":{"usubjid":"EMPEROR-HFPEF-SITE003-0006","subjid":"0006","siteid":"SITE003","age":"23","ageu":"YEARS","sex":"F","race":"WHITE","ethnicity":"NOT HISPANIC OR LATINO","country":"USA","arm":"Empagliflozin 10mg QD","armcd":"EMPA10","actarm":"Empagliflozin 10mg QD","actarmcd":"EMPA10","randomization_date":null,"informed_consent_date":"2024-01-20","reference_start_date":"2024-02-10","reference_end_date":"2024-03-18","screen_failure":false,"death_flag":null,"death_date":null,"subject_characteristics":[{"testcd":"ALCUSE","test":"Alcohol Use","orres":"CURRENT DRINKER","stresc":"CURRENT DRINKER","visit":null,"dtc":"2024-01-20"},{"testcd":"BMI","test":"Body Mass Index","orres":"33.4","stresc":"33.4","visit":null,"dtc":"2024-01-20"},{"testcd":"DURDIS","test":"Duration of Disease","orres":"24 months","stresc":"24","visit":null,"dtc":"2024-01-20"},{"testcd":"TOBPKYR","test":"Tobacco Pack-Years","orres":"9","stresc":"9","visit":null,"dtc":"2024-01-20"},{"testcd":"TOBUSE","test":"Tobacco Use","orres":"CURRENT SMOKER","stresc":"CURRENT SMOKER","visit":null,"dtc":"2024-01-20"}]},"section_2_medical_history":{"items":[{"seq":"1","term":"DEPRESSION","decod":"DEPRESSION","cat":"PSYCHIATRIC","scat":null,"presp":null,"occur":null,"status":null,"onset_dtc":"2022-01-20","end_dtc":"2023-07-22","visit":null}]},"section_3_inclusion_exclusion":{"criteria":[]},"section_4_trial_participation":{"visits":[{"visitnum":"1.0","visit":"SCREENING","start_dtc":"2024-01-27","end_dtc":"2024-01-27","updes":null},{"visitnum":"2.0","visit":"RANDOMIZATION","start_dtc":"2024-02-10","end_dtc":"2024-02-10","updes":null},{"visitnum":"3.0","visit":"WEEK 4","start_dtc":"2024-03-06","end_dtc":"2024-03-06","updes":null}],"epochs":[{"seq":"1","etcd":"SCRN","element":"Screening","start_dtc":"2024-01-27","end_dtc":"2024-02-10","updes":null},{"seq":"2","etcd":"TRT","element":"Treatment","start_dtc":"2024-02-10","end_dtc":"2024-03-18","updes":null}],"visit_count":3},"section_5_concomitant_medications":{"medications":[{"seq":"1","trt":"PARACETAMOL","decod":"PARACETAMOL","cat":"CONCOMITANT","dose":"500","doseu":null,"dosef":"PRN","route":"ORAL","indication":"BLOOD CREATININE INCREASED","start_dtc":"2024-03-16","end_dtc":"2024-03-18","ongoing":null,"visit":null}]},"section_6_exposure":{"exposure_as_administered":[{"seq":"1","trt":"EMPAGLIFLOZIN","dose":"10.0","doseu":null,"dosef":"QD","route":"ORAL","lot":null,"start_dtc":"2024-02-10","end_dtc":"2024-03-04","start_dy":"1","end_dy":"24","epoch":"TREATMENT","visit":null}],"exposure_as_collected":[{"seq":"1","trt":"EMPAGLIFLOZIN","dose":"10.0","doseu":null,"dosef":"QD","route":"ORAL","start_dtc":"2024-02-10","end_dtc":"2024-02-10","visit":"RANDOMIZATION"},{"seq":"2","trt":"EMPAGLIFLOZIN","dose":"10.0","doseu":null,"dosef":"QD","route":"ORAL","start_dtc":"2024-02-11","end_dtc":"2024-02-11","visit":"RANDOMIZATION"},{"seq":"3","trt":"EMPAGLIFLOZIN","dose":"10.0","doseu":null,"dosef":"QD","route":"ORAL","start_dtc":"2024-02-12","end_dtc":"2024-02-12","visit":"RANDOMIZATION"},{"seq":"4","trt":"EMPAGLIFLOZIN","dose":"10.0","doseu":null,"dosef":"QD","route":"ORAL","start_dtc":"2024-02-13","end_dtc":"2024-02-13","visit":"RANDOMIZATION"},{"seq":"5","trt":"EMPAGLIFLOZIN","dose":"10.0","doseu":null,"dosef":"QD","route":"ORAL","start_dtc":"2024-02-14","end_dtc":"2024-02-14","visit":null},{"seq":"6","trt":"EMPAGLIFLOZIN","dose":"10.0","doseu":null,"dosef":"QD","route":"ORAL","start_dtc":"2024-02-15","end_dtc":"2024-02-15","visit":null},{"seq":"7","trt":"EMPAGLIFLOZIN","dose":null,"doseu":null,"dosef":"QD","route":"ORAL","start_dtc":"2024-02-16","end_dtc":"2024-02-16","visit":null},{"seq":"8","trt":"EMPAGLIFLOZIN","dose":"10.0","doseu":null,"dosef":"QD","route":"ORAL","start_dtc":"2024-02-17","end_dtc":"2024-02-17","visit":null},{"seq":"9","trt":"EMPAGLIFLOZIN","dose":"10.0","doseu":null,"dosef":"QD","route":"ORAL","start_dtc":"2024-02-18","end_dtc":"2024-02-18","visit":null},{"seq":"10","trt":"EMPAGLIFLOZIN","dose":"10.0","doseu":null,"dosef":"QD","route":"ORAL","start_dtc":"2024-02-19","end_dtc":"2024-02-19","visit":null},{"seq":"11","trt":"EMPAGLIFLOZIN","dose":"10.0","doseu":null,"dosef":"QD","route":"ORAL","start_dtc":"2024-02-20","end_dtc":"2024-02-20","visit":null},{"seq":"12","trt":"EMPAGLIFLOZIN","dose":"10.0","doseu":null,"dosef":"QD","route":"ORAL","start_dtc":"2024-02-21","end_dtc":"2024-02-21","visit":null},{"seq":"13","trt":"EMPAGLIFLOZIN","dose":"10.0","doseu":null,"dosef":"QD","route":"ORAL","start_dtc":"2024-02-22","end_dtc":"2024-02-22","visit":null},{"seq":"14","trt":"EMPAGLIFLOZIN","dose":"10.0","doseu":null,"dosef":"QD","route":"ORAL","start_dtc":"2024-02-23","end_dtc":"2024-02-23","visit":null},{"seq":"15","trt":"EMPAGLIFLOZIN","dose":"10.0","doseu":null,"dosef":"QD","route":"ORAL","start_dtc":"2024-02-24","end_dtc":"2024-02-24","visit":null},{"seq":"16","trt":"EMPAGLIFLOZIN","dose":"10.0","doseu":null,"dosef":"QD","route":"ORAL","start_dtc":"2024-02-25","end_dtc":"2024-02-25","visit":null},{"seq":"17","trt":"EMPAGLIFLOZIN","dose":"10.0","doseu":null,"dosef":"QD","route":"ORAL","start_dtc":"2024-02-26","end_dtc":"2024-02-26","visit":null},{"seq":"18","trt":"EMPAGLIFLOZIN","dose":"10.0","doseu":null,"dosef":"QD","route":"ORAL","start_dtc":"2024-02-27","end_dtc":"2024-02-27","visit":null},{"seq":"19","trt":"EMPAGLIFLOZIN","dose":"10.0","doseu":null,"dosef":"QD","route":"ORAL","start_dtc":"2024-02-28","end_dtc":"2024-02-28","visit":null},{"seq":"20","trt":"EMPAGLIFLOZIN","dose":"10.0","doseu":null,"dosef":"QD","route":"ORAL","start_dtc":"2024-02-29","end_dtc":"2024-02-29","visit":null},{"seq":"21","trt":"EMPAGLIFLOZIN","dose":"10.0","doseu":null,"dosef":"QD","route":"ORAL","start_dtc":"2024-03-01","end_dtc":"2024-03-01","visit":null},{"seq":"22","trt":"EMPAGLIFLOZIN","dose":"10.0","doseu":null,"dosef":"QD","route":"ORAL","start_dtc":"2024-03-02","end_dtc":"2024-03-02","visit":null},{"seq":"23","trt":"EMPAGLIFLOZIN","dose":"10.0","doseu":null,"dosef":"QD","route":"ORAL","start_dtc":"2024-03-03","end_dtc":"2024-03-03","visit":null},{"seq":"24","trt":"EMPAGLIFLOZIN","dose":"10.0","doseu":null,"dosef":"QD","route":"ORAL","start_dtc":"2024-03-04","end_dtc":"2024-03-04","visit":null}]},"section_7_adverse_events":{"summary":{"total_aes":1,"serious_aes":0,"fatal_aes":0,"by_severity":{"MODERATE":1},"by_soc":{"Investigations":1}},"events":[{"seq":"1","term":"BLOOD CREATININE INCREASED","decod":"Blood creatinine increased","llt":"Blood creatinine increased","hlt":"Renal function analyses","hlgt":"Renal and urinary tract investigations and urinalyses","soc":"Investigations","bodsys":"Investigations","severity":"MODERATE","serious":"N","causality":"POSSIBLY RELATED","action_taken":"DOSE NOT CHANGED","outcome":"RECOVERED/RESOLVED","fatal":"N","hospitalization":"N","life_threatening":"N","onset_dtc":"2024-03-16","end_dtc":"2024-03-18","onset_dy":"36","end_dy":"38","duration":null,"epoch":"TREATMENT","visit":null,"supplemental":{}}]},"section_8_laboratory_results":{"summary":{"total_records":21,"abnormal_count":1,"abnormal_pct":4.8},"shift_summary":[{"testcd":"ALT","baseline_value":29.48,"baseline_nrind":"NORMAL","worst_post_baseline_value":30.49,"worst_post_baseline_nrind":"NORMAL","worst_visit":"RANDOMIZATION"},{"testcd":"AST","baseline_value":17.9,"baseline_nrind":"NORMAL","worst_post_baseline_value":17.77,"worst_post_baseline_nrind":"NORMAL","worst_visit":"WEEK 4"},{"testcd":"CREAT","baseline_value":56.08,"baseline_nrind":"NORMAL","worst_post_baseline_value":58.74,"worst_post_baseline_nrind":"NORMAL","worst_visit":"WEEK 4"},{"testcd":"GLUC","baseline_value":4.05,"baseline_nrind":"NORMAL","worst_post_baseline_value":4.18,"worst_post_baseline_nrind":"NORMAL","worst_visit":"RANDOMIZATION"},{"testcd":"HGB","baseline_value":123.7,"baseline_nrind":"NORMAL","worst_post_baseline_value":125.04,"worst_post_baseline_nrind":"NORMAL","worst_visit":"RANDOMIZATION"},{"testcd":"PLAT","baseline_value":292.74,"baseline_nrind":"NORMAL","worst_post_baseline_value":303.52,"worst_post_baseline_nrind":"NORMAL","worst_visit":"RANDOMIZATION"},{"testcd":"WBC","baseline_value":3.17,"baseline_nrind":"LOW","worst_post_baseline_value":4.07,"worst_post_baseline_nrind":"NORMAL","worst_visit":"WEEK 4"}],"results":[{"seq":"1","testcd":"ALT","test":"Alanine Aminotransferase","cat":"CHEMISTRY","orres":"29.48","orresu":"U/L","stresc":"29.48","stresn":"29.48","stresu":"U/L","stnrlo":"7","stnrhi":"56","nrind":"NORMAL","fast":null,"dtc":"2024-01-27","dy":"-14","visit":"SCREENING","visitnum":"1.0","epoch":"SCREENING","spec":null,"method":null},{"seq":"2","testcd":"AST","test":"Aspartate Aminotransferase","cat":"CHEMISTRY","orres":"17.9","orresu":"U/L","stresc":"17.9","stresn":"17.9","stresu":"U/L","stnrlo":"10","stnrhi":"40","nrind":"NORMAL","fast":null,"dtc":"2024-01-27","dy":"-14","visit":"SCREENING","visitnum":"1.0","epoch":"SCREENING","spec":null,"method":null},{"seq":"3","testcd":"CREAT","test":"Creatinine","cat":"CHEMISTRY","orres":"56.08","orresu":"umol/L","stresc":"56.08","stresn":"56.08","stresu":"umol/L","stnrlo":"44","stnrhi":"80","nrind":"NORMAL","fast":null,"dtc":"2024-01-27","dy":"-14","visit":"SCREENING","visitnum":"1.0","epoch":"SCREENING","spec":null,"method":null},{"seq":"4","testcd":"GLUC","test":"Glucose","cat":"CHEMISTRY","orres":"4.05","orresu":"mmol/L","stresc":"4.05","stresn":"4.05","stresu":"mmol/L","stnrlo":"3.9","stnrhi":"5.6","nrind":"NORMAL","fast":null,"dtc":"2024-01-27","dy":"-14","visit":"SCREENING","visitnum":"1.0","epoch":"SCREENING","spec":null,"method":null},{"seq":"5","testcd":"HGB","test":"Hemoglobin","cat":"HEMATOLOGY","orres":"123.7","orresu":"g/L","stresc":"123.7","stresn":"123.7","stresu":"g/L","stnrlo":"120","stnrhi":"155","nrind":"NORMAL","fast":null,"dtc":"2024-01-27","dy":"-14","visit":"SCREENING","visitnum":"1.0","epoch":"SCREENING","spec":null,"method":null},{"seq":"6","testcd":"PLAT","test":"Platelets","cat":"HEMATOLOGY","orres":"292.74","orresu":"10^9/L","stresc":"292.74","stresn":"292.74","stresu":"10^9/L","stnrlo":"150","stnrhi":"400","nrind":"NORMAL","fast":null,"dtc":"2024-01-27","dy":"-14","visit":"SCREENING","visitnum":"1.0","epoch":"SCREENING","spec":null,"method":null},{"seq":"7","testcd":"WBC","test":"Leukocytes","cat":"HEMATOLOGY","orres":"3.17","orresu":"10^9/L","stresc":"3.17","stresn":"3.17","stresu":"10^9/L","stnrlo":"4.0","stnrhi":"11.0","nrind":"LOW","fast":null,"dtc":"2024-01-27","dy":"-14","visit":"SCREENING","visitnum":"1.0","epoch":"SCREENING","spec":null,"method":null},{"seq":"8","testcd":"ALT","test":"Alanine Aminotransferase","cat":"CHEMISTRY","orres":"30.49","orresu":"U/L","stresc":"30.49","stresn":"30.49","stresu":"U/L","stnrlo":"7","stnrhi":"56","nrind":"NORMAL","fast":null,"dtc":"2024-02-10","dy":"1","visit":"RANDOMIZATION","visitnum":"2.0","epoch":"TREATMENT","spec":null,"method":null},{"seq":"9","testcd":"AST","test":"Aspartate Aminotransferase","cat":"CHEMISTRY","orres":"15.91","orresu":"U/L","stresc":"15.91","stresn":"15.91","stresu":"U/L","stnrlo":"10","stnrhi":"40","nrind":"NORMAL","fast":null,"dtc":"2024-02-10","dy":"1","visit":"RANDOMIZATION","visitnum":"2.0","epoch":"TREATMENT","spec":null,"method":null},{"seq":"10","testcd":"CREAT","test":"Creatinine","cat":"CHEMISTRY","orres":"58.72","orresu":"umol/L","stresc":"58.72","stresn":"58.72","stresu":"umol/L","stnrlo":"44","stnrhi":"80","nrind":"NORMAL","fast":null,"dtc":"2024-02-10","dy":"1","visit":"RANDOMIZATION","visitnum":"2.0","epoch":"TREATMENT","spec":null,"method":null},{"seq":"11","testcd":"GLUC","test":"Glucose","cat":"CHEMISTRY","orres":"4.18","orresu":"mmol/L","stresc":"4.18","stresn":"4.18","stresu":"mmol/L","stnrlo":"3.9","stnrhi":"5.6","nrind":"NORMAL","fast":null,"dtc":"2024-02-10","dy":"1","visit":"RANDOMIZATION","visitnum":"2.0","epoch":"TREATMENT","spec":null,"method":null},{"seq":"12","testcd":"HGB","test":"Hemoglobin","cat":"HEMATOLOGY","orres":"125.04","orresu":"g/L","stresc":"125.04","stresn":"125.04","stresu":"g/L","stnrlo":"120","stnrhi":"155","nrind":"NORMAL","fast":null,"dtc":"2024-02-10","dy":"1","visit":"RANDOMIZATION","visitnum":"2.0","epoch":"TREATMENT","spec":null,"method":null},{"seq":"13","testcd":"PLAT","test":"Platelets","cat":"HEMATOLOGY","orres":"303.52","orresu":"10^9/L","stresc":"303.52","stresn":"303.52","stresu":"10^9/L","stnrlo":"150","stnrhi":"400","nrind":"NORMAL","fast":null,"dtc":"2024-02-10","dy":"1","visit":"RANDOMIZATION","visitnum":"2.0","epoch":"TREATMENT","spec":null,"method":null},{"seq":"14","testcd":"WBC","test":"Leukocytes","cat":"HEMATOLOGY","orres":null,"orresu":null,"stresc":null,"stresn":null,"stresu":null,"stnrlo":null,"stnrhi":null,"nrind":null,"fast":null,"dtc":"2024-02-10","dy":"1","visit":"RANDOMIZATION","visitnum":"2.0","epoch":"TREATMENT","spec":null,"method":null},{"seq":"15","testcd":"ALT","test":"Alanine Aminotransferase","cat":"CHEMISTRY","orres":"26.23","orresu":"U/L","stresc":"26.23","stresn":"26.23","stresu":"U/L","stnrlo":"7","stnrhi":"56","nrind":"NORMAL","fast":null,"dtc":"2024-03-06","dy":"26","visit":"WEEK 4","visitnum":"3.0","epoch":"TREATMENT","spec":null,"method":null},{"seq":"16","testcd":"AST","test":"Aspartate Aminotransferase","cat":"CHEMISTRY","orres":"17.77","orresu":"U/L","stresc":"17.77","stresn":"17.77","stresu":"U/L","stnrlo":"10","stnrhi":"40","nrind":"NORMAL","fast":null,"dtc":"2024-03-06","dy":"26","visit":"WEEK 4","visitnum":"3.0","epoch":"TREATMENT","spec":null,"method":null},{"seq":"17","testcd":"CREAT","test":"Creatinine","cat":"CHEMISTRY","orres":"58.74","orresu":"umol/L","stresc":"58.74","stresn":"58.74","stresu":"umol/L","stnrlo":"44","stnrhi":"80","nrind":"NORMAL","fast":null,"dtc":"2024-03-06","dy":"26","visit":"WEEK 4","visitnum":"3.0","epoch":"TREATMENT","spec":null,"method":null},{"seq":"18","testcd":"GLUC","test":"Glucose","cat":"CHEMISTRY","orres":"4.1","orresu":"mmol/L","stresc":"4.1","stresn":"4.1","stresu":"mmol/L","stnrlo":"3.9","stnrhi":"5.6","nrind":"NORMAL","fast":null,"dtc":"2024-03-06","dy":"26","visit":"WEEK 4","visitnum":"3.0","epoch":"TREATMENT","spec":null,"method":null},{"seq":"19","testcd":"HGB","test":"Hemoglobin","cat":"HEMATOLOGY","orres":"126.46","orresu":"g/L","stresc":"126.46","stresn":"126.46","stresu":"g/L","stnrlo":"120","stnrhi":"155","nrind":"NORMAL","fast":null,"dtc":"2024-03-06","dy":"26","visit":"WEEK 4","visitnum":"3.0","epoch":"TREATMENT","spec":null,"method":null},{"seq":"20","testcd":"PLAT","test":"Platelets","cat":"HEMATOLOGY","orres":"287.62","orresu":"10^9/L","stresc":"287.62","stresn":"287.62","stresu":"10^9/L","stnrlo":"150","stnrhi":"400","nrind":"NORMAL","fast":null,"dtc":"2024-03-06","dy":"26","visit":"WEEK 4","visitnum":"3.0","epoch":"TREATMENT","spec":null,"method":null},{"seq":"21","testcd":"WBC","test":"Leukocytes","cat":"HEMATOLOGY","orres":"4.07","orresu":"10^9/L","stresc":"4.07","stresn":"4.07","stresu":"10^9/L","stnrlo":"4.0","stnrhi":"11.0","nrind":"NORMAL","fast":null,"dtc":"2024-03-06","dy":"26","visit":"WEEK 4","visitnum":"3.0","epoch":"TREATMENT","spec":null,"method":null}]},"section_9_vital_signs":{"summary":{"total_records":24},"trends":{"BMI":[{"visit":"SCREENING","visitnum":"1.0","dtc":"2024-01-27","value":"33.4","unit":"kg/m2"},{"visit":"RANDOMIZATION","visitnum":"2.0","dtc":"2024-02-10","value":"33.8","unit":"kg/m2"},{"visit":"WEEK 4","visitnum":"3.0","dtc":"2024-03-06","value":"33.4","unit":"kg/m2"}],"DIABP":[{"visit":"SCREENING","visitnum":"1.0","dtc":"2024-01-27","value":"85.5","unit":"mmHg"},{"visit":"RANDOMIZATION","visitnum":"2.0","dtc":"2024-02-10","value":"84.4","unit":"mmHg"},{"visit":"WEEK 4","visitnum":"3.0","dtc":"2024-03-06","value":"85.2","unit":"mmHg"}],"HEIGHT":[{"visit":"SCREENING","visitnum":"1.0","dtc":"2024-01-27","value":"154.1","unit":"cm"},{"visit":"RANDOMIZATION","visitnum":"2.0","dtc":"2024-02-10","value":"153.0","unit":"cm"},{"visit":"WEEK 4","visitnum":"3.0","dtc":"2024-03-06","value":"153.0","unit":"cm"}],"PULSE":[{"visit":"SCREENING","visitnum":"1.0","dtc":"2024-01-27","value":"62.5","unit":"beats/min"},{"visit":"RANDOMIZATION","visitnum":"2.0","dtc":"2024-02-10","value":"65.2","unit":"beats/min"},{"visit":"WEEK 4","visitnum":"3.0","dtc":"2024-03-06","value":"66.7","unit":"beats/min"}],"RESP":[{"visit":"SCREENING","visitnum":"1.0","dtc":"2024-01-27","value":"15.4","unit":"breaths/min"},{"visit":"RANDOMIZATION","visitnum":"2.0","dtc":"2024-02-10","value":"15.0","unit":"breaths/min"},{"visit":"WEEK 4","visitnum":"3.0","dtc":"2024-03-06","value":"15.6","unit":"breaths/min"}],"SYSBP":[{"visit":"SCREENING","visitnum":"1.0","dtc":"2024-01-27","value":"115.0","unit":"mmHg"},{"visit":"RANDOMIZATION","visitnum":"2.0","dtc":"2024-02-10","value":"113.0","unit":"mmHg"},{"visit":"WEEK 4","visitnum":"3.0","dtc":"2024-03-06","value":"112.5","unit":"mmHg"}],"TEMP":[{"visit":"SCREENING","visitnum":"1.0","dtc":"2024-01-27","value":"37.4","unit":"C"},{"visit":"RANDOMIZATION","visitnum":"2.0","dtc":"2024-02-10","value":"37.3","unit":"C"},{"visit":"WEEK 4","visitnum":"3.0","dtc":"2024-03-06","value":"37.1","unit":"C"}],"WEIGHT":[{"visit":"SCREENING","visitnum":"1.0","dtc":"2024-01-27","value":"79.3","unit":"kg"},{"visit":"RANDOMIZATION","visitnum":"2.0","dtc":"2024-02-10","value":"79.1","unit":"kg"},{"visit":"WEEK 4","visitnum":"3.0","dtc":"2024-03-06","value":"78.2","unit":"kg"}]},"results":[{"seq":"1","testcd":"BMI","test":"BMI","cat":null,"orres":"33.4","orresu":"kg/m2","stresc":"33.4","stresn":"33.4","stresu":"kg/m2","stnrlo":null,"stnrhi":null,"nrind":null,"pos":null,"loc":null,"dtc":"2024-01-27","dy":"-14","visit":"SCREENING","visitnum":"1.0","epoch":"SCREENING"},{"seq":"2","testcd":"DIABP","test":"Diastolic Blood Pressure","cat":null,"orres":"85.5","orresu":"mmHg","stresc":"85.5","stresn":"85.5","stresu":"mmHg","stnrlo":null,"stnrhi":null,"nrind":null,"pos":null,"loc":null,"dtc":"2024-01-27","dy":"-14","visit":"SCREENING","visitnum":"1.0","epoch":"SCREENING"},{"seq":"3","testcd":"HEIGHT","test":"Height","cat":null,"orres":"154.1","orresu":"cm","stresc":"154.1","stresn":"154.1","stresu":"cm","stnrlo":null,"stnrhi":null,"nrind":null,"pos":null,"loc":null,"dtc":"2024-01-27","dy":"-14","visit":"SCREENING","visitnum":"1.0","epoch":"SCREENING"},{"seq":"4","testcd":"PULSE","test":"Pulse Rate","cat":null,"orres":"62.5","orresu":"beats/min","stresc":"62.5","stresn":"62.5","stresu":"beats/min","stnrlo":null,"stnrhi":null,"nrind":null,"pos":null,"loc":null,"dtc":"2024-01-27","dy":"-14","visit":"SCREENING","visitnum":"1.0","epoch":"SCREENING"},{"seq":"5","testcd":"RESP","test":"Respiratory Rate","cat":null,"orres":"15.4","orresu":"breaths/min","stresc":"15.4","stresn":"15.4","stresu":"breaths/min","stnrlo":null,"stnrhi":null,"nrind":null,"pos":null,"loc":null,"dtc":"2024-01-27","dy":"-14","visit":"SCREENING","visitnum":"1.0","epoch":"SCREENING"},{"seq":"6","testcd":"SYSBP","test":"Systolic Blood Pressure","cat":null,"orres":"115.0","orresu":"mmHg","stresc":"115.0","stresn":"115.0","stresu":"mmHg","stnrlo":null,"stnrhi":null,"nrind":null,"pos":null,"loc":null,"dtc":"2024-01-27","dy":"-14","visit":"SCREENING","visitnum":"1.0","epoch":"SCREENING"},{"seq":"7","testcd":"TEMP","test":"Temperature","cat":null,"orres":"37.4","orresu":"C","stresc":"37.4","stresn":"37.4","stresu":"C","stnrlo":null,"stnrhi":null,"nrind":null,"pos":null,"loc":null,"dtc":"2024-01-27","dy":"-14","visit":"SCREENING","visitnum":"1.0","epoch":"SCREENING"},{"seq":"8","testcd":"WEIGHT","test":"Weight","cat":null,"orres":"79.3","orresu":"kg","stresc":"79.3","stresn":"79.3","stresu":"kg","stnrlo":null,"stnrhi":null,"nrind":null,"pos":null,"loc":null,"dtc":"2024-01-27","dy":"-14","visit":"SCREENING","visitnum":"1.0","epoch":"SCREENING"},{"seq":"9","testcd":"BMI","test":"BMI","cat":null,"orres":"33.8","orresu":"kg/m2","stresc":"33.8","stresn":"33.8","stresu":"kg/m2","stnrlo":null,"stnrhi":null,"nrind":null,"pos":null,"loc":null,"dtc":"2024-02-10","dy":"1","visit":"RANDOMIZATION","visitnum":"2.0","epoch":"TREATMENT"},{"seq":"10","testcd":"DIABP","test":"Diastolic Blood Pressure","cat":null,"orres":"84.4","orresu":"mmHg","stresc":"84.4","stresn":"84.4","stresu":"mmHg","stnrlo":null,"stnrhi":null,"nrind":null,"pos":null,"loc":null,"dtc":"2024-02-10","dy":"1","visit":"RANDOMIZATION","visitnum":"2.0","epoch":"TREATMENT"},{"seq":"11","testcd":"HEIGHT","test":"Height","cat":null,"orres":"153.0","orresu":"cm","stresc":"153.0","stresn":"153.0","stresu":"cm","stnrlo":null,"stnrhi":null,"nrind":null,"pos":null,"loc":null,"dtc":"2024-02-10","dy":"1","visit":"RANDOMIZATION","visitnum":"2.0","epoch":"TREATMENT"},{"seq":"12","testcd":"PULSE","test":"Pulse Rate","cat":null,"orres":"65.2","orresu":"beats/min","stresc":"65.2","stresn":"65.2","stresu":"beats/min","stnrlo":null,"stnrhi":null,"nrind":null,"pos":null,"loc":null,"dtc":"2024-02-10","dy":"1","visit":"RANDOMIZATION","visitnum":"2.0","epoch":"TREATMENT"},{"seq":"13","testcd":"RESP","test":"Respiratory Rate","cat":null,"orres":"15.0","orresu":"breaths/min","stresc":"15.0","stresn":"15.0","stresu":"breaths/min","stnrlo":null,"stnrhi":null,"nrind":null,"pos":null,"loc":null,"dtc":"2024-02-10","dy":"1","visit":"RANDOMIZATION","visitnum":"2.0","epoch":"TREATMENT"},{"seq":"14","testcd":"SYSBP","test":"Systolic Blood Pressure","cat":null,"orres":"113.0","orresu":"mmHg","stresc":"113.0","stresn":"113.0","stresu":"mmHg","stnrlo":null,"stnrhi":null,"nrind":null,"pos":null,"loc":null,"dtc":"2024-02-10","dy":"1","visit":"RANDOMIZATION","visitnum":"2.0","epoch":"TREATMENT"},{"seq":"15","testcd":"TEMP","test":"Temperature","cat":null,"orres":"37.3","orresu":"C","stresc":"37.3","stresn":"37.3","stresu":"C","stnrlo":null,"stnrhi":null,"nrind":null,"pos":null,"loc":null,"dtc":"2024-02-10","dy":"1","visit":"RANDOMIZATION","visitnum":"2.0","epoch":"TREATMENT"},{"seq":"16","testcd":"WEIGHT","test":"Weight","cat":null,"orres":"79.1","orresu":"kg","stresc":"79.1","stresn":"79.1","stresu":"kg","stnrlo":null,"stnrhi":null,"nrind":null,"pos":null,"loc":null,"dtc":"2024-02-10","dy":"1","visit":"RANDOMIZATION","visitnum":"2.0","epoch":"TREATMENT"},{"seq":"17","testcd":"BMI","test":"BMI","cat":null,"orres":"33.4","orresu":"kg/m2","stresc":"33.4","stresn":"33.4","stresu":"kg/m2","stnrlo":null,"stnrhi":null,"nrind":null,"pos":null,"loc":null,"dtc":"2024-03-06","dy":"26","visit":"WEEK 4","visitnum":"3.0","epoch":"TREATMENT"},{"seq":"18","testcd":"DIABP","test":"Diastolic Blood Pressure","cat":null,"orres":"85.2","orresu":"mmHg","stresc":"85.2","stresn":"85.2","stresu":"mmHg","stnrlo":null,"stnrhi":null,"nrind":null,"pos":null,"loc":null,"dtc":"2024-03-06","dy":"26","visit":"WEEK 4","visitnum":"3.0","epoch":"TREATMENT"},{"seq":"19","testcd":"HEIGHT","test":"Height","cat":null,"orres":"153.0","orresu":"cm","stresc":"153.0","stresn":"153.0","stresu":"cm","stnrlo":null,"stnrhi":null,"nrind":null,"pos":null,"loc":null,"dtc":"2024-03-06","dy":"26","visit":"WEEK 4","visitnum":"3.0","epoch":"TREATMENT"},{"seq":"20","testcd":"PULSE","test":"Pulse Rate","cat":null,"orres":"66.7","orresu":"beats/min","stresc":"66.7","stresn":"66.7","stresu":"beats/min","stnrlo":null,"stnrhi":null,"nrind":null,"pos":null,"loc":null,"dtc":"2024-03-06","dy":"26","visit":"WEEK 4","visitnum":"3.0","epoch":"TREATMENT"},{"seq":"21","testcd":"RESP","test":"Respiratory Rate","cat":null,"orres":"15.6","orresu":"breaths/min","stresc":"15.6","stresn":"15.6","stresu":"breaths/min","stnrlo":null,"stnrhi":null,"nrind":null,"pos":null,"loc":null,"dtc":"2024-03-06","dy":"26","visit":"WEEK 4","visitnum":"3.0","epoch":"TREATMENT"},{"seq":"22","testcd":"SYSBP","test":"Systolic Blood Pressure","cat":null,"orres":"112.5","orresu":"mmHg","stresc":"112.5","stresn":"112.5","stresu":"mmHg","stnrlo":null,"stnrhi":null,"nrind":null,"pos":null,"loc":null,"dtc":"2024-03-06","dy":"26","visit":"WEEK 4","visitnum":"3.0","epoch":"TREATMENT"},{"seq":"23","testcd":"TEMP","test":"Temperature","cat":null,"orres":"37.1","orresu":"C","stresc":"37.1","stresn":"37.1","stresu":"C","stnrlo":null,"stnrhi":null,"nrind":null,"pos":null,"loc":null,"dtc":"2024-03-06","dy":"26","visit":"WEEK 4","visitnum":"3.0","epoch":"TREATMENT"},{"seq":"24","testcd":"WEIGHT","test":"Weight","cat":null,"orres":"78.2","orresu":"kg","stresc":"78.2","stresn":"78.2","stresu":"kg","stnrlo":null,"stnrhi":null,"nrind":null,"pos":null,"loc":null,"dtc":"2024-03-06","dy":"26","visit":"WEEK 4","visitnum":"3.0","epoch":"TREATMENT"}]},"section_10_questionnaires_and_scores":{"questionnaires":[],"findings_about":[]},"section_11_protocol_deviations":{"deviations":[{"seq":"1","term":"Missed EMPAGLIFLOZIN dose on 2024-02-16","decod":"MISSED DOSE","cat":"MINOR","scat":"DOSING","start_dtc":"2024-02-16","end_dtc":null,"visit":null},{"seq":"2","term":"Visit WEEK 4 occurred 3 days early (Day 26 vs planned Day 29)","decod":"VISIT OCCURRED OUTSIDE VISIT WINDOW","cat":"MINOR","scat":"VISIT WINDOW","start_dtc":"2024-03-06","end_dtc":null,"visit":null}],"total":2},"section_12_disposition":{"completion_status":"INFORMED CONSENT OBTAINED","disposition_records":[{"seq":"1","term":"INFORMED CONSENT OBTAINED","decod":"INFORMED CONSENT OBTAINED","cat":"PROTOCOL MILESTONE","scat":null,"dtc":"2024-01-20","dy":null,"visit":null,"epoch":"SCREENING"},{"seq":"2","term":"RANDOMIZED","decod":"RANDOMIZED","cat":"PROTOCOL MILESTONE","scat":null,"dtc":"2024-02-10","dy":null,"visit":null,"epoch":"TREATMENT"},{"seq":"3","term":"PROTOCOL VIOLATION","decod":"PROTOCOL VIOLATION","cat":"DISPOSITION EVENT","scat":null,"dtc":"2024-03-18","dy":null,"visit":null,"epoch":"TREATMENT"}],"death":null},"section_13_hospitalizations":{"items":[],"total":0},"section_14_substance_use":{"items":[{"seq":"1","substance":"ALCOHOL","decod":"ALCOHOL","cat":"ALCOHOL","scat":null,"usage":"Y","dose":"9.0","dosu":"DRINKS/WEEK","freq":"QW","start_dtc":"2004-01-25","end_dtc":null},{"seq":"2","substance":"COFFEE","decod":"COFFEE","cat":"CAFFEINE","scat":null,"usage":"N","dose":null,"dosu":null,"freq":null,"start_dtc":null,"end_dtc":null},{"seq":"3","substance":"CIGARETTES","decod":"CIGARETTES","cat":"TOBACCO","scat":"CIGARETTES","usage":"Y","dose":"6.0","dosu":"CIGARETTES/DAY","freq":"QD","start_dtc":"2015-01-22","end_dtc":null}],"total":3},"section_15_subject_status":{"items":[],"total":0}}