{"subject_id":"VISION-NSCLC-SITE003-0168","study_id":"VISION-NSCLC","generated_at":"2026-06-09T04:14:35.058520+00:00","sdtmig_version":"3.4","flags":{"has_serious_ae":false,"has_fatal_ae":false,"has_protocol_deviation":false,"n_protocol_deviations":0,"n_adverse_events":0,"n_concomitant_meds":0,"max_ae_severity":null,"screen_failure":true,"discontinued_early":true,"discontinuation_reason":"ELIGIBILITY CRITERIA NOT MET","death":false},"timeline":[{"dtc":"2024-02-11","dy":null,"event":"INFORMED CONSENT OBTAINED","domain":"DS","category":"milestone"},{"dtc":"2024-02-11","dy":null,"event":"VISIT: SCREENING","domain":"SV","category":"visit"},{"dtc":"2024-03-05","dy":null,"event":"ELIGIBILITY CRITERIA NOT MET","domain":"DS","category":"milestone"}],"section_1_demographics":{"usubjid":"VISION-NSCLC-SITE003-0168","subjid":"0168","siteid":"SITE003","age":"23","ageu":"YEARS","sex":"M","race":"WHITE","ethnicity":"HISPANIC OR LATINO","country":"USA","arm":null,"armcd":null,"actarm":null,"actarmcd":null,"randomization_date":null,"informed_consent_date":"2024-02-11","reference_start_date":null,"reference_end_date":null,"screen_failure":true,"death_flag":null,"death_date":null},"section_2_medical_history":{"items":[]},"section_3_inclusion_exclusion":{"criteria":[{"seq":"1","testcd":"EXCL04","test":"Subject has uncontrolled concurrent illness","category":"EXCLUSION","orres":"Y","stresc":"Y","visit":"SCREENING","dtc":"2024-02-11"}]},"section_4_trial_participation":{"visits":[{"visitnum":"1.0","visit":"SCREENING","start_dtc":"2024-02-11","end_dtc":"2024-02-11","updes":null}],"epochs":[],"visit_count":1},"section_5_concomitant_medications":{"medications":[]},"section_6_exposure":{"exposure_as_administered":[],"exposure_as_collected":[]},"section_7_adverse_events":{"summary":{"total_aes":0,"serious_aes":0,"fatal_aes":0,"by_severity":{},"by_soc":{}},"events":[]},"section_8_laboratory_results":{"results":[]},"section_9_vital_signs":{"results":[]},"section_10_questionnaires_and_scores":{"questionnaires":[],"findings_about":[]},"section_11_protocol_deviations":{"deviations":[],"total":0},"section_12_disposition":{"completion_status":"INFORMED CONSENT OBTAINED","disposition_records":[{"seq":"1","term":"INFORMED CONSENT OBTAINED","decod":"INFORMED CONSENT OBTAINED","cat":"PROTOCOL MILESTONE","scat":null,"dtc":"2024-02-11","dy":null,"visit":null,"epoch":"SCREENING"},{"seq":"2","term":"ELIGIBILITY CRITERIA NOT MET","decod":"ELIGIBILITY CRITERIA NOT MET","cat":"PROTOCOL MILESTONE","scat":null,"dtc":"2024-03-05","dy":null,"visit":null,"epoch":"SCREENING"}],"death":null},"section_13_hospitalizations":{"items":[],"total":0},"section_14_substance_use":{"items":[],"total":0},"section_15_subject_status":{"items":[],"total":0}}