{"subject_id":"EMPEROR-HFPEF-SITE001-0034","study_id":"EMPEROR-HFPEF","generated_at":"2026-06-16T10:45:51.801897+00:00","sdtmig_version":"3.4","flags":{"has_serious_ae":true,"has_fatal_ae":false,"has_protocol_deviation":true,"n_protocol_deviations":15,"n_adverse_events":23,"n_concomitant_meds":15,"max_ae_severity":"SEVERE","screen_failure":false,"discontinued_early":false,"discontinuation_reason":null,"death":false,"exposure_days":162},"timeline":[{"dtc":"2016-04-11","dy":"-2940","event":"CM START: METFORMIN","domain":"CM","category":"concomitant_med"},{"dtc":"2022-04-10","dy":"-750","event":"CM START: SERTRALINE","domain":"CM","category":"concomitant_med"},{"dtc":"2024-04-09","dy":"-20","event":"INFORMED CONSENT OBTAINED","domain":"DS","category":"milestone"},{"dtc":"2024-04-10","dy":"-19","event":"VISIT: SCREENING","domain":"SV","category":"visit"},{"dtc":"2024-04-29","dy":"1","event":"RANDOMIZED","domain":"DS","category":"milestone"},{"dtc":"2024-04-29","dy":"1","event":"FIRST DOSE: EMPAGLIFLOZIN","domain":"EX","category":"exposure"},{"dtc":"2024-04-29","dy":"1","event":"VISIT: RANDOMIZATION","domain":"SV","category":"visit"},{"dtc":"2024-05-05","dy":"7","event":"DEVIATION: MISSED DOSE","domain":"DV","category":"deviation"},{"dtc":"2024-05-13","dy":"15","event":"AE: Headache (SEVERE) [SERIOUS]","domain":"AE","category":"adverse_event"},{"dtc":"2024-05-13","dy":"15","event":"CM START: PARACETAMOL","domain":"CM","category":"concomitant_med"},{"dtc":"2024-05-26","dy":"28","event":"DEVIATION: MISSED DOSE","domain":"DV","category":"deviation"},{"dtc":"2024-05-30","dy":"32","event":"VISIT: WEEK 4","domain":"SV","category":"visit"},{"dtc":"2024-06-09","dy":"42","event":"AE: Headache (MILD)","domain":"AE","category":"adverse_event"},{"dtc":"2024-06-09","dy":"42","event":"CM START: PARACETAMOL","domain":"CM","category":"concomitant_med"},{"dtc":"2024-06-12","dy":"45","event":"AE: Atrial fibrillation (MILD)","domain":"AE","category":"adverse_event"},{"dtc":"2024-06-12","dy":"45","event":"CM START: IBUPROFEN","domain":"CM","category":"concomitant_med"},{"dtc":"2024-06-29","dy":"62","event":"DEVIATION: MISSED DOSE","domain":"DV","category":"deviation"},{"dtc":"2024-07-06","dy":"69","event":"AE: Hypotension (MODERATE)","domain":"AE","category":"adverse_event"},{"dtc":"2024-07-06","dy":"69","event":"DEVIATION: MISSED DOSE","domain":"DV","category":"deviation"},{"dtc":"2024-07-09","dy":"72","event":"AE: Cardiac failure (SEVERE) [SERIOUS]","domain":"AE","category":"adverse_event"},{"dtc":"2024-07-09","dy":"72","event":"CM START: PARACETAMOL","domain":"CM","category":"concomitant_med"},{"dtc":"2024-07-10","dy":"73","event":"AE: Blood creatinine increased (SEVERE) [SERIOUS]","domain":"AE","category":"adverse_event"},{"dtc":"2024-07-10","dy":"73","event":"CM START: PARACETAMOL","domain":"CM","category":"concomitant_med"},{"dtc":"2024-07-12","dy":"75","event":"DEVIATION: MISSED DOSE","domain":"DV","category":"deviation"},{"dtc":"2024-07-21","dy":"84","event":"DEVIATION: MISSED DOSE","domain":"DV","category":"deviation"},{"dtc":"2024-07-29","dy":"92","event":"VISIT: WEEK 12","domain":"SV","category":"visit"},{"dtc":"2024-08-03","dy":"97","event":"DEVIATION: MISSED DOSE","domain":"DV","category":"deviation"},{"dtc":"2024-08-04","dy":"98","event":"AE: Urinary tract infection (SEVERE) [SERIOUS]","domain":"AE","category":"adverse_event"},{"dtc":"2024-08-04","dy":"98","event":"DEVIATION: MISSED DOSE","domain":"DV","category":"deviation"},{"dtc":"2024-08-04","dy":"98","event":"CM START: NITROFURANTOIN","domain":"CM","category":"concomitant_med"},{"dtc":"2024-08-13","dy":"107","event":"DEVIATION: MISSED DOSE","domain":"DV","category":"deviation"},{"dtc":"2024-09-02","dy":"127","event":"DEVIATION: MISSED DOSE","domain":"DV","category":"deviation"},{"dtc":"2024-09-12","dy":"137","event":"DEVIATION: MISSED DOSE","domain":"DV","category":"deviation"},{"dtc":"2024-09-13","dy":"138","event":"DEVIATION: MISSED DOSE","domain":"DV","category":"deviation"},{"dtc":"2024-09-19","dy":"144","event":"DEVIATION: MISSED DOSE","domain":"DV","category":"deviation"},{"dtc":"2024-10-03","dy":"158","event":"AE: Dehydration (MILD)","domain":"AE","category":"adverse_event"},{"dtc":"2024-10-03","dy":"158","event":"CM START: ORAL REHYDRATION SALTS","domain":"CM","category":"concomitant_med"},{"dtc":"2024-10-05","dy":"160","event":"AE: Nausea (SEVERE) [SERIOUS]","domain":"AE","category":"adverse_event"},{"dtc":"2024-10-05","dy":"160","event":"CM START: METOCLOPRAMIDE","domain":"CM","category":"concomitant_med"},{"dtc":"2024-10-08","dy":"163","event":"LAST DOSE: EMPAGLIFLOZIN","domain":"EX","category":"exposure"},{"dtc":"2024-10-08","dy":"163","event":"DEVIATION: DOSE MODIFICATION","domain":"DV","category":"deviation"},{"dtc":"2024-10-10","dy":"165","event":"DEVIATION: VISIT OCCURRED OUTSIDE VISIT WINDOW","domain":"DV","category":"deviation"},{"dtc":"2024-10-10","dy":"165","event":"VISIT: WEEK 24","domain":"SV","category":"visit"},{"dtc":"2024-10-31","dy":"186","event":"AE: Nausea (MILD)","domain":"AE","category":"adverse_event"},{"dtc":"2024-11-05","dy":"191","event":"AE: Dizziness (MILD)","domain":"AE","category":"adverse_event"},{"dtc":"2024-11-05","dy":"191","event":"CM START: MECLIZINE","domain":"CM","category":"concomitant_med"},{"dtc":"2024-11-17","dy":"203","event":"AE: Dizziness (MILD)","domain":"AE","category":"adverse_event"},{"dtc":"2024-11-26","dy":"212","event":"AE: Blood creatinine increased (MILD)","domain":"AE","category":"adverse_event"},{"dtc":"2024-12-07","dy":"223","event":"AE: Cardiac failure (SEVERE) [SERIOUS]","domain":"AE","category":"adverse_event"},{"dtc":"2024-12-07","dy":"223","event":"CM START: IBUPROFEN","domain":"CM","category":"concomitant_med"},{"dtc":"2024-12-17","dy":"233","event":"AE: Cardiac failure (MILD)","domain":"AE","category":"adverse_event"},{"dtc":"2024-12-31","dy":"247","event":"AE: Dizziness (MILD)","domain":"AE","category":"adverse_event"},{"dtc":"2024-12-31","dy":"247","event":"VISIT: WEEK 36","domain":"SV","category":"visit"},{"dtc":"2025-01-06","dy":"253","event":"AE: Genital infection fungal (MILD)","domain":"AE","category":"adverse_event"},{"dtc":"2025-01-28","dy":"275","event":"AE: Dizziness (MODERATE)","domain":"AE","category":"adverse_event"},{"dtc":"2025-01-30","dy":"277","event":"AE: Nausea (MODERATE)","domain":"AE","category":"adverse_event"},{"dtc":"2025-01-30","dy":"277","event":"CM START: ONDANSETRON","domain":"CM","category":"concomitant_med"},{"dtc":"2025-02-06","dy":"284","event":"AE: Genital infection fungal (MILD)","domain":"AE","category":"adverse_event"},{"dtc":"2025-03-01","dy":"307","event":"AE: Acute kidney injury (MODERATE)","domain":"AE","category":"adverse_event"},{"dtc":"2025-03-05","dy":"311","event":"AE: Atrial fibrillation (MILD)","domain":"AE","category":"adverse_event"},{"dtc":"2025-03-05","dy":"311","event":"CM START: PARACETAMOL","domain":"CM","category":"concomitant_med"},{"dtc":"2025-03-07","dy":"313","event":"AE: Nausea (SEVERE) [SERIOUS]","domain":"AE","category":"adverse_event"},{"dtc":"2025-03-07","dy":"313","event":"CM START: METOCLOPRAMIDE","domain":"CM","category":"concomitant_med"},{"dtc":"2025-05-02","dy":"369","event":"VISIT: WEEK 52","domain":"SV","category":"visit"},{"dtc":"2025-06-04","dy":"402","event":"VISIT: FOLLOW-UP","domain":"SV","category":"visit"},{"dtc":"2025-06-10","dy":"408","event":"COMPLETED","domain":"DS","category":"milestone"}],"section_1_demographics":{"usubjid":"EMPEROR-HFPEF-SITE001-0034","subjid":"0034","siteid":"SITE001","age":"59","ageu":"YEARS","sex":"M","race":"WHITE","ethnicity":"HISPANIC OR LATINO","country":"USA","arm":"Empagliflozin 10mg QD","armcd":"EMPA10","actarm":"Empagliflozin 10mg QD","actarmcd":"EMPA10","randomization_date":null,"informed_consent_date":"2024-04-09","reference_start_date":"2024-04-29","reference_end_date":"2025-06-10","screen_failure":false,"death_flag":null,"death_date":null,"subject_characteristics":[{"testcd":"ALCUSE","test":"Alcohol Use","orres":"CURRENT DRINKER","stresc":"CURRENT DRINKER","visit":null,"dtc":"2024-04-09"},{"testcd":"BMI","test":"Body Mass Index","orres":"22.9","stresc":"22.9","visit":null,"dtc":"2024-04-09"},{"testcd":"DURDIS","test":"Duration of Disease","orres":"97 months","stresc":"97","visit":null,"dtc":"2024-04-09"},{"testcd":"TOBPKYR","test":"Tobacco Pack-Years","orres":"12","stresc":"12","visit":null,"dtc":"2024-04-09"},{"testcd":"TOBUSE","test":"Tobacco Use","orres":"FORMER SMOKER","stresc":"FORMER SMOKER","visit":null,"dtc":"2024-04-09"}]},"section_2_medical_history":{"items":[{"seq":"1","term":"ASTHMA","decod":"ASTHMA","cat":"RESPIRATORY","scat":null,"presp":null,"occur":null,"status":null,"onset_dtc":"2018-04-11","end_dtc":"2020-09-12","visit":null},{"seq":"2","term":"DEPRESSION","decod":"DEPRESSION","cat":"PSYCHIATRIC","scat":null,"presp":null,"occur":null,"status":null,"onset_dtc":"2022-04-10","end_dtc":null,"visit":null},{"seq":"3","term":"DIABETES MELLITUS TYPE 2","decod":"DIABETES MELLITUS TYPE 2","cat":"ENDOCRINE","scat":null,"presp":null,"occur":null,"status":null,"onset_dtc":"2016-04-11","end_dtc":null,"visit":null},{"seq":"4","term":"HYPERLIPIDEMIA","decod":"HYPERLIPIDEMIA","cat":"METABOLIC","scat":null,"presp":null,"occur":null,"status":null,"onset_dtc":"2018-04-11","end_dtc":"2023-06-22","visit":null},{"seq":"5","term":"HYPERTENSION","decod":"HYPERTENSION","cat":"CARDIOVASCULAR","scat":null,"presp":null,"occur":null,"status":null,"onset_dtc":"2017-04-11","end_dtc":"2024-02-20","visit":null}]},"section_3_inclusion_exclusion":{"criteria":[]},"section_4_trial_participation":{"visits":[{"visitnum":"1.0","visit":"SCREENING","start_dtc":"2024-04-10","end_dtc":"2024-04-10","updes":null},{"visitnum":"2.0","visit":"RANDOMIZATION","start_dtc":"2024-04-29","end_dtc":"2024-04-29","updes":null},{"visitnum":"3.0","visit":"WEEK 4","start_dtc":"2024-05-30","end_dtc":"2024-05-30","updes":null},{"visitnum":"4.0","visit":"WEEK 12","start_dtc":"2024-07-29","end_dtc":"2024-07-29","updes":null},{"visitnum":"5.0","visit":"WEEK 24","start_dtc":"2024-10-10","end_dtc":"2024-10-10","updes":null},{"visitnum":"6.0","visit":"WEEK 36","start_dtc":"2024-12-31","end_dtc":"2024-12-31","updes":null},{"visitnum":"7.0","visit":"WEEK 52","start_dtc":"2025-05-02","end_dtc":"2025-05-02","updes":null},{"visitnum":"8.0","visit":"FOLLOW-UP","start_dtc":"2025-06-04","end_dtc":"2025-06-04","updes":null}],"epochs":[{"seq":"1","etcd":"SCRN","element":"Screening","start_dtc":"2024-04-15","end_dtc":"2024-04-29","updes":null},{"seq":"2","etcd":"TRT","element":"Treatment","start_dtc":"2024-04-29","end_dtc":"2025-04-28","updes":null},{"seq":"3","etcd":"FU","element":"Follow-up","start_dtc":"2025-04-28","end_dtc":"2025-05-27","updes":null}],"visit_count":8},"section_5_concomitant_medications":{"medications":[{"seq":"1","trt":"METFORMIN","decod":"METFORMIN","cat":"PRIOR","dose":"1000","doseu":null,"dosef":"BID","route":"ORAL","indication":"DIABETES MELLITUS TYPE 2","start_dtc":"2016-04-11","end_dtc":"2025-06-10","ongoing":null,"visit":null},{"seq":"2","trt":"SERTRALINE","decod":"SERTRALINE","cat":"PRIOR","dose":"50","doseu":null,"dosef":"QD","route":"ORAL","indication":"DEPRESSION","start_dtc":"2022-04-10","end_dtc":"2025-06-10","ongoing":null,"visit":null},{"seq":"3","trt":"PARACETAMOL","decod":"PARACETAMOL","cat":"CONCOMITANT","dose":"500","doseu":null,"dosef":"PRN","route":"ORAL","indication":"HEADACHE","start_dtc":"2024-05-13","end_dtc":"2024-05-29","ongoing":null,"visit":null},{"seq":"4","trt":"PARACETAMOL","decod":"PARACETAMOL","cat":"CONCOMITANT","dose":"500","doseu":null,"dosef":"PRN","route":"ORAL","indication":"HEADACHE","start_dtc":"2024-06-09","end_dtc":"2024-06-22","ongoing":null,"visit":null},{"seq":"5","trt":"IBUPROFEN","decod":"IBUPROFEN","cat":"CONCOMITANT","dose":"400","doseu":null,"dosef":"PRN","route":"ORAL","indication":"ATRIAL FIBRILLATION","start_dtc":"2024-06-12","end_dtc":"2024-06-28","ongoing":null,"visit":null},{"seq":"6","trt":"PARACETAMOL","decod":"PARACETAMOL","cat":"CONCOMITANT","dose":"500","doseu":null,"dosef":"PRN","route":"ORAL","indication":"CARDIAC FAILURE","start_dtc":"2024-07-09","end_dtc":"2024-07-16","ongoing":null,"visit":null},{"seq":"7","trt":"PARACETAMOL","decod":"PARACETAMOL","cat":"CONCOMITANT","dose":"500","doseu":null,"dosef":"PRN","route":"ORAL","indication":"BLOOD CREATININE INCREASED","start_dtc":"2024-07-10","end_dtc":"2024-07-26","ongoing":null,"visit":null},{"seq":"8","trt":"NITROFURANTOIN","decod":"NITROFURANTOIN","cat":"CONCOMITANT","dose":"100.0","doseu":null,"dosef":"BID","route":"ORAL","indication":"URINARY TRACT INFECTION","start_dtc":"2024-08-04","end_dtc":"2024-08-27","ongoing":null,"visit":null},{"seq":"9","trt":"ORAL REHYDRATION SALTS","decod":"ORAL REHYDRATION SALTS","cat":"CONCOMITANT","dose":null,"doseu":null,"dosef":"PRN","route":"ORAL","indication":"DEHYDRATION","start_dtc":"2024-10-03","end_dtc":"2024-10-31","ongoing":null,"visit":null},{"seq":"10","trt":"METOCLOPRAMIDE","decod":"METOCLOPRAMIDE","cat":"CONCOMITANT","dose":"10","doseu":null,"dosef":"TID","route":"ORAL","indication":"NAUSEA","start_dtc":"2024-10-05","end_dtc":"2024-10-19","ongoing":null,"visit":null},{"seq":"11","trt":"MECLIZINE","decod":"MECLIZINE","cat":"CONCOMITANT","dose":"25","doseu":null,"dosef":"PRN","route":"ORAL","indication":"DIZZINESS","start_dtc":"2024-11-05","end_dtc":"2024-11-11","ongoing":null,"visit":null},{"seq":"12","trt":"IBUPROFEN","decod":"IBUPROFEN","cat":"CONCOMITANT","dose":"400","doseu":null,"dosef":"PRN","route":"ORAL","indication":"CARDIAC FAILURE","start_dtc":"2024-12-07","end_dtc":"2024-12-26","ongoing":null,"visit":null},{"seq":"13","trt":"ONDANSETRON","decod":"ONDANSETRON","cat":"CONCOMITANT","dose":"4","doseu":null,"dosef":"PRN","route":"ORAL","indication":"NAUSEA","start_dtc":"2025-01-30","end_dtc":"2025-02-14","ongoing":null,"visit":null},{"seq":"14","trt":"PARACETAMOL","decod":"PARACETAMOL","cat":"CONCOMITANT","dose":"500","doseu":null,"dosef":"PRN","route":"ORAL","indication":"ATRIAL FIBRILLATION","start_dtc":"2025-03-05","end_dtc":"2025-03-29","ongoing":null,"visit":null},{"seq":"15","trt":"METOCLOPRAMIDE","decod":"METOCLOPRAMIDE","cat":"CONCOMITANT","dose":"10","doseu":null,"dosef":"TID","route":"ORAL","indication":"NAUSEA","start_dtc":"2025-03-07","end_dtc":"2025-03-13","ongoing":null,"visit":null}]},"section_6_exposure":{"exposure_as_administered":[{"seq":"1","trt":"EMPAGLIFLOZIN","dose":"10.0","doseu":null,"dosef":"QD","route":"ORAL","lot":null,"start_dtc":"2024-04-29","end_dtc":"2024-05-12","start_dy":"1","end_dy":"14","epoch":"TREATMENT","visit":null},{"seq":"2","trt":"EMPAGLIFLOZIN","dose":"10.0","doseu":null,"dosef":"QD","route":"ORAL","lot":null,"start_dtc":"2024-05-24","end_dtc":"2024-07-09","start_dy":"26","end_dy":"72","epoch":"TREATMENT","visit":null},{"seq":"3","trt":"EMPAGLIFLOZIN","dose":"5.0","doseu":null,"dosef":"QD","route":"ORAL","lot":null,"start_dtc":"2024-07-10","end_dtc":"2024-10-02","start_dy":"73","end_dy":"157","epoch":"TREATMENT","visit":null},{"seq":"4","trt":"EMPAGLIFLOZIN","dose":"5.0","doseu":null,"dosef":"QD","route":"ORAL","lot":null,"start_dtc":"2024-10-03","end_dtc":"2024-10-04","start_dy":"158","end_dy":"159","epoch":"TREATMENT","visit":null},{"seq":"5","trt":"EMPAGLIFLOZIN","dose":"5.0","doseu":null,"dosef":"QD","route":"ORAL","lot":null,"start_dtc":"2024-10-08","end_dtc":"2024-10-08","start_dy":"163","end_dy":"163","epoch":"TREATMENT","visit":null}],"exposure_as_collected":[{"seq":"1","trt":"EMPAGLIFLOZIN","dose":"10.0","doseu":null,"dosef":"QD","route":"ORAL","start_dtc":"2024-04-29","end_dtc":"2024-04-29","visit":"RANDOMIZATION"},{"seq":"2","trt":"EMPAGLIFLOZIN","dose":"10.0","doseu":null,"dosef":"QD","route":"ORAL","start_dtc":"2024-04-30","end_dtc":"2024-04-30","visit":"RANDOMIZATION"},{"seq":"3","trt":"EMPAGLIFLOZIN","dose":"10.0","doseu":null,"dosef":"QD","route":"ORAL","start_dtc":"2024-05-01","end_dtc":"2024-05-01","visit":"RANDOMIZATION"},{"seq":"4","trt":"EMPAGLIFLOZIN","dose":"10.0","doseu":null,"dosef":"QD","route":"ORAL","start_dtc":"2024-05-02","end_dtc":"2024-05-02","visit":"RANDOMIZATION"},{"seq":"5","trt":"EMPAGLIFLOZIN","dose":"10.0","doseu":null,"dosef":"QD","route":"ORAL","start_dtc":"2024-05-03","end_dtc":"2024-05-03","visit":null},{"seq":"6","trt":"EMPAGLIFLOZIN","dose":"10.0","doseu":null,"dosef":"QD","route":"ORAL","start_dtc":"2024-05-04","end_dtc":"2024-05-04","visit":null},{"seq":"7","trt":"EMPAGLIFLOZIN","dose":null,"doseu":null,"dosef":"QD","route":"ORAL","start_dtc":"2024-05-05","end_dtc":"2024-05-05","visit":null},{"seq":"8","trt":"EMPAGLIFLOZIN","dose":"10.0","doseu":null,"dosef":"QD","route":"ORAL","start_dtc":"2024-05-06","end_dtc":"2024-05-06","visit":null},{"seq":"9","trt":"EMPAGLIFLOZIN","dose":"10.0","doseu":null,"dosef":"QD","route":"ORAL","start_dtc":"2024-05-07","end_dtc":"2024-05-07","visit":null},{"seq":"10","trt":"EMPAGLIFLOZIN","dose":"10.0","doseu":null,"dosef":"QD","route":"ORAL","start_dtc":"2024-05-08","end_dtc":"2024-05-08","visit":null},{"seq":"11","trt":"EMPAGLIFLOZIN","dose":"10.0","doseu":null,"dosef":"QD","route":"ORAL","start_dtc":"2024-05-09","end_dtc":"2024-05-09","visit":null},{"seq":"12","trt":"EMPAGLIFLOZIN","dose":"10.0","doseu":null,"dosef":"QD","route":"ORAL","start_dtc":"2024-05-10","end_dtc":"2024-05-10","visit":null},{"seq":"13","trt":"EMPAGLIFLOZIN","dose":"10.0","doseu":null,"dosef":"QD","route":"ORAL","start_dtc":"2024-05-11","end_dtc":"2024-05-11","visit":null},{"seq":"14","trt":"EMPAGLIFLOZIN","dose":"10.0","doseu":null,"dosef":"QD","route":"ORAL","start_dtc":"2024-05-12","end_dtc":"2024-05-12","visit":null},{"seq":"15","trt":"EMPAGLIFLOZIN","dose":"10.0","doseu":null,"dosef":"QD","route":"ORAL","start_dtc":"2024-05-24","end_dtc":"2024-05-24","visit":"WEEK 4"},{"seq":"16","trt":"EMPAGLIFLOZIN","dose":"10.0","doseu":null,"dosef":"QD","route":"ORAL","start_dtc":"2024-05-25","end_dtc":"2024-05-25","visit":"WEEK 4"},{"seq":"17","trt":"EMPAGLIFLOZIN","dose":null,"doseu":null,"dosef":"QD","route":"ORAL","start_dtc":"2024-05-26","end_dtc":"2024-05-26","visit":"WEEK 4"},{"seq":"18","trt":"EMPAGLIFLOZIN","dose":"10.0","doseu":null,"dosef":"QD","route":"ORAL","start_dtc":"2024-05-27","end_dtc":"2024-05-27","visit":"WEEK 4"},{"seq":"19","trt":"EMPAGLIFLOZIN","dose":"10.0","doseu":null,"dosef":"QD","route":"ORAL","start_dtc":"2024-05-28","end_dtc":"2024-05-28","visit":"WEEK 4"},{"seq":"20","trt":"EMPAGLIFLOZIN","dose":"10.0","doseu":null,"dosef":"QD","route":"ORAL","start_dtc":"2024-05-29","end_dtc":"2024-05-29","visit":"WEEK 4"},{"seq":"21","trt":"EMPAGLIFLOZIN","dose":"10.0","doseu":null,"dosef":"QD","route":"ORAL","start_dtc":"2024-05-30","end_dtc":"2024-05-30","visit":"WEEK 4"},{"seq":"22","trt":"EMPAGLIFLOZIN","dose":"10.0","doseu":null,"dosef":"QD","route":"ORAL","start_dtc":"2024-05-31","end_dtc":"2024-05-31","visit":null},{"seq":"23","trt":"EMPAGLIFLOZIN","dose":"10.0","doseu":null,"dosef":"QD","route":"ORAL","start_dtc":"2024-06-01","end_dtc":"2024-06-01","visit":null},{"seq":"24","trt":"EMPAGLIFLOZIN","dose":"10.0","doseu":null,"dosef":"QD","route":"ORAL","start_dtc":"2024-06-02","end_dtc":"2024-06-02","visit":null},{"seq":"25","trt":"EMPAGLIFLOZIN","dose":"10.0","doseu":null,"dosef":"QD","route":"ORAL","start_dtc":"2024-06-03","end_dtc":"2024-06-03","visit":null},{"seq":"26","trt":"EMPAGLIFLOZIN","dose":"10.0","doseu":null,"dosef":"QD","route":"ORAL","start_dtc":"2024-06-04","end_dtc":"2024-06-04","visit":null},{"seq":"27","trt":"EMPAGLIFLOZIN","dose":"10.0","doseu":null,"dosef":"QD","route":"ORAL","start_dtc":"2024-06-05","end_dtc":"2024-06-05","visit":null},{"seq":"28","trt":"EMPAGLIFLOZIN","dose":"10.0","doseu":null,"dosef":"QD","route":"ORAL","start_dtc":"2024-06-06","end_dtc":"2024-06-06","visit":null},{"seq":"29","trt":"EMPAGLIFLOZIN","dose":"10.0","doseu":null,"dosef":"QD","route":"ORAL","start_dtc":"2024-06-07","end_dtc":"2024-06-07","visit":null},{"seq":"30","trt":"EMPAGLIFLOZIN","dose":"10.0","doseu":null,"dosef":"QD","route":"ORAL","start_dtc":"2024-06-08","end_dtc":"2024-06-08","visit":null},{"seq":"31","trt":"EMPAGLIFLOZIN","dose":"10.0","doseu":null,"dosef":"QD","route":"ORAL","start_dtc":"2024-06-09","end_dtc":"2024-06-09","visit":null},{"seq":"32","trt":"EMPAGLIFLOZIN","dose":"10.0","doseu":null,"dosef":"QD","route":"ORAL","start_dtc":"2024-06-10","end_dtc":"2024-06-10","visit":null},{"seq":"33","trt":"EMPAGLIFLOZIN","dose":"10.0","doseu":null,"dosef":"QD","route":"ORAL","start_dtc":"2024-06-11","end_dtc":"2024-06-11","visit":null},{"seq":"34","trt":"EMPAGLIFLOZIN","dose":"10.0","doseu":null,"dosef":"QD","route":"ORAL","start_dtc":"2024-06-12","end_dtc":"2024-06-12","visit":null},{"seq":"35","trt":"EMPAGLIFLOZIN","dose":"10.0","doseu":null,"dosef":"QD","route":"ORAL","start_dtc":"2024-06-13","end_dtc":"2024-06-13","visit":null},{"seq":"36","trt":"EMPAGLIFLOZIN","dose":"10.0","doseu":null,"dosef":"QD","route":"ORAL","start_dtc":"2024-06-14","end_dtc":"2024-06-14","visit":null},{"seq":"37","trt":"EMPAGLIFLOZIN","dose":"10.0","doseu":null,"dosef":"QD","route":"ORAL","start_dtc":"2024-06-15","end_dtc":"2024-06-15","visit":null},{"seq":"38","trt":"EMPAGLIFLOZIN","dose":"10.0","doseu":null,"dosef":"QD","route":"ORAL","start_dtc":"2024-06-16","end_dtc":"2024-06-16","visit":null},{"seq":"39","trt":"EMPAGLIFLOZIN","dose":"10.0","doseu":null,"dosef":"QD","route":"ORAL","start_dtc":"2024-06-17","end_dtc":"2024-06-17","visit":null},{"seq":"40","trt":"EMPAGLIFLOZIN","dose":"10.0","doseu":null,"dosef":"QD","route":"ORAL","start_dtc":"2024-06-18","end_dtc":"2024-06-18","visit":null},{"seq":"41","trt":"EMPAGLIFLOZIN","dose":"10.0","doseu":null,"dosef":"QD","route":"ORAL","start_dtc":"2024-06-19","end_dtc":"2024-06-19","visit":null},{"seq":"42","trt":"EMPAGLIFLOZIN","dose":"10.0","doseu":null,"dosef":"QD","route":"ORAL","start_dtc":"2024-06-20","end_dtc":"2024-06-20","visit":null},{"seq":"43","trt":"EMPAGLIFLOZIN","dose":"10.0","doseu":null,"dosef":"QD","route":"ORAL","start_dtc":"2024-06-21","end_dtc":"2024-06-21","visit":null},{"seq":"44","trt":"EMPAGLIFLOZIN","dose":"10.0","doseu":null,"dosef":"QD","route":"ORAL","start_dtc":"2024-06-22","end_dtc":"2024-06-22","visit":null},{"seq":"45","trt":"EMPAGLIFLOZIN","dose":"10.0","doseu":null,"dosef":"QD","route":"ORAL","start_dtc":"2024-06-23","end_dtc":"2024-06-23","visit":null},{"seq":"46","trt":"EMPAGLIFLOZIN","dose":"10.0","doseu":null,"dosef":"QD","route":"ORAL","start_dtc":"2024-06-24","end_dtc":"2024-06-24","visit":null},{"seq":"47","trt":"EMPAGLIFLOZIN","dose":"10.0","doseu":null,"dosef":"QD","route":"ORAL","start_dtc":"2024-06-25","end_dtc":"2024-06-25","visit":null},{"seq":"48","trt":"EMPAGLIFLOZIN","dose":"10.0","doseu":null,"dosef":"QD","route":"ORAL","start_dtc":"2024-06-26","end_dtc":"2024-06-26","visit":null},{"seq":"49","trt":"EMPAGLIFLOZIN","dose":"10.0","doseu":null,"dosef":"QD","route":"ORAL","start_dtc":"2024-06-27","end_dtc":"2024-06-27","visit":null},{"seq":"50","trt":"EMPAGLIFLOZIN","dose":"10.0","doseu":null,"dosef":"QD","route":"ORAL","start_dtc":"2024-06-28","end_dtc":"2024-06-28","visit":null},{"seq":"51","trt":"EMPAGLIFLOZIN","dose":null,"doseu":null,"dosef":"QD","route":"ORAL","start_dtc":"2024-06-29","end_dtc":"2024-06-29","visit":null},{"seq":"52","trt":"EMPAGLIFLOZIN","dose":"10.0","doseu":null,"dosef":"QD","route":"ORAL","start_dtc":"2024-06-30","end_dtc":"2024-06-30","visit":null},{"seq":"53","trt":"EMPAGLIFLOZIN","dose":"10.0","doseu":null,"dosef":"QD","route":"ORAL","start_dtc":"2024-07-01","end_dtc":"2024-07-01","visit":null},{"seq":"54","trt":"EMPAGLIFLOZIN","dose":"10.0","doseu":null,"dosef":"QD","route":"ORAL","start_dtc":"2024-07-02","end_dtc":"2024-07-02","visit":null},{"seq":"55","trt":"EMPAGLIFLOZIN","dose":"10.0","doseu":null,"dosef":"QD","route":"ORAL","start_dtc":"2024-07-03","end_dtc":"2024-07-03","visit":null},{"seq":"56","trt":"EMPAGLIFLOZIN","dose":"10.0","doseu":null,"dosef":"QD","route":"ORAL","start_dtc":"2024-07-04","end_dtc":"2024-07-04","visit":null},{"seq":"57","trt":"EMPAGLIFLOZIN","dose":"10.0","doseu":null,"dosef":"QD","route":"ORAL","start_dtc":"2024-07-05","end_dtc":"2024-07-05","visit":null},{"seq":"58","trt":"EMPAGLIFLOZIN","dose":null,"doseu":null,"dosef":"QD","route":"ORAL","start_dtc":"2024-07-06","end_dtc":"2024-07-06","visit":null},{"seq":"59","trt":"EMPAGLIFLOZIN","dose":"10.0","doseu":null,"dosef":"QD","route":"ORAL","start_dtc":"2024-07-07","end_dtc":"2024-07-07","visit":null},{"seq":"60","trt":"EMPAGLIFLOZIN","dose":"10.0","doseu":null,"dosef":"QD","route":"ORAL","start_dtc":"2024-07-08","end_dtc":"2024-07-08","visit":null},{"seq":"61","trt":"EMPAGLIFLOZIN","dose":"10.0","doseu":null,"dosef":"QD","route":"ORAL","start_dtc":"2024-07-09","end_dtc":"2024-07-09","visit":null},{"seq":"62","trt":"EMPAGLIFLOZIN","dose":"5.0","doseu":null,"dosef":"QD","route":"ORAL","start_dtc":"2024-07-10","end_dtc":"2024-07-10","visit":null},{"seq":"63","trt":"EMPAGLIFLOZIN","dose":"5.0","doseu":null,"dosef":"QD","route":"ORAL","start_dtc":"2024-07-11","end_dtc":"2024-07-11","visit":null},{"seq":"64","trt":"EMPAGLIFLOZIN","dose":null,"doseu":null,"dosef":"QD","route":"ORAL","start_dtc":"2024-07-12","end_dtc":"2024-07-12","visit":null},{"seq":"65","trt":"EMPAGLIFLOZIN","dose":"5.0","doseu":null,"dosef":"QD","route":"ORAL","start_dtc":"2024-07-13","end_dtc":"2024-07-13","visit":null},{"seq":"66","trt":"EMPAGLIFLOZIN","dose":"5.0","doseu":null,"dosef":"QD","route":"ORAL","start_dtc":"2024-07-14","end_dtc":"2024-07-14","visit":null},{"seq":"67","trt":"EMPAGLIFLOZIN","dose":"5.0","doseu":null,"dosef":"QD","route":"ORAL","start_dtc":"2024-07-15","end_dtc":"2024-07-15","visit":null},{"seq":"68","trt":"EMPAGLIFLOZIN","dose":"5.0","doseu":null,"dosef":"QD","route":"ORAL","start_dtc":"2024-07-16","end_dtc":"2024-07-16","visit":null},{"seq":"69","trt":"EMPAGLIFLOZIN","dose":"5.0","doseu":null,"dosef":"QD","route":"ORAL","start_dtc":"2024-07-17","end_dtc":"2024-07-17","visit":null},{"seq":"70","trt":"EMPAGLIFLOZIN","dose":"5.0","doseu":null,"dosef":"QD","route":"ORAL","start_dtc":"2024-07-18","end_dtc":"2024-07-18","visit":null},{"seq":"71","trt":"EMPAGLIFLOZIN","dose":"5.0","doseu":null,"dosef":"QD","route":"ORAL","start_dtc":"2024-07-19","end_dtc":"2024-07-19","visit":"WEEK 12"},{"seq":"72","trt":"EMPAGLIFLOZIN","dose":"5.0","doseu":null,"dosef":"QD","route":"ORAL","start_dtc":"2024-07-20","end_dtc":"2024-07-20","visit":"WEEK 12"},{"seq":"73","trt":"EMPAGLIFLOZIN","dose":null,"doseu":null,"dosef":"QD","route":"ORAL","start_dtc":"2024-07-21","end_dtc":"2024-07-21","visit":"WEEK 12"},{"seq":"74","trt":"EMPAGLIFLOZIN","dose":"5.0","doseu":null,"dosef":"QD","route":"ORAL","start_dtc":"2024-07-22","end_dtc":"2024-07-22","visit":"WEEK 12"},{"seq":"75","trt":"EMPAGLIFLOZIN","dose":"5.0","doseu":null,"dosef":"QD","route":"ORAL","start_dtc":"2024-07-23","end_dtc":"2024-07-23","visit":"WEEK 12"},{"seq":"76","trt":"EMPAGLIFLOZIN","dose":"5.0","doseu":null,"dosef":"QD","route":"ORAL","start_dtc":"2024-07-24","end_dtc":"2024-07-24","visit":"WEEK 12"},{"seq":"77","trt":"EMPAGLIFLOZIN","dose":"5.0","doseu":null,"dosef":"QD","route":"ORAL","start_dtc":"2024-07-25","end_dtc":"2024-07-25","visit":"WEEK 12"},{"seq":"78","trt":"EMPAGLIFLOZIN","dose":"5.0","doseu":null,"dosef":"QD","route":"ORAL","start_dtc":"2024-07-26","end_dtc":"2024-07-26","visit":null},{"seq":"79","trt":"EMPAGLIFLOZIN","dose":"5.0","doseu":null,"dosef":"QD","route":"ORAL","start_dtc":"2024-07-27","end_dtc":"2024-07-27","visit":null},{"seq":"80","trt":"EMPAGLIFLOZIN","dose":"5.0","doseu":null,"dosef":"QD","route":"ORAL","start_dtc":"2024-07-28","end_dtc":"2024-07-28","visit":null},{"seq":"81","trt":"EMPAGLIFLOZIN","dose":"5.0","doseu":null,"dosef":"QD","route":"ORAL","start_dtc":"2024-07-29","end_dtc":"2024-07-29","visit":null},{"seq":"82","trt":"EMPAGLIFLOZIN","dose":"5.0","doseu":null,"dosef":"QD","route":"ORAL","start_dtc":"2024-07-30","end_dtc":"2024-07-30","visit":null},{"seq":"83","trt":"EMPAGLIFLOZIN","dose":"5.0","doseu":null,"dosef":"QD","route":"ORAL","start_dtc":"2024-07-31","end_dtc":"2024-07-31","visit":null},{"seq":"84","trt":"EMPAGLIFLOZIN","dose":"5.0","doseu":null,"dosef":"QD","route":"ORAL","start_dtc":"2024-08-01","end_dtc":"2024-08-01","visit":null},{"seq":"85","trt":"EMPAGLIFLOZIN","dose":"5.0","doseu":null,"dosef":"QD","route":"ORAL","start_dtc":"2024-08-02","end_dtc":"2024-08-02","visit":null},{"seq":"86","trt":"EMPAGLIFLOZIN","dose":null,"doseu":null,"dosef":"QD","route":"ORAL","start_dtc":"2024-08-03","end_dtc":"2024-08-03","visit":null},{"seq":"87","trt":"EMPAGLIFLOZIN","dose":null,"doseu":null,"dosef":"QD","route":"ORAL","start_dtc":"2024-08-04","end_dtc":"2024-08-04","visit":null},{"seq":"88","trt":"EMPAGLIFLOZIN","dose":"5.0","doseu":null,"dosef":"QD","route":"ORAL","start_dtc":"2024-08-05","end_dtc":"2024-08-05","visit":null},{"seq":"89","trt":"EMPAGLIFLOZIN","dose":"5.0","doseu":null,"dosef":"QD","route":"ORAL","start_dtc":"2024-08-06","end_dtc":"2024-08-06","visit":null},{"seq":"90","trt":"EMPAGLIFLOZIN","dose":"5.0","doseu":null,"dosef":"QD","route":"ORAL","start_dtc":"2024-08-07","end_dtc":"2024-08-07","visit":null},{"seq":"91","trt":"EMPAGLIFLOZIN","dose":"5.0","doseu":null,"dosef":"QD","route":"ORAL","start_dtc":"2024-08-08","end_dtc":"2024-08-08","visit":null},{"seq":"92","trt":"EMPAGLIFLOZIN","dose":"5.0","doseu":null,"dosef":"QD","route":"ORAL","start_dtc":"2024-08-09","end_dtc":"2024-08-09","visit":null},{"seq":"93","trt":"EMPAGLIFLOZIN","dose":"5.0","doseu":null,"dosef":"QD","route":"ORAL","start_dtc":"2024-08-10","end_dtc":"2024-08-10","visit":null},{"seq":"94","trt":"EMPAGLIFLOZIN","dose":"5.0","doseu":null,"dosef":"QD","route":"ORAL","start_dtc":"2024-08-11","end_dtc":"2024-08-11","visit":null},{"seq":"95","trt":"EMPAGLIFLOZIN","dose":"5.0","doseu":null,"dosef":"QD","route":"ORAL","start_dtc":"2024-08-12","end_dtc":"2024-08-12","visit":null},{"seq":"96","trt":"EMPAGLIFLOZIN","dose":null,"doseu":null,"dosef":"QD","route":"ORAL","start_dtc":"2024-08-13","end_dtc":"2024-08-13","visit":null},{"seq":"97","trt":"EMPAGLIFLOZIN","dose":"5.0","doseu":null,"dosef":"QD","route":"ORAL","start_dtc":"2024-08-14","end_dtc":"2024-08-14","visit":null},{"seq":"98","trt":"EMPAGLIFLOZIN","dose":"5.0","doseu":null,"dosef":"QD","route":"ORAL","start_dtc":"2024-08-15","end_dtc":"2024-08-15","visit":null},{"seq":"99","trt":"EMPAGLIFLOZIN","dose":"5.0","doseu":null,"dosef":"QD","route":"ORAL","start_dtc":"2024-08-16","end_dtc":"2024-08-16","visit":null},{"seq":"100","trt":"EMPAGLIFLOZIN","dose":"5.0","doseu":null,"dosef":"QD","route":"ORAL","start_dtc":"2024-08-17","end_dtc":"2024-08-17","visit":null},{"seq":"101","trt":"EMPAGLIFLOZIN","dose":"5.0","doseu":null,"dosef":"QD","route":"ORAL","start_dtc":"2024-08-18","end_dtc":"2024-08-18","visit":null},{"seq":"102","trt":"EMPAGLIFLOZIN","dose":"5.0","doseu":null,"dosef":"QD","route":"ORAL","start_dtc":"2024-08-19","end_dtc":"2024-08-19","visit":null},{"seq":"103","trt":"EMPAGLIFLOZIN","dose":"5.0","doseu":null,"dosef":"QD","route":"ORAL","start_dtc":"2024-08-20","end_dtc":"2024-08-20","visit":null},{"seq":"104","trt":"EMPAGLIFLOZIN","dose":"5.0","doseu":null,"dosef":"QD","route":"ORAL","start_dtc":"2024-08-21","end_dtc":"2024-08-21","visit":null},{"seq":"105","trt":"EMPAGLIFLOZIN","dose":"5.0","doseu":null,"dosef":"QD","route":"ORAL","start_dtc":"2024-08-22","end_dtc":"2024-08-22","visit":null},{"seq":"106","trt":"EMPAGLIFLOZIN","dose":"5.0","doseu":null,"dosef":"QD","route":"ORAL","start_dtc":"2024-08-23","end_dtc":"2024-08-23","visit":null},{"seq":"107","trt":"EMPAGLIFLOZIN","dose":null,"doseu":null,"dosef":"QD","route":"ORAL","start_dtc":"2024-08-24","end_dtc":"2024-08-24","visit":null},{"seq":"108","trt":"EMPAGLIFLOZIN","dose":"5.0","doseu":null,"dosef":"QD","route":"ORAL","start_dtc":"2024-08-25","end_dtc":"2024-08-25","visit":null},{"seq":"109","trt":"EMPAGLIFLOZIN","dose":"5.0","doseu":null,"dosef":"QD","route":"ORAL","start_dtc":"2024-08-26","end_dtc":"2024-08-26","visit":null},{"seq":"110","trt":"EMPAGLIFLOZIN","dose":"5.0","doseu":null,"dosef":"QD","route":"ORAL","start_dtc":"2024-08-27","end_dtc":"2024-08-27","visit":null},{"seq":"111","trt":"EMPAGLIFLOZIN","dose":"5.0","doseu":null,"dosef":"QD","route":"ORAL","start_dtc":"2024-08-28","end_dtc":"2024-08-28","visit":null},{"seq":"112","trt":"EMPAGLIFLOZIN","dose":"5.0","doseu":null,"dosef":"QD","route":"ORAL","start_dtc":"2024-08-29","end_dtc":"2024-08-29","visit":null},{"seq":"113","trt":"EMPAGLIFLOZIN","dose":"5.0","doseu":null,"dosef":"QD","route":"ORAL","start_dtc":"2024-08-30","end_dtc":"2024-08-30","visit":null},{"seq":"114","trt":"EMPAGLIFLOZIN","dose":"5.0","doseu":null,"dosef":"QD","route":"ORAL","start_dtc":"2024-08-31","end_dtc":"2024-08-31","visit":null},{"seq":"115","trt":"EMPAGLIFLOZIN","dose":"5.0","doseu":null,"dosef":"QD","route":"ORAL","start_dtc":"2024-09-01","end_dtc":"2024-09-01","visit":null},{"seq":"116","trt":"EMPAGLIFLOZIN","dose":null,"doseu":null,"dosef":"QD","route":"ORAL","start_dtc":"2024-09-02","end_dtc":"2024-09-02","visit":null},{"seq":"117","trt":"EMPAGLIFLOZIN","dose":"5.0","doseu":null,"dosef":"QD","route":"ORAL","start_dtc":"2024-09-03","end_dtc":"2024-09-03","visit":null},{"seq":"118","trt":"EMPAGLIFLOZIN","dose":"5.0","doseu":null,"dosef":"QD","route":"ORAL","start_dtc":"2024-09-04","end_dtc":"2024-09-04","visit":null},{"seq":"119","trt":"EMPAGLIFLOZIN","dose":"5.0","doseu":null,"dosef":"QD","route":"ORAL","start_dtc":"2024-09-05","end_dtc":"2024-09-05","visit":null},{"seq":"120","trt":"EMPAGLIFLOZIN","dose":"5.0","doseu":null,"dosef":"QD","route":"ORAL","start_dtc":"2024-09-06","end_dtc":"2024-09-06","visit":null},{"seq":"121","trt":"EMPAGLIFLOZIN","dose":"5.0","doseu":null,"dosef":"QD","route":"ORAL","start_dtc":"2024-09-07","end_dtc":"2024-09-07","visit":null},{"seq":"122","trt":"EMPAGLIFLOZIN","dose":"5.0","doseu":null,"dosef":"QD","route":"ORAL","start_dtc":"2024-09-08","end_dtc":"2024-09-08","visit":null},{"seq":"123","trt":"EMPAGLIFLOZIN","dose":"5.0","doseu":null,"dosef":"QD","route":"ORAL","start_dtc":"2024-09-09","end_dtc":"2024-09-09","visit":null},{"seq":"124","trt":"EMPAGLIFLOZIN","dose":"5.0","doseu":null,"dosef":"QD","route":"ORAL","start_dtc":"2024-09-10","end_dtc":"2024-09-10","visit":null},{"seq":"125","trt":"EMPAGLIFLOZIN","dose":"5.0","doseu":null,"dosef":"QD","route":"ORAL","start_dtc":"2024-09-11","end_dtc":"2024-09-11","visit":null},{"seq":"126","trt":"EMPAGLIFLOZIN","dose":null,"doseu":null,"dosef":"QD","route":"ORAL","start_dtc":"2024-09-12","end_dtc":"2024-09-12","visit":null},{"seq":"127","trt":"EMPAGLIFLOZIN","dose":null,"doseu":null,"dosef":"QD","route":"ORAL","start_dtc":"2024-09-13","end_dtc":"2024-09-13","visit":null},{"seq":"128","trt":"EMPAGLIFLOZIN","dose":"5.0","doseu":null,"dosef":"QD","route":"ORAL","start_dtc":"2024-09-14","end_dtc":"2024-09-14","visit":null},{"seq":"129","trt":"EMPAGLIFLOZIN","dose":"5.0","doseu":null,"dosef":"QD","route":"ORAL","start_dtc":"2024-09-15","end_dtc":"2024-09-15","visit":null},{"seq":"130","trt":"EMPAGLIFLOZIN","dose":"5.0","doseu":null,"dosef":"QD","route":"ORAL","start_dtc":"2024-09-16","end_dtc":"2024-09-16","visit":null},{"seq":"131","trt":"EMPAGLIFLOZIN","dose":"5.0","doseu":null,"dosef":"QD","route":"ORAL","start_dtc":"2024-09-17","end_dtc":"2024-09-17","visit":null},{"seq":"132","trt":"EMPAGLIFLOZIN","dose":"5.0","doseu":null,"dosef":"QD","route":"ORAL","start_dtc":"2024-09-18","end_dtc":"2024-09-18","visit":null},{"seq":"133","trt":"EMPAGLIFLOZIN","dose":null,"doseu":null,"dosef":"QD","route":"ORAL","start_dtc":"2024-09-19","end_dtc":"2024-09-19","visit":null},{"seq":"134","trt":"EMPAGLIFLOZIN","dose":"5.0","doseu":null,"dosef":"QD","route":"ORAL","start_dtc":"2024-09-20","end_dtc":"2024-09-20","visit":null},{"seq":"135","trt":"EMPAGLIFLOZIN","dose":"5.0","doseu":null,"dosef":"QD","route":"ORAL","start_dtc":"2024-09-21","end_dtc":"2024-09-21","visit":null},{"seq":"136","trt":"EMPAGLIFLOZIN","dose":"5.0","doseu":null,"dosef":"QD","route":"ORAL","start_dtc":"2024-09-22","end_dtc":"2024-09-22","visit":null},{"seq":"137","trt":"EMPAGLIFLOZIN","dose":"5.0","doseu":null,"dosef":"QD","route":"ORAL","start_dtc":"2024-09-23","end_dtc":"2024-09-23","visit":null},{"seq":"138","trt":"EMPAGLIFLOZIN","dose":"5.0","doseu":null,"dosef":"QD","route":"ORAL","start_dtc":"2024-09-24","end_dtc":"2024-09-24","visit":null},{"seq":"139","trt":"EMPAGLIFLOZIN","dose":"5.0","doseu":null,"dosef":"QD","route":"ORAL","start_dtc":"2024-09-25","end_dtc":"2024-09-25","visit":null},{"seq":"140","trt":"EMPAGLIFLOZIN","dose":"5.0","doseu":null,"dosef":"QD","route":"ORAL","start_dtc":"2024-09-26","end_dtc":"2024-09-26","visit":null},{"seq":"141","trt":"EMPAGLIFLOZIN","dose":"5.0","doseu":null,"dosef":"QD","route":"ORAL","start_dtc":"2024-09-27","end_dtc":"2024-09-27","visit":null},{"seq":"142","trt":"EMPAGLIFLOZIN","dose":"5.0","doseu":null,"dosef":"QD","route":"ORAL","start_dtc":"2024-09-28","end_dtc":"2024-09-28","visit":null},{"seq":"143","trt":"EMPAGLIFLOZIN","dose":"5.0","doseu":null,"dosef":"QD","route":"ORAL","start_dtc":"2024-09-29","end_dtc":"2024-09-29","visit":null},{"seq":"144","trt":"EMPAGLIFLOZIN","dose":"5.0","doseu":null,"dosef":"QD","route":"ORAL","start_dtc":"2024-09-30","end_dtc":"2024-09-30","visit":null},{"seq":"145","trt":"EMPAGLIFLOZIN","dose":"5.0","doseu":null,"dosef":"QD","route":"ORAL","start_dtc":"2024-10-01","end_dtc":"2024-10-01","visit":null},{"seq":"146","trt":"EMPAGLIFLOZIN","dose":"5.0","doseu":null,"dosef":"QD","route":"ORAL","start_dtc":"2024-10-02","end_dtc":"2024-10-02","visit":null},{"seq":"147","trt":"EMPAGLIFLOZIN","dose":"5.0","doseu":null,"dosef":"QD","route":"ORAL","start_dtc":"2024-10-03","end_dtc":"2024-10-03","visit":null},{"seq":"148","trt":"EMPAGLIFLOZIN","dose":"5.0","doseu":null,"dosef":"QD","route":"ORAL","start_dtc":"2024-10-04","end_dtc":"2024-10-04","visit":null},{"seq":"149","trt":"EMPAGLIFLOZIN","dose":"5.0","doseu":null,"dosef":"QD","route":"ORAL","start_dtc":"2024-10-08","end_dtc":"2024-10-08","visit":null}]},"section_7_adverse_events":{"summary":{"total_aes":23,"serious_aes":7,"fatal_aes":0,"by_severity":{"SEVERE":7,"MILD":12,"MODERATE":4},"by_soc":{"Nervous system disorders":6,"Cardiac disorders":5,"Vascular disorders":1,"Investigations":2,"Infections and infestations":3,"Metabolism and nutrition disorders":1,"Gastrointestinal disorders":4,"Renal and urinary disorders":1}},"events":[{"seq":"1","term":"HEADACHE","decod":"Headache","llt":"Headache","hlt":"Headaches NEC","hlgt":"Headaches","soc":"Nervous system disorders","bodsys":"Nervous system disorders","severity":"SEVERE","serious":"Y","causality":"POSSIBLY RELATED","action_taken":"DRUG INTERRUPTED","outcome":"RECOVERED/RESOLVED","fatal":"N","hospitalization":"Y","life_threatening":"N","onset_dtc":"2024-05-13","end_dtc":"2024-05-24","onset_dy":"15","end_dy":"26","duration":null,"epoch":"TREATMENT","visit":null,"supplemental":{}},{"seq":"2","term":"HEADACHE","decod":"Headache","llt":"Headache","hlt":"Headaches NEC","hlgt":"Headaches","soc":"Nervous system disorders","bodsys":"Nervous system disorders","severity":"MILD","serious":"N","causality":"NOT RELATED","action_taken":"DOSE NOT CHANGED","outcome":"RECOVERED/RESOLVED","fatal":"N","hospitalization":"N","life_threatening":"N","onset_dtc":"2024-06-09","end_dtc":"2024-06-10","onset_dy":"42","end_dy":"43","duration":null,"epoch":"TREATMENT","visit":null,"supplemental":{}},{"seq":"3","term":"ATRIAL FIBRILLATION","decod":"Atrial fibrillation","llt":"Atrial fibrillation","hlt":"Atrial arrhythmias","hlgt":"Cardiac arrhythmias","soc":"Cardiac disorders","bodsys":"Cardiac disorders","severity":"MILD","serious":"N","causality":"POSSIBLY RELATED","action_taken":"DOSE NOT CHANGED","outcome":"RECOVERED/RESOLVED","fatal":"N","hospitalization":"N","life_threatening":"N","onset_dtc":"2024-06-12","end_dtc":"2024-06-20","onset_dy":"45","end_dy":"53","duration":null,"epoch":"TREATMENT","visit":null,"supplemental":{}},{"seq":"4","term":"HYPOTENSION","decod":"Hypotension","llt":"Hypotension","hlt":"Vascular hypotensive disorders","hlgt":"Vascular disorders NEC","soc":"Vascular disorders","bodsys":"Vascular disorders","severity":"MODERATE","serious":"N","causality":"UNLIKELY RELATED","action_taken":"DOSE NOT CHANGED","outcome":"RECOVERED/RESOLVED","fatal":"N","hospitalization":"N","life_threatening":"N","onset_dtc":"2024-07-06","end_dtc":"2024-07-11","onset_dy":"69","end_dy":"74","duration":null,"epoch":"TREATMENT","visit":null,"supplemental":{}},{"seq":"5","term":"CARDIAC FAILURE","decod":"Cardiac failure","llt":"Cardiac failure","hlt":"Cardiac failure signs and symptoms","hlgt":"Heart failures","soc":"Cardiac disorders","bodsys":"Cardiac disorders","severity":"SEVERE","serious":"Y","causality":"NOT RELATED","action_taken":"DOSE NOT CHANGED","outcome":"RECOVERED/RESOLVED","fatal":"N","hospitalization":"Y","life_threatening":"N","onset_dtc":"2024-07-09","end_dtc":"2024-08-28","onset_dy":"72","end_dy":"122","duration":null,"epoch":"TREATMENT","visit":null,"supplemental":{}},{"seq":"6","term":"BLOOD CREATININE INCREASED","decod":"Blood creatinine increased","llt":"Blood creatinine increased","hlt":"Renal function analyses","hlgt":"Renal and urinary tract investigations and urinalyses","soc":"Investigations","bodsys":"Investigations","severity":"SEVERE","serious":"Y","causality":"RELATED","action_taken":"DOSE REDUCED","outcome":"RECOVERED/RESOLVED","fatal":"N","hospitalization":"Y","life_threatening":"N","onset_dtc":"2024-07-10","end_dtc":"2024-08-31","onset_dy":"73","end_dy":"125","duration":null,"epoch":"TREATMENT","visit":null,"supplemental":{}},{"seq":"7","term":"URINARY TRACT INFECTION","decod":"Urinary tract infection","llt":"Urinary tract infection","hlt":"Urinary tract infections","hlgt":"Infections NEC","soc":"Infections and infestations","bodsys":"Infections and infestations","severity":"SEVERE","serious":"Y","causality":"NOT RELATED","action_taken":"DOSE NOT CHANGED","outcome":"RECOVERED/RESOLVED","fatal":"N","hospitalization":"Y","life_threatening":"N","onset_dtc":"2024-08-04","end_dtc":"2024-08-20","onset_dy":"98","end_dy":"114","duration":null,"epoch":"TREATMENT","visit":null,"supplemental":{}},{"seq":"8","term":"DEHYDRATION","decod":"Dehydration","llt":"Dehydration","hlt":"Fluid intake decreased and dehydration","hlgt":"Fluid and electrolyte conditions NEC","soc":"Metabolism and nutrition disorders","bodsys":"Metabolism and nutrition disorders","severity":"MILD","serious":"N","causality":"POSSIBLY RELATED","action_taken":"DOSE REDUCED","outcome":"RECOVERED/RESOLVED","fatal":"N","hospitalization":"N","life_threatening":"N","onset_dtc":"2024-10-03","end_dtc":"2024-10-08","onset_dy":"158","end_dy":"163","duration":null,"epoch":"TREATMENT","visit":null,"supplemental":{}},{"seq":"9","term":"NAUSEA","decod":"Nausea","llt":"Nausea","hlt":"Nausea and vomiting symptoms","hlgt":"Gastrointestinal signs and symptoms","soc":"Gastrointestinal disorders","bodsys":"Gastrointestinal disorders","severity":"SEVERE","serious":"Y","causality":"POSSIBLY RELATED","action_taken":"DRUG INTERRUPTED","outcome":"RECOVERED/RESOLVED","fatal":"N","hospitalization":"Y","life_threatening":"N","onset_dtc":"2024-10-05","end_dtc":"2024-10-08","onset_dy":"160","end_dy":"163","duration":null,"epoch":"TREATMENT","visit":null,"supplemental":{}},{"seq":"10","term":"NAUSEA","decod":"Nausea","llt":"Nausea","hlt":"Nausea and vomiting symptoms","hlgt":"Gastrointestinal signs and symptoms","soc":"Gastrointestinal disorders","bodsys":"Gastrointestinal disorders","severity":"MILD","serious":"N","causality":"UNLIKELY RELATED","action_taken":"DOSE NOT CHANGED","outcome":"NOT RECOVERED/NOT RESOLVED","fatal":"N","hospitalization":"N","life_threatening":"N","onset_dtc":"2024-10-31","end_dtc":null,"onset_dy":"186","end_dy":null,"duration":null,"epoch":"TREATMENT","visit":null,"supplemental":{}},{"seq":"11","term":"DIZZINESS","decod":"Dizziness","llt":"Dizziness","hlt":"Dizziness and vertigo symptoms","hlgt":"Neurological signs and symptoms NEC","soc":"Nervous system disorders","bodsys":"Nervous system disorders","severity":"MILD","serious":"N","causality":"NOT RELATED","action_taken":"DOSE NOT CHANGED","outcome":"RECOVERING/RESOLVING","fatal":"N","hospitalization":"N","life_threatening":"N","onset_dtc":"2024-11-05","end_dtc":"2024-11-16","onset_dy":"191","end_dy":"202","duration":null,"epoch":"TREATMENT","visit":null,"supplemental":{}},{"seq":"12","term":"DIZZINESS","decod":"Dizziness","llt":"Dizziness","hlt":"Dizziness and vertigo symptoms","hlgt":"Neurological signs and symptoms NEC","soc":"Nervous system disorders","bodsys":"Nervous system disorders","severity":"MILD","serious":"N","causality":"NOT RELATED","action_taken":"DOSE NOT CHANGED","outcome":"RECOVERING/RESOLVING","fatal":"N","hospitalization":"N","life_threatening":"N","onset_dtc":"2024-11-17","end_dtc":"2024-11-25","onset_dy":"203","end_dy":"211","duration":null,"epoch":"TREATMENT","visit":null,"supplemental":{}},{"seq":"13","term":"BLOOD CREATININE INCREASED","decod":"Blood creatinine increased","llt":"Blood creatinine increased","hlt":"Renal function analyses","hlgt":"Renal and urinary tract investigations and urinalyses","soc":"Investigations","bodsys":"Investigations","severity":"MILD","serious":"N","causality":"POSSIBLY RELATED","action_taken":"DOSE NOT CHANGED","outcome":"RECOVERING/RESOLVING","fatal":"N","hospitalization":"N","life_threatening":"N","onset_dtc":"2024-11-26","end_dtc":"2024-12-07","onset_dy":"212","end_dy":"223","duration":null,"epoch":"TREATMENT","visit":null,"supplemental":{}},{"seq":"14","term":"CARDIAC FAILURE","decod":"Cardiac failure","llt":"Cardiac failure","hlt":"Cardiac failure signs and symptoms","hlgt":"Heart failures","soc":"Cardiac disorders","bodsys":"Cardiac disorders","severity":"SEVERE","serious":"Y","causality":"NOT RELATED","action_taken":"DOSE NOT CHANGED","outcome":"RECOVERED/RESOLVED WITH SEQUELAE","fatal":"N","hospitalization":"Y","life_threatening":"N","onset_dtc":"2024-12-07","end_dtc":"2025-01-03","onset_dy":"223","end_dy":"250","duration":null,"epoch":"TREATMENT","visit":null,"supplemental":{}},{"seq":"15","term":"CARDIAC FAILURE","decod":"Cardiac failure","llt":"Cardiac failure","hlt":"Cardiac failure signs and symptoms","hlgt":"Heart failures","soc":"Cardiac disorders","bodsys":"Cardiac disorders","severity":"MILD","serious":"N","causality":"NOT RELATED","action_taken":"DOSE NOT CHANGED","outcome":"RECOVERING/RESOLVING","fatal":"N","hospitalization":"N","life_threatening":"N","onset_dtc":"2024-12-17","end_dtc":"2024-12-18","onset_dy":"233","end_dy":"234","duration":null,"epoch":"TREATMENT","visit":null,"supplemental":{}},{"seq":"16","term":"DIZZINESS","decod":"Dizziness","llt":"Dizziness","hlt":"Dizziness and vertigo symptoms","hlgt":"Neurological signs and symptoms NEC","soc":"Nervous system disorders","bodsys":"Nervous system disorders","severity":"MILD","serious":"N","causality":"NOT RELATED","action_taken":"DOSE NOT CHANGED","outcome":"RECOVERING/RESOLVING","fatal":"N","hospitalization":"N","life_threatening":"N","onset_dtc":"2024-12-31","end_dtc":"2025-01-06","onset_dy":"247","end_dy":"253","duration":null,"epoch":"TREATMENT","visit":null,"supplemental":{}},{"seq":"17","term":"GENITAL INFECTION FUNGAL","decod":"Genital infection fungal","llt":"Genital infection fungal","hlt":"Vulvovaginal infections","hlgt":"Infections NEC","soc":"Infections and infestations","bodsys":"Infections and infestations","severity":"MILD","serious":"N","causality":"POSSIBLY RELATED","action_taken":"DOSE NOT CHANGED","outcome":"RECOVERED/RESOLVED","fatal":"N","hospitalization":"N","life_threatening":"N","onset_dtc":"2025-01-06","end_dtc":"2025-01-07","onset_dy":"253","end_dy":"254","duration":null,"epoch":"TREATMENT","visit":null,"supplemental":{}},{"seq":"18","term":"DIZZINESS","decod":"Dizziness","llt":"Dizziness","hlt":"Dizziness and vertigo symptoms","hlgt":"Neurological signs and symptoms NEC","soc":"Nervous system disorders","bodsys":"Nervous system disorders","severity":"MODERATE","serious":"N","causality":"POSSIBLY RELATED","action_taken":"DRUG INTERRUPTED","outcome":"RECOVERED/RESOLVED","fatal":"N","hospitalization":"N","life_threatening":"N","onset_dtc":"2025-01-28","end_dtc":"2025-02-06","onset_dy":"275","end_dy":"284","duration":null,"epoch":"TREATMENT","visit":null,"supplemental":{}},{"seq":"19","term":"NAUSEA","decod":"Nausea","llt":"Nausea","hlt":"Nausea and vomiting symptoms","hlgt":"Gastrointestinal signs and symptoms","soc":"Gastrointestinal disorders","bodsys":"Gastrointestinal disorders","severity":"MODERATE","serious":"N","causality":"POSSIBLY RELATED","action_taken":"DRUG INTERRUPTED","outcome":"RECOVERED/RESOLVED","fatal":"N","hospitalization":"N","life_threatening":"N","onset_dtc":"2025-01-30","end_dtc":"2025-01-31","onset_dy":"277","end_dy":"278","duration":null,"epoch":"TREATMENT","visit":null,"supplemental":{}},{"seq":"20","term":"GENITAL INFECTION FUNGAL","decod":"Genital infection fungal","llt":"Genital infection fungal","hlt":"Vulvovaginal infections","hlgt":"Infections NEC","soc":"Infections and infestations","bodsys":"Infections and infestations","severity":"MILD","serious":"N","causality":"POSSIBLY RELATED","action_taken":"DOSE REDUCED","outcome":"NOT RECOVERED/NOT RESOLVED","fatal":"N","hospitalization":"N","life_threatening":"N","onset_dtc":"2025-02-06","end_dtc":null,"onset_dy":"284","end_dy":null,"duration":null,"epoch":"TREATMENT","visit":null,"supplemental":{}},{"seq":"21","term":"ACUTE KIDNEY INJURY","decod":"Acute kidney injury","llt":"Acute kidney injury","hlt":"Renal disorders NEC","hlgt":"Renal disorders (excl nephropathies)","soc":"Renal and urinary disorders","bodsys":"Renal and urinary disorders","severity":"MODERATE","serious":"N","causality":"UNLIKELY RELATED","action_taken":"DOSE NOT CHANGED","outcome":"RECOVERED/RESOLVED","fatal":"N","hospitalization":"N","life_threatening":"N","onset_dtc":"2025-03-01","end_dtc":"2025-03-08","onset_dy":"307","end_dy":"314","duration":null,"epoch":"TREATMENT","visit":null,"supplemental":{}},{"seq":"22","term":"ATRIAL FIBRILLATION","decod":"Atrial fibrillation","llt":"Atrial fibrillation","hlt":"Atrial arrhythmias","hlgt":"Cardiac arrhythmias","soc":"Cardiac disorders","bodsys":"Cardiac disorders","severity":"MILD","serious":"N","causality":"NOT RELATED","action_taken":"DOSE NOT CHANGED","outcome":"RECOVERED/RESOLVED","fatal":"N","hospitalization":"N","life_threatening":"N","onset_dtc":"2025-03-05","end_dtc":"2025-03-13","onset_dy":"311","end_dy":"319","duration":null,"epoch":"TREATMENT","visit":null,"supplemental":{}},{"seq":"23","term":"NAUSEA","decod":"Nausea","llt":"Nausea","hlt":"Nausea and vomiting symptoms","hlgt":"Gastrointestinal signs and symptoms","soc":"Gastrointestinal disorders","bodsys":"Gastrointestinal disorders","severity":"SEVERE","serious":"Y","causality":"NOT RELATED","action_taken":"DOSE NOT CHANGED","outcome":"RECOVERED/RESOLVED","fatal":"N","hospitalization":"N","life_threatening":"N","onset_dtc":"2025-03-07","end_dtc":"2025-03-14","onset_dy":"313","end_dy":"320","duration":null,"epoch":"TREATMENT","visit":null,"supplemental":{}}]},"section_8_laboratory_results":{"summary":{"total_records":49,"abnormal_count":18,"abnormal_pct":36.7},"shift_summary":[{"testcd":"ALT","baseline_value":34.27,"baseline_nrind":"NORMAL","worst_post_baseline_value":37.07,"worst_post_baseline_nrind":"NORMAL","worst_visit":"WEEK 4"},{"testcd":"AST","baseline_value":9.2,"baseline_nrind":"LOW","worst_post_baseline_value":11.17,"worst_post_baseline_nrind":"NORMAL","worst_visit":"WEEK 24"},{"testcd":"CREAT","baseline_value":33.26,"baseline_nrind":"LOW","worst_post_baseline_value":42.02,"worst_post_baseline_nrind":"LOW","worst_visit":"WEEK 24"},{"testcd":"GLUC","baseline_value":6.95,"baseline_nrind":"HIGH","worst_post_baseline_value":7.07,"worst_post_baseline_nrind":"HIGH","worst_visit":"WEEK 4"},{"testcd":"HGB","baseline_value":143.55,"baseline_nrind":"NORMAL","worst_post_baseline_value":141.71,"worst_post_baseline_nrind":"NORMAL","worst_visit":"FOLLOW-UP"},{"testcd":"PLAT","baseline_value":266.53,"baseline_nrind":"NORMAL","worst_post_baseline_value":288.79,"worst_post_baseline_nrind":"NORMAL","worst_visit":"WEEK 4"},{"testcd":"WBC","baseline_value":8.65,"baseline_nrind":"NORMAL","worst_post_baseline_value":8.98,"worst_post_baseline_nrind":"NORMAL","worst_visit":"RANDOMIZATION"}],"results":[{"seq":"1","testcd":"ALT","test":"Alanine Aminotransferase","cat":"CHEMISTRY","orres":"34.27","orresu":"U/L","stresc":"34.27","stresn":"34.27","stresu":"U/L","stnrlo":"7","stnrhi":"56","nrind":"NORMAL","fast":null,"dtc":"2024-04-10","dy":"-19","visit":"SCREENING","visitnum":"1.0","epoch":"SCREENING","spec":null,"method":null},{"seq":"2","testcd":"AST","test":"Aspartate Aminotransferase","cat":"CHEMISTRY","orres":"9.2","orresu":"U/L","stresc":"9.2","stresn":"9.2","stresu":"U/L","stnrlo":"10","stnrhi":"40","nrind":"LOW","fast":null,"dtc":"2024-04-10","dy":"-19","visit":"SCREENING","visitnum":"1.0","epoch":"SCREENING","spec":null,"method":null},{"seq":"3","testcd":"CREAT","test":"Creatinine","cat":"CHEMISTRY","orres":"33.26","orresu":"umol/L","stresc":"33.26","stresn":"33.26","stresu":"umol/L","stnrlo":"62","stnrhi":"106","nrind":"LOW","fast":null,"dtc":"2024-04-10","dy":"-19","visit":"SCREENING","visitnum":"1.0","epoch":"SCREENING","spec":null,"method":null},{"seq":"4","testcd":"GLUC","test":"Glucose","cat":"CHEMISTRY","orres":"6.95","orresu":"mmol/L","stresc":"6.95","stresn":"6.95","stresu":"mmol/L","stnrlo":"3.9","stnrhi":"5.6","nrind":"HIGH","fast":null,"dtc":"2024-04-10","dy":"-19","visit":"SCREENING","visitnum":"1.0","epoch":"SCREENING","spec":null,"method":null},{"seq":"5","testcd":"HGB","test":"Hemoglobin","cat":"HEMATOLOGY","orres":"143.55","orresu":"g/L","stresc":"143.55","stresn":"143.55","stresu":"g/L","stnrlo":"130","stnrhi":"175","nrind":"NORMAL","fast":null,"dtc":"2024-04-10","dy":"-19","visit":"SCREENING","visitnum":"1.0","epoch":"SCREENING","spec":null,"method":null},{"seq":"6","testcd":"PLAT","test":"Platelets","cat":"HEMATOLOGY","orres":"266.53","orresu":"10^9/L","stresc":"266.53","stresn":"266.53","stresu":"10^9/L","stnrlo":"150","stnrhi":"400","nrind":"NORMAL","fast":null,"dtc":"2024-04-10","dy":"-19","visit":"SCREENING","visitnum":"1.0","epoch":"SCREENING","spec":null,"method":null},{"seq":"7","testcd":"WBC","test":"Leukocytes","cat":"HEMATOLOGY","orres":"8.65","orresu":"10^9/L","stresc":"8.65","stresn":"8.65","stresu":"10^9/L","stnrlo":"4.0","stnrhi":"11.0","nrind":"NORMAL","fast":null,"dtc":"2024-04-10","dy":"-19","visit":"SCREENING","visitnum":"1.0","epoch":"SCREENING","spec":null,"method":null},{"seq":"8","testcd":"ALT","test":"Alanine Aminotransferase","cat":"CHEMISTRY","orres":"35.42","orresu":"U/L","stresc":"35.42","stresn":"35.42","stresu":"U/L","stnrlo":"7","stnrhi":"56","nrind":"NORMAL","fast":null,"dtc":"2024-04-29","dy":"1","visit":"RANDOMIZATION","visitnum":"2.0","epoch":"TREATMENT","spec":null,"method":null},{"seq":"9","testcd":"AST","test":"Aspartate Aminotransferase","cat":"CHEMISTRY","orres":"10.08","orresu":"U/L","stresc":"10.08","stresn":"10.08","stresu":"U/L","stnrlo":"10","stnrhi":"40","nrind":"NORMAL","fast":null,"dtc":"2024-04-29","dy":"1","visit":"RANDOMIZATION","visitnum":"2.0","epoch":"TREATMENT","spec":null,"method":null},{"seq":"10","testcd":"CREAT","test":"Creatinine","cat":"CHEMISTRY","orres":"33.3","orresu":"umol/L","stresc":"33.3","stresn":"33.3","stresu":"umol/L","stnrlo":"62","stnrhi":"106","nrind":"LOW","fast":null,"dtc":"2024-04-29","dy":"1","visit":"RANDOMIZATION","visitnum":"2.0","epoch":"TREATMENT","spec":null,"method":null},{"seq":"11","testcd":"GLUC","test":"Glucose","cat":"CHEMISTRY","orres":"6.9","orresu":"mmol/L","stresc":"6.9","stresn":"6.9","stresu":"mmol/L","stnrlo":"3.9","stnrhi":"5.6","nrind":"HIGH","fast":null,"dtc":"2024-04-29","dy":"1","visit":"RANDOMIZATION","visitnum":"2.0","epoch":"TREATMENT","spec":null,"method":null},{"seq":"12","testcd":"HGB","test":"Hemoglobin","cat":"HEMATOLOGY","orres":"143.27","orresu":"g/L","stresc":"143.27","stresn":"143.27","stresu":"g/L","stnrlo":"130","stnrhi":"175","nrind":"NORMAL","fast":null,"dtc":"2024-04-29","dy":"1","visit":"RANDOMIZATION","visitnum":"2.0","epoch":"TREATMENT","spec":null,"method":null},{"seq":"13","testcd":"PLAT","test":"Platelets","cat":"HEMATOLOGY","orres":"271.04","orresu":"10^9/L","stresc":"271.04","stresn":"271.04","stresu":"10^9/L","stnrlo":"150","stnrhi":"400","nrind":"NORMAL","fast":null,"dtc":"2024-04-29","dy":"1","visit":"RANDOMIZATION","visitnum":"2.0","epoch":"TREATMENT","spec":null,"method":null},{"seq":"14","testcd":"WBC","test":"Leukocytes","cat":"HEMATOLOGY","orres":"8.98","orresu":"10^9/L","stresc":"8.98","stresn":"8.98","stresu":"10^9/L","stnrlo":"4.0","stnrhi":"11.0","nrind":"NORMAL","fast":null,"dtc":"2024-04-29","dy":"1","visit":"RANDOMIZATION","visitnum":"2.0","epoch":"TREATMENT","spec":null,"method":null},{"seq":"15","testcd":"ALT","test":"Alanine Aminotransferase","cat":"CHEMISTRY","orres":"37.07","orresu":"U/L","stresc":"37.07","stresn":"37.07","stresu":"U/L","stnrlo":"7","stnrhi":"56","nrind":"NORMAL","fast":null,"dtc":"2024-05-30","dy":"32","visit":"WEEK 4","visitnum":"3.0","epoch":"TREATMENT","spec":null,"method":null},{"seq":"16","testcd":"AST","test":"Aspartate Aminotransferase","cat":"CHEMISTRY","orres":"9.92","orresu":"U/L","stresc":"9.92","stresn":"9.92","stresu":"U/L","stnrlo":"10","stnrhi":"40","nrind":"LOW","fast":null,"dtc":"2024-05-30","dy":"32","visit":"WEEK 4","visitnum":"3.0","epoch":"TREATMENT","spec":null,"method":null},{"seq":"17","testcd":"CREAT","test":"Creatinine","cat":"CHEMISTRY","orres":"30.0","orresu":"umol/L","stresc":"30.0","stresn":"30.0","stresu":"umol/L","stnrlo":"62","stnrhi":"106","nrind":"LOW","fast":null,"dtc":"2024-05-30","dy":"32","visit":"WEEK 4","visitnum":"3.0","epoch":"TREATMENT","spec":null,"method":null},{"seq":"18","testcd":"GLUC","test":"Glucose","cat":"CHEMISTRY","orres":"7.07","orresu":"mmol/L","stresc":"7.07","stresn":"7.07","stresu":"mmol/L","stnrlo":"3.9","stnrhi":"5.6","nrind":"HIGH","fast":null,"dtc":"2024-05-30","dy":"32","visit":"WEEK 4","visitnum":"3.0","epoch":"TREATMENT","spec":null,"method":null},{"seq":"19","testcd":"HGB","test":"Hemoglobin","cat":"HEMATOLOGY","orres":"142.38","orresu":"g/L","stresc":"142.38","stresn":"142.38","stresu":"g/L","stnrlo":"130","stnrhi":"175","nrind":"NORMAL","fast":null,"dtc":"2024-05-30","dy":"32","visit":"WEEK 4","visitnum":"3.0","epoch":"TREATMENT","spec":null,"method":null},{"seq":"20","testcd":"PLAT","test":"Platelets","cat":"HEMATOLOGY","orres":"288.79","orresu":"10^9/L","stresc":"288.79","stresn":"288.79","stresu":"10^9/L","stnrlo":"150","stnrhi":"400","nrind":"NORMAL","fast":null,"dtc":"2024-05-30","dy":"32","visit":"WEEK 4","visitnum":"3.0","epoch":"TREATMENT","spec":null,"method":null},{"seq":"21","testcd":"WBC","test":"Leukocytes","cat":"HEMATOLOGY","orres":"8.73","orresu":"10^9/L","stresc":"8.73","stresn":"8.73","stresu":"10^9/L","stnrlo":"4.0","stnrhi":"11.0","nrind":"NORMAL","fast":null,"dtc":"2024-05-30","dy":"32","visit":"WEEK 4","visitnum":"3.0","epoch":"TREATMENT","spec":null,"method":null},{"seq":"22","testcd":"ALT","test":"Alanine Aminotransferase","cat":"CHEMISTRY","orres":"36.27","orresu":"U/L","stresc":"36.27","stresn":"36.27","stresu":"U/L","stnrlo":"7","stnrhi":"56","nrind":"NORMAL","fast":null,"dtc":"2024-10-10","dy":"165","visit":"WEEK 24","visitnum":"5.0","epoch":"TREATMENT","spec":null,"method":null},{"seq":"23","testcd":"AST","test":"Aspartate Aminotransferase","cat":"CHEMISTRY","orres":"11.17","orresu":"U/L","stresc":"11.17","stresn":"11.17","stresu":"U/L","stnrlo":"10","stnrhi":"40","nrind":"NORMAL","fast":null,"dtc":"2024-10-10","dy":"165","visit":"WEEK 24","visitnum":"5.0","epoch":"TREATMENT","spec":null,"method":null},{"seq":"24","testcd":"CREAT","test":"Creatinine","cat":"CHEMISTRY","orres":"42.02","orresu":"umol/L","stresc":"42.02","stresn":"42.02","stresu":"umol/L","stnrlo":"62","stnrhi":"106","nrind":"LOW","fast":null,"dtc":"2024-10-10","dy":"165","visit":"WEEK 24","visitnum":"5.0","epoch":"TREATMENT","spec":null,"method":null},{"seq":"25","testcd":"GLUC","test":"Glucose","cat":"CHEMISTRY","orres":"6.78","orresu":"mmol/L","stresc":"6.78","stresn":"6.78","stresu":"mmol/L","stnrlo":"3.9","stnrhi":"5.6","nrind":"HIGH","fast":null,"dtc":"2024-10-10","dy":"165","visit":"WEEK 24","visitnum":"5.0","epoch":"TREATMENT","spec":null,"method":null},{"seq":"26","testcd":"HGB","test":"Hemoglobin","cat":"HEMATOLOGY","orres":"143.04","orresu":"g/L","stresc":"143.04","stresn":"143.04","stresu":"g/L","stnrlo":"130","stnrhi":"175","nrind":"NORMAL","fast":null,"dtc":"2024-10-10","dy":"165","visit":"WEEK 24","visitnum":"5.0","epoch":"TREATMENT","spec":null,"method":null},{"seq":"27","testcd":"PLAT","test":"Platelets","cat":"HEMATOLOGY","orres":"285.45","orresu":"10^9/L","stresc":"285.45","stresn":"285.45","stresu":"10^9/L","stnrlo":"150","stnrhi":"400","nrind":"NORMAL","fast":null,"dtc":"2024-10-10","dy":"165","visit":"WEEK 24","visitnum":"5.0","epoch":"TREATMENT","spec":null,"method":null},{"seq":"28","testcd":"WBC","test":"Leukocytes","cat":"HEMATOLOGY","orres":"8.88","orresu":"10^9/L","stresc":"8.88","stresn":"8.88","stresu":"10^9/L","stnrlo":"4.0","stnrhi":"11.0","nrind":"NORMAL","fast":null,"dtc":"2024-10-10","dy":"165","visit":"WEEK 24","visitnum":"5.0","epoch":"TREATMENT","spec":null,"method":null},{"seq":"29","testcd":"ALT","test":"Alanine Aminotransferase","cat":"CHEMISTRY","orres":"35.45","orresu":"U/L","stresc":"35.45","stresn":"35.45","stresu":"U/L","stnrlo":"7","stnrhi":"56","nrind":"NORMAL","fast":null,"dtc":"2024-12-31","dy":"247","visit":"WEEK 36","visitnum":"6.0","epoch":"TREATMENT","spec":null,"method":null},{"seq":"30","testcd":"AST","test":"Aspartate Aminotransferase","cat":"CHEMISTRY","orres":"10.78","orresu":"U/L","stresc":"10.78","stresn":"10.78","stresu":"U/L","stnrlo":"10","stnrhi":"40","nrind":"NORMAL","fast":null,"dtc":"2024-12-31","dy":"247","visit":"WEEK 36","visitnum":"6.0","epoch":"TREATMENT","spec":null,"method":null},{"seq":"31","testcd":"CREAT","test":"Creatinine","cat":"CHEMISTRY","orres":"31.01","orresu":"umol/L","stresc":"31.01","stresn":"31.01","stresu":"umol/L","stnrlo":"62","stnrhi":"106","nrind":"LOW","fast":null,"dtc":"2024-12-31","dy":"247","visit":"WEEK 36","visitnum":"6.0","epoch":"TREATMENT","spec":null,"method":null},{"seq":"32","testcd":"GLUC","test":"Glucose","cat":"CHEMISTRY","orres":"6.96","orresu":"mmol/L","stresc":"6.96","stresn":"6.96","stresu":"mmol/L","stnrlo":"3.9","stnrhi":"5.6","nrind":"HIGH","fast":null,"dtc":"2024-12-31","dy":"247","visit":"WEEK 36","visitnum":"6.0","epoch":"TREATMENT","spec":null,"method":null},{"seq":"33","testcd":"HGB","test":"Hemoglobin","cat":"HEMATOLOGY","orres":"142.11","orresu":"g/L","stresc":"142.11","stresn":"142.11","stresu":"g/L","stnrlo":"130","stnrhi":"175","nrind":"NORMAL","fast":null,"dtc":"2024-12-31","dy":"247","visit":"WEEK 36","visitnum":"6.0","epoch":"TREATMENT","spec":null,"method":null},{"seq":"34","testcd":"PLAT","test":"Platelets","cat":"HEMATOLOGY","orres":"272.07","orresu":"10^9/L","stresc":"272.07","stresn":"272.07","stresu":"10^9/L","stnrlo":"150","stnrhi":"400","nrind":"NORMAL","fast":null,"dtc":"2024-12-31","dy":"247","visit":"WEEK 36","visitnum":"6.0","epoch":"TREATMENT","spec":null,"method":null},{"seq":"35","testcd":"WBC","test":"Leukocytes","cat":"HEMATOLOGY","orres":"8.49","orresu":"10^9/L","stresc":"8.49","stresn":"8.49","stresu":"10^9/L","stnrlo":"4.0","stnrhi":"11.0","nrind":"NORMAL","fast":null,"dtc":"2024-12-31","dy":"247","visit":"WEEK 36","visitnum":"6.0","epoch":"TREATMENT","spec":null,"method":null},{"seq":"36","testcd":"ALT","test":"Alanine Aminotransferase","cat":"CHEMISTRY","orres":"33.8","orresu":"U/L","stresc":"33.8","stresn":"33.8","stresu":"U/L","stnrlo":"7","stnrhi":"56","nrind":"NORMAL","fast":null,"dtc":"2025-05-02","dy":"369","visit":"WEEK 52","visitnum":"7.0","epoch":"TREATMENT","spec":null,"method":null},{"seq":"37","testcd":"AST","test":"Aspartate Aminotransferase","cat":"CHEMISTRY","orres":"9.35","orresu":"U/L","stresc":"9.35","stresn":"9.35","stresu":"U/L","stnrlo":"10","stnrhi":"40","nrind":"LOW","fast":null,"dtc":"2025-05-02","dy":"369","visit":"WEEK 52","visitnum":"7.0","epoch":"TREATMENT","spec":null,"method":null},{"seq":"38","testcd":"CREAT","test":"Creatinine","cat":"CHEMISTRY","orres":"32.59","orresu":"umol/L","stresc":"32.59","stresn":"32.59","stresu":"umol/L","stnrlo":"62","stnrhi":"106","nrind":"LOW","fast":null,"dtc":"2025-05-02","dy":"369","visit":"WEEK 52","visitnum":"7.0","epoch":"TREATMENT","spec":null,"method":null},{"seq":"39","testcd":"GLUC","test":"Glucose","cat":"CHEMISTRY","orres":"6.85","orresu":"mmol/L","stresc":"6.85","stresn":"6.85","stresu":"mmol/L","stnrlo":"3.9","stnrhi":"5.6","nrind":"HIGH","fast":null,"dtc":"2025-05-02","dy":"369","visit":"WEEK 52","visitnum":"7.0","epoch":"TREATMENT","spec":null,"method":null},{"seq":"40","testcd":"HGB","test":"Hemoglobin","cat":"HEMATOLOGY","orres":null,"orresu":null,"stresc":null,"stresn":null,"stresu":null,"stnrlo":null,"stnrhi":null,"nrind":null,"fast":null,"dtc":"2025-05-02","dy":"369","visit":"WEEK 52","visitnum":"7.0","epoch":"TREATMENT","spec":null,"method":null},{"seq":"41","testcd":"PLAT","test":"Platelets","cat":"HEMATOLOGY","orres":"279.11","orresu":"10^9/L","stresc":"279.11","stresn":"279.11","stresu":"10^9/L","stnrlo":"150","stnrhi":"400","nrind":"NORMAL","fast":null,"dtc":"2025-05-02","dy":"369","visit":"WEEK 52","visitnum":"7.0","epoch":"TREATMENT","spec":null,"method":null},{"seq":"42","testcd":"WBC","test":"Leukocytes","cat":"HEMATOLOGY","orres":"8.58","orresu":"10^9/L","stresc":"8.58","stresn":"8.58","stresu":"10^9/L","stnrlo":"4.0","stnrhi":"11.0","nrind":"NORMAL","fast":null,"dtc":"2025-05-02","dy":"369","visit":"WEEK 52","visitnum":"7.0","epoch":"TREATMENT","spec":null,"method":null},{"seq":"43","testcd":"ALT","test":"Alanine Aminotransferase","cat":"CHEMISTRY","orres":"34.28","orresu":"U/L","stresc":"34.28","stresn":"34.28","stresu":"U/L","stnrlo":"7","stnrhi":"56","nrind":"NORMAL","fast":null,"dtc":"2025-06-04","dy":"402","visit":"FOLLOW-UP","visitnum":"8.0","epoch":"FOLLOW-UP","spec":null,"method":null},{"seq":"44","testcd":"AST","test":"Aspartate Aminotransferase","cat":"CHEMISTRY","orres":"9.23","orresu":"U/L","stresc":"9.23","stresn":"9.23","stresu":"U/L","stnrlo":"10","stnrhi":"40","nrind":"LOW","fast":null,"dtc":"2025-06-04","dy":"402","visit":"FOLLOW-UP","visitnum":"8.0","epoch":"FOLLOW-UP","spec":null,"method":null},{"seq":"45","testcd":"CREAT","test":"Creatinine","cat":"CHEMISTRY","orres":"30.0","orresu":"umol/L","stresc":"30.0","stresn":"30.0","stresu":"umol/L","stnrlo":"62","stnrhi":"106","nrind":"LOW","fast":null,"dtc":"2025-06-04","dy":"402","visit":"FOLLOW-UP","visitnum":"8.0","epoch":"FOLLOW-UP","spec":null,"method":null},{"seq":"46","testcd":"GLUC","test":"Glucose","cat":"CHEMISTRY","orres":"6.86","orresu":"mmol/L","stresc":"6.86","stresn":"6.86","stresu":"mmol/L","stnrlo":"3.9","stnrhi":"5.6","nrind":"HIGH","fast":null,"dtc":"2025-06-04","dy":"402","visit":"FOLLOW-UP","visitnum":"8.0","epoch":"FOLLOW-UP","spec":null,"method":null},{"seq":"47","testcd":"HGB","test":"Hemoglobin","cat":"HEMATOLOGY","orres":"141.71","orresu":"g/L","stresc":"141.71","stresn":"141.71","stresu":"g/L","stnrlo":"130","stnrhi":"175","nrind":"NORMAL","fast":null,"dtc":"2025-06-04","dy":"402","visit":"FOLLOW-UP","visitnum":"8.0","epoch":"FOLLOW-UP","spec":null,"method":null},{"seq":"48","testcd":"PLAT","test":"Platelets","cat":"HEMATOLOGY","orres":"288.76","orresu":"10^9/L","stresc":"288.76","stresn":"288.76","stresu":"10^9/L","stnrlo":"150","stnrhi":"400","nrind":"NORMAL","fast":null,"dtc":"2025-06-04","dy":"402","visit":"FOLLOW-UP","visitnum":"8.0","epoch":"FOLLOW-UP","spec":null,"method":null},{"seq":"49","testcd":"WBC","test":"Leukocytes","cat":"HEMATOLOGY","orres":"8.51","orresu":"10^9/L","stresc":"8.51","stresn":"8.51","stresu":"10^9/L","stnrlo":"4.0","stnrhi":"11.0","nrind":"NORMAL","fast":null,"dtc":"2025-06-04","dy":"402","visit":"FOLLOW-UP","visitnum":"8.0","epoch":"FOLLOW-UP","spec":null,"method":null}]},"section_9_vital_signs":{"summary":{"total_records":64},"trends":{"BMI":[{"visit":"SCREENING","visitnum":"1.0","dtc":"2024-04-10","value":"22.9","unit":"kg/m2"},{"visit":"RANDOMIZATION","visitnum":"2.0","dtc":"2024-04-29","value":"24.5","unit":"kg/m2"},{"visit":"WEEK 4","visitnum":"3.0","dtc":"2024-05-30","value":"24.7","unit":"kg/m2"},{"visit":"WEEK 12","visitnum":"4.0","dtc":"2024-07-29","value":"24.8","unit":"kg/m2"},{"visit":"WEEK 24","visitnum":"5.0","dtc":"2024-10-10","value":"24.4","unit":"kg/m2"},{"visit":"WEEK 36","visitnum":"6.0","dtc":"2024-12-31","value":"23.5","unit":"kg/m2"},{"visit":"WEEK 52","visitnum":"7.0","dtc":"2025-05-02","value":"23.1","unit":"kg/m2"},{"visit":"FOLLOW-UP","visitnum":"8.0","dtc":"2025-06-04","value":"23.7","unit":"kg/m2"}],"DIABP":[{"visit":"SCREENING","visitnum":"1.0","dtc":"2024-04-10","value":"88.7","unit":"mmHg"},{"visit":"RANDOMIZATION","visitnum":"2.0","dtc":"2024-04-29","value":"90.9","unit":"mmHg"},{"visit":"WEEK 4","visitnum":"3.0","dtc":"2024-05-30","value":"89.9","unit":"mmHg"},{"visit":"WEEK 12","visitnum":"4.0","dtc":"2024-07-29","value":"90.7","unit":"mmHg"},{"visit":"WEEK 24","visitnum":"5.0","dtc":"2024-10-10","value":"91.0","unit":"mmHg"},{"visit":"WEEK 36","visitnum":"6.0","dtc":"2024-12-31","value":"89.9","unit":"mmHg"},{"visit":"WEEK 52","visitnum":"7.0","dtc":"2025-05-02","value":"90.3","unit":"mmHg"},{"visit":"FOLLOW-UP","visitnum":"8.0","dtc":"2025-06-04","value":"92.1","unit":"mmHg"}],"HEIGHT":[{"visit":"SCREENING","visitnum":"1.0","dtc":"2024-04-10","value":"185.0","unit":"cm"},{"visit":"RANDOMIZATION","visitnum":"2.0","dtc":"2024-04-29","value":"184.4","unit":"cm"},{"visit":"WEEK 4","visitnum":"3.0","dtc":"2024-05-30","value":"185.3","unit":"cm"},{"visit":"WEEK 12","visitnum":"4.0","dtc":"2024-07-29","value":"185.0","unit":"cm"},{"visit":"WEEK 24","visitnum":"5.0","dtc":"2024-10-10","value":"185.5","unit":"cm"},{"visit":"WEEK 36","visitnum":"6.0","dtc":"2024-12-31","value":"185.6","unit":"cm"},{"visit":"WEEK 52","visitnum":"7.0","dtc":"2025-05-02","value":"185.5","unit":"cm"},{"visit":"FOLLOW-UP","visitnum":"8.0","dtc":"2025-06-04","value":"186.2","unit":"cm"}],"PULSE":[{"visit":"SCREENING","visitnum":"1.0","dtc":"2024-04-10","value":"75.3","unit":"beats/min"},{"visit":"RANDOMIZATION","visitnum":"2.0","dtc":"2024-04-29","value":"76.4","unit":"beats/min"},{"visit":"WEEK 4","visitnum":"3.0","dtc":"2024-05-30","value":"81.5","unit":"beats/min"},{"visit":"WEEK 12","visitnum":"4.0","dtc":"2024-07-29","value":"103.6","unit":"beats/min"},{"visit":"WEEK 24","visitnum":"5.0","dtc":"2024-10-10","value":"85.1","unit":"beats/min"},{"visit":"WEEK 36","visitnum":"6.0","dtc":"2024-12-31","value":"104.3","unit":"beats/min"},{"visit":"WEEK 52","visitnum":"7.0","dtc":"2025-05-02","value":"82.1","unit":"beats/min"},{"visit":"FOLLOW-UP","visitnum":"8.0","dtc":"2025-06-04","value":"80.7","unit":"beats/min"}],"RESP":[{"visit":"SCREENING","visitnum":"1.0","dtc":"2024-04-10","value":"17.0","unit":"breaths/min"},{"visit":"RANDOMIZATION","visitnum":"2.0","dtc":"2024-04-29","value":"16.1","unit":"breaths/min"},{"visit":"WEEK 4","visitnum":"3.0","dtc":"2024-05-30","value":"16.7","unit":"breaths/min"},{"visit":"WEEK 12","visitnum":"4.0","dtc":"2024-07-29","value":"17.9","unit":"breaths/min"},{"visit":"WEEK 24","visitnum":"5.0","dtc":"2024-10-10","value":"18.6","unit":"breaths/min"},{"visit":"WEEK 36","visitnum":"6.0","dtc":"2024-12-31","value":"18.4","unit":"breaths/min"},{"visit":"WEEK 52","visitnum":"7.0","dtc":"2025-05-02","value":"18.7","unit":"breaths/min"},{"visit":"FOLLOW-UP","visitnum":"8.0","dtc":"2025-06-04","value":"18.1","unit":"breaths/min"}],"SYSBP":[{"visit":"SCREENING","visitnum":"1.0","dtc":"2024-04-10","value":"135.0","unit":"mmHg"},{"visit":"RANDOMIZATION","visitnum":"2.0","dtc":"2024-04-29","value":"139.2","unit":"mmHg"},{"visit":"WEEK 4","visitnum":"3.0","dtc":"2024-05-30","value":"137.6","unit":"mmHg"},{"visit":"WEEK 12","visitnum":"4.0","dtc":"2024-07-29","value":"124.0","unit":"mmHg"},{"visit":"WEEK 24","visitnum":"5.0","dtc":"2024-10-10","value":"138.8","unit":"mmHg"},{"visit":"WEEK 36","visitnum":"6.0","dtc":"2024-12-31","value":"121.5","unit":"mmHg"},{"visit":"WEEK 52","visitnum":"7.0","dtc":"2025-05-02","value":"139.3","unit":"mmHg"},{"visit":"FOLLOW-UP","visitnum":"8.0","dtc":"2025-06-04","value":"139.1","unit":"mmHg"}],"TEMP":[{"visit":"SCREENING","visitnum":"1.0","dtc":"2024-04-10","value":"36.9","unit":"C"},{"visit":"RANDOMIZATION","visitnum":"2.0","dtc":"2024-04-29","value":"36.8","unit":"C"},{"visit":"WEEK 4","visitnum":"3.0","dtc":"2024-05-30","value":"36.8","unit":"C"},{"visit":"WEEK 12","visitnum":"4.0","dtc":"2024-07-29","value":"36.9","unit":"C"},{"visit":"WEEK 24","visitnum":"5.0","dtc":"2024-10-10","value":"37.0","unit":"C"},{"visit":"WEEK 36","visitnum":"6.0","dtc":"2024-12-31","value":"37.1","unit":"C"},{"visit":"WEEK 52","visitnum":"7.0","dtc":"2025-05-02","value":"37.1","unit":"C"},{"visit":"FOLLOW-UP","visitnum":"8.0","dtc":"2025-06-04","value":"37.0","unit":"C"}],"WEIGHT":[{"visit":"SCREENING","visitnum":"1.0","dtc":"2024-04-10","value":"78.3","unit":"kg"},{"visit":"RANDOMIZATION","visitnum":"2.0","dtc":"2024-04-29","value":"83.4","unit":"kg"},{"visit":"WEEK 4","visitnum":"3.0","dtc":"2024-05-30","value":"84.7","unit":"kg"},{"visit":"WEEK 12","visitnum":"4.0","dtc":"2024-07-29","value":"85.0","unit":"kg"},{"visit":"WEEK 24","visitnum":"5.0","dtc":"2024-10-10","value":"83.8","unit":"kg"},{"visit":"WEEK 36","visitnum":"6.0","dtc":"2024-12-31","value":"81.1","unit":"kg"},{"visit":"WEEK 52","visitnum":"7.0","dtc":"2025-05-02","value":"79.4","unit":"kg"},{"visit":"FOLLOW-UP","visitnum":"8.0","dtc":"2025-06-04","value":"82.2","unit":"kg"}]},"results":[{"seq":"1","testcd":"BMI","test":"BMI","cat":null,"orres":"22.9","orresu":"kg/m2","stresc":"22.9","stresn":"22.9","stresu":"kg/m2","stnrlo":null,"stnrhi":null,"nrind":null,"pos":null,"loc":null,"dtc":"2024-04-10","dy":"-19","visit":"SCREENING","visitnum":"1.0","epoch":"SCREENING"},{"seq":"2","testcd":"DIABP","test":"Diastolic Blood Pressure","cat":null,"orres":"88.7","orresu":"mmHg","stresc":"88.7","stresn":"88.7","stresu":"mmHg","stnrlo":null,"stnrhi":null,"nrind":null,"pos":null,"loc":null,"dtc":"2024-04-10","dy":"-19","visit":"SCREENING","visitnum":"1.0","epoch":"SCREENING"},{"seq":"3","testcd":"HEIGHT","test":"Height","cat":null,"orres":"185.0","orresu":"cm","stresc":"185.0","stresn":"185.0","stresu":"cm","stnrlo":null,"stnrhi":null,"nrind":null,"pos":null,"loc":null,"dtc":"2024-04-10","dy":"-19","visit":"SCREENING","visitnum":"1.0","epoch":"SCREENING"},{"seq":"4","testcd":"PULSE","test":"Pulse Rate","cat":null,"orres":"75.3","orresu":"beats/min","stresc":"75.3","stresn":"75.3","stresu":"beats/min","stnrlo":null,"stnrhi":null,"nrind":null,"pos":null,"loc":null,"dtc":"2024-04-10","dy":"-19","visit":"SCREENING","visitnum":"1.0","epoch":"SCREENING"},{"seq":"5","testcd":"RESP","test":"Respiratory Rate","cat":null,"orres":"17.0","orresu":"breaths/min","stresc":"17.0","stresn":"17.0","stresu":"breaths/min","stnrlo":null,"stnrhi":null,"nrind":null,"pos":null,"loc":null,"dtc":"2024-04-10","dy":"-19","visit":"SCREENING","visitnum":"1.0","epoch":"SCREENING"},{"seq":"6","testcd":"SYSBP","test":"Systolic Blood Pressure","cat":null,"orres":"135.0","orresu":"mmHg","stresc":"135.0","stresn":"135.0","stresu":"mmHg","stnrlo":null,"stnrhi":null,"nrind":null,"pos":null,"loc":null,"dtc":"2024-04-10","dy":"-19","visit":"SCREENING","visitnum":"1.0","epoch":"SCREENING"},{"seq":"7","testcd":"TEMP","test":"Temperature","cat":null,"orres":"36.9","orresu":"C","stresc":"36.9","stresn":"36.9","stresu":"C","stnrlo":null,"stnrhi":null,"nrind":null,"pos":null,"loc":null,"dtc":"2024-04-10","dy":"-19","visit":"SCREENING","visitnum":"1.0","epoch":"SCREENING"},{"seq":"8","testcd":"WEIGHT","test":"Weight","cat":null,"orres":"78.3","orresu":"kg","stresc":"78.3","stresn":"78.3","stresu":"kg","stnrlo":null,"stnrhi":null,"nrind":null,"pos":null,"loc":null,"dtc":"2024-04-10","dy":"-19","visit":"SCREENING","visitnum":"1.0","epoch":"SCREENING"},{"seq":"9","testcd":"BMI","test":"BMI","cat":null,"orres":"24.5","orresu":"kg/m2","stresc":"24.5","stresn":"24.5","stresu":"kg/m2","stnrlo":null,"stnrhi":null,"nrind":null,"pos":null,"loc":null,"dtc":"2024-04-29","dy":"1","visit":"RANDOMIZATION","visitnum":"2.0","epoch":"TREATMENT"},{"seq":"10","testcd":"DIABP","test":"Diastolic Blood Pressure","cat":null,"orres":"90.9","orresu":"mmHg","stresc":"90.9","stresn":"90.9","stresu":"mmHg","stnrlo":null,"stnrhi":null,"nrind":null,"pos":null,"loc":null,"dtc":"2024-04-29","dy":"1","visit":"RANDOMIZATION","visitnum":"2.0","epoch":"TREATMENT"},{"seq":"11","testcd":"HEIGHT","test":"Height","cat":null,"orres":"184.4","orresu":"cm","stresc":"184.4","stresn":"184.4","stresu":"cm","stnrlo":null,"stnrhi":null,"nrind":null,"pos":null,"loc":null,"dtc":"2024-04-29","dy":"1","visit":"RANDOMIZATION","visitnum":"2.0","epoch":"TREATMENT"},{"seq":"12","testcd":"PULSE","test":"Pulse Rate","cat":null,"orres":"76.4","orresu":"beats/min","stresc":"76.4","stresn":"76.4","stresu":"beats/min","stnrlo":null,"stnrhi":null,"nrind":null,"pos":null,"loc":null,"dtc":"2024-04-29","dy":"1","visit":"RANDOMIZATION","visitnum":"2.0","epoch":"TREATMENT"},{"seq":"13","testcd":"RESP","test":"Respiratory Rate","cat":null,"orres":"16.1","orresu":"breaths/min","stresc":"16.1","stresn":"16.1","stresu":"breaths/min","stnrlo":null,"stnrhi":null,"nrind":null,"pos":null,"loc":null,"dtc":"2024-04-29","dy":"1","visit":"RANDOMIZATION","visitnum":"2.0","epoch":"TREATMENT"},{"seq":"14","testcd":"SYSBP","test":"Systolic Blood Pressure","cat":null,"orres":"139.2","orresu":"mmHg","stresc":"139.2","stresn":"139.2","stresu":"mmHg","stnrlo":null,"stnrhi":null,"nrind":null,"pos":null,"loc":null,"dtc":"2024-04-29","dy":"1","visit":"RANDOMIZATION","visitnum":"2.0","epoch":"TREATMENT"},{"seq":"15","testcd":"TEMP","test":"Temperature","cat":null,"orres":"36.8","orresu":"C","stresc":"36.8","stresn":"36.8","stresu":"C","stnrlo":null,"stnrhi":null,"nrind":null,"pos":null,"loc":null,"dtc":"2024-04-29","dy":"1","visit":"RANDOMIZATION","visitnum":"2.0","epoch":"TREATMENT"},{"seq":"16","testcd":"WEIGHT","test":"Weight","cat":null,"orres":"83.4","orresu":"kg","stresc":"83.4","stresn":"83.4","stresu":"kg","stnrlo":null,"stnrhi":null,"nrind":null,"pos":null,"loc":null,"dtc":"2024-04-29","dy":"1","visit":"RANDOMIZATION","visitnum":"2.0","epoch":"TREATMENT"},{"seq":"17","testcd":"BMI","test":"BMI","cat":null,"orres":"24.7","orresu":"kg/m2","stresc":"24.7","stresn":"24.7","stresu":"kg/m2","stnrlo":null,"stnrhi":null,"nrind":null,"pos":null,"loc":null,"dtc":"2024-05-30","dy":"32","visit":"WEEK 4","visitnum":"3.0","epoch":"TREATMENT"},{"seq":"18","testcd":"DIABP","test":"Diastolic Blood Pressure","cat":null,"orres":"89.9","orresu":"mmHg","stresc":"89.9","stresn":"89.9","stresu":"mmHg","stnrlo":null,"stnrhi":null,"nrind":null,"pos":null,"loc":null,"dtc":"2024-05-30","dy":"32","visit":"WEEK 4","visitnum":"3.0","epoch":"TREATMENT"},{"seq":"19","testcd":"HEIGHT","test":"Height","cat":null,"orres":"185.3","orresu":"cm","stresc":"185.3","stresn":"185.3","stresu":"cm","stnrlo":null,"stnrhi":null,"nrind":null,"pos":null,"loc":null,"dtc":"2024-05-30","dy":"32","visit":"WEEK 4","visitnum":"3.0","epoch":"TREATMENT"},{"seq":"20","testcd":"PULSE","test":"Pulse Rate","cat":null,"orres":"81.5","orresu":"beats/min","stresc":"81.5","stresn":"81.5","stresu":"beats/min","stnrlo":null,"stnrhi":null,"nrind":null,"pos":null,"loc":null,"dtc":"2024-05-30","dy":"32","visit":"WEEK 4","visitnum":"3.0","epoch":"TREATMENT"},{"seq":"21","testcd":"RESP","test":"Respiratory Rate","cat":null,"orres":"16.7","orresu":"breaths/min","stresc":"16.7","stresn":"16.7","stresu":"breaths/min","stnrlo":null,"stnrhi":null,"nrind":null,"pos":null,"loc":null,"dtc":"2024-05-30","dy":"32","visit":"WEEK 4","visitnum":"3.0","epoch":"TREATMENT"},{"seq":"22","testcd":"SYSBP","test":"Systolic Blood Pressure","cat":null,"orres":"137.6","orresu":"mmHg","stresc":"137.6","stresn":"137.6","stresu":"mmHg","stnrlo":null,"stnrhi":null,"nrind":null,"pos":null,"loc":null,"dtc":"2024-05-30","dy":"32","visit":"WEEK 4","visitnum":"3.0","epoch":"TREATMENT"},{"seq":"23","testcd":"TEMP","test":"Temperature","cat":null,"orres":"36.8","orresu":"C","stresc":"36.8","stresn":"36.8","stresu":"C","stnrlo":null,"stnrhi":null,"nrind":null,"pos":null,"loc":null,"dtc":"2024-05-30","dy":"32","visit":"WEEK 4","visitnum":"3.0","epoch":"TREATMENT"},{"seq":"24","testcd":"WEIGHT","test":"Weight","cat":null,"orres":"84.7","orresu":"kg","stresc":"84.7","stresn":"84.7","stresu":"kg","stnrlo":null,"stnrhi":null,"nrind":null,"pos":null,"loc":null,"dtc":"2024-05-30","dy":"32","visit":"WEEK 4","visitnum":"3.0","epoch":"TREATMENT"},{"seq":"25","testcd":"BMI","test":"BMI","cat":null,"orres":"24.8","orresu":"kg/m2","stresc":"24.8","stresn":"24.8","stresu":"kg/m2","stnrlo":null,"stnrhi":null,"nrind":null,"pos":null,"loc":null,"dtc":"2024-07-29","dy":"92","visit":"WEEK 12","visitnum":"4.0","epoch":"TREATMENT"},{"seq":"26","testcd":"DIABP","test":"Diastolic Blood Pressure","cat":null,"orres":"90.7","orresu":"mmHg","stresc":"90.7","stresn":"90.7","stresu":"mmHg","stnrlo":null,"stnrhi":null,"nrind":null,"pos":null,"loc":null,"dtc":"2024-07-29","dy":"92","visit":"WEEK 12","visitnum":"4.0","epoch":"TREATMENT"},{"seq":"27","testcd":"HEIGHT","test":"Height","cat":null,"orres":"185.0","orresu":"cm","stresc":"185.0","stresn":"185.0","stresu":"cm","stnrlo":null,"stnrhi":null,"nrind":null,"pos":null,"loc":null,"dtc":"2024-07-29","dy":"92","visit":"WEEK 12","visitnum":"4.0","epoch":"TREATMENT"},{"seq":"28","testcd":"PULSE","test":"Pulse Rate","cat":null,"orres":"103.6","orresu":"beats/min","stresc":"103.6","stresn":"103.6","stresu":"beats/min","stnrlo":null,"stnrhi":null,"nrind":null,"pos":null,"loc":null,"dtc":"2024-07-29","dy":"92","visit":"WEEK 12","visitnum":"4.0","epoch":"TREATMENT"},{"seq":"29","testcd":"RESP","test":"Respiratory Rate","cat":null,"orres":"17.9","orresu":"breaths/min","stresc":"17.9","stresn":"17.9","stresu":"breaths/min","stnrlo":null,"stnrhi":null,"nrind":null,"pos":null,"loc":null,"dtc":"2024-07-29","dy":"92","visit":"WEEK 12","visitnum":"4.0","epoch":"TREATMENT"},{"seq":"30","testcd":"SYSBP","test":"Systolic Blood Pressure","cat":null,"orres":"124.0","orresu":"mmHg","stresc":"124.0","stresn":"124.0","stresu":"mmHg","stnrlo":null,"stnrhi":null,"nrind":null,"pos":null,"loc":null,"dtc":"2024-07-29","dy":"92","visit":"WEEK 12","visitnum":"4.0","epoch":"TREATMENT"},{"seq":"31","testcd":"TEMP","test":"Temperature","cat":null,"orres":"36.9","orresu":"C","stresc":"36.9","stresn":"36.9","stresu":"C","stnrlo":null,"stnrhi":null,"nrind":null,"pos":null,"loc":null,"dtc":"2024-07-29","dy":"92","visit":"WEEK 12","visitnum":"4.0","epoch":"TREATMENT"},{"seq":"32","testcd":"WEIGHT","test":"Weight","cat":null,"orres":"85.0","orresu":"kg","stresc":"85.0","stresn":"85.0","stresu":"kg","stnrlo":null,"stnrhi":null,"nrind":null,"pos":null,"loc":null,"dtc":"2024-07-29","dy":"92","visit":"WEEK 12","visitnum":"4.0","epoch":"TREATMENT"},{"seq":"33","testcd":"BMI","test":"BMI","cat":null,"orres":"24.4","orresu":"kg/m2","stresc":"24.4","stresn":"24.4","stresu":"kg/m2","stnrlo":null,"stnrhi":null,"nrind":null,"pos":null,"loc":null,"dtc":"2024-10-10","dy":"165","visit":"WEEK 24","visitnum":"5.0","epoch":"TREATMENT"},{"seq":"34","testcd":"DIABP","test":"Diastolic Blood Pressure","cat":null,"orres":"91.0","orresu":"mmHg","stresc":"91.0","stresn":"91.0","stresu":"mmHg","stnrlo":null,"stnrhi":null,"nrind":null,"pos":null,"loc":null,"dtc":"2024-10-10","dy":"165","visit":"WEEK 24","visitnum":"5.0","epoch":"TREATMENT"},{"seq":"35","testcd":"HEIGHT","test":"Height","cat":null,"orres":"185.5","orresu":"cm","stresc":"185.5","stresn":"185.5","stresu":"cm","stnrlo":null,"stnrhi":null,"nrind":null,"pos":null,"loc":null,"dtc":"2024-10-10","dy":"165","visit":"WEEK 24","visitnum":"5.0","epoch":"TREATMENT"},{"seq":"36","testcd":"PULSE","test":"Pulse Rate","cat":null,"orres":"85.1","orresu":"beats/min","stresc":"85.1","stresn":"85.1","stresu":"beats/min","stnrlo":null,"stnrhi":null,"nrind":null,"pos":null,"loc":null,"dtc":"2024-10-10","dy":"165","visit":"WEEK 24","visitnum":"5.0","epoch":"TREATMENT"},{"seq":"37","testcd":"RESP","test":"Respiratory Rate","cat":null,"orres":"18.6","orresu":"breaths/min","stresc":"18.6","stresn":"18.6","stresu":"breaths/min","stnrlo":null,"stnrhi":null,"nrind":null,"pos":null,"loc":null,"dtc":"2024-10-10","dy":"165","visit":"WEEK 24","visitnum":"5.0","epoch":"TREATMENT"},{"seq":"38","testcd":"SYSBP","test":"Systolic Blood Pressure","cat":null,"orres":"138.8","orresu":"mmHg","stresc":"138.8","stresn":"138.8","stresu":"mmHg","stnrlo":null,"stnrhi":null,"nrind":null,"pos":null,"loc":null,"dtc":"2024-10-10","dy":"165","visit":"WEEK 24","visitnum":"5.0","epoch":"TREATMENT"},{"seq":"39","testcd":"TEMP","test":"Temperature","cat":null,"orres":"37.0","orresu":"C","stresc":"37.0","stresn":"37.0","stresu":"C","stnrlo":null,"stnrhi":null,"nrind":null,"pos":null,"loc":null,"dtc":"2024-10-10","dy":"165","visit":"WEEK 24","visitnum":"5.0","epoch":"TREATMENT"},{"seq":"40","testcd":"WEIGHT","test":"Weight","cat":null,"orres":"83.8","orresu":"kg","stresc":"83.8","stresn":"83.8","stresu":"kg","stnrlo":null,"stnrhi":null,"nrind":null,"pos":null,"loc":null,"dtc":"2024-10-10","dy":"165","visit":"WEEK 24","visitnum":"5.0","epoch":"TREATMENT"},{"seq":"41","testcd":"BMI","test":"BMI","cat":null,"orres":"23.5","orresu":"kg/m2","stresc":"23.5","stresn":"23.5","stresu":"kg/m2","stnrlo":null,"stnrhi":null,"nrind":null,"pos":null,"loc":null,"dtc":"2024-12-31","dy":"247","visit":"WEEK 36","visitnum":"6.0","epoch":"TREATMENT"},{"seq":"42","testcd":"DIABP","test":"Diastolic Blood Pressure","cat":null,"orres":"89.9","orresu":"mmHg","stresc":"89.9","stresn":"89.9","stresu":"mmHg","stnrlo":null,"stnrhi":null,"nrind":null,"pos":null,"loc":null,"dtc":"2024-12-31","dy":"247","visit":"WEEK 36","visitnum":"6.0","epoch":"TREATMENT"},{"seq":"43","testcd":"HEIGHT","test":"Height","cat":null,"orres":"185.6","orresu":"cm","stresc":"185.6","stresn":"185.6","stresu":"cm","stnrlo":null,"stnrhi":null,"nrind":null,"pos":null,"loc":null,"dtc":"2024-12-31","dy":"247","visit":"WEEK 36","visitnum":"6.0","epoch":"TREATMENT"},{"seq":"44","testcd":"PULSE","test":"Pulse Rate","cat":null,"orres":"104.3","orresu":"beats/min","stresc":"104.3","stresn":"104.3","stresu":"beats/min","stnrlo":null,"stnrhi":null,"nrind":null,"pos":null,"loc":null,"dtc":"2024-12-31","dy":"247","visit":"WEEK 36","visitnum":"6.0","epoch":"TREATMENT"},{"seq":"45","testcd":"RESP","test":"Respiratory Rate","cat":null,"orres":"18.4","orresu":"breaths/min","stresc":"18.4","stresn":"18.4","stresu":"breaths/min","stnrlo":null,"stnrhi":null,"nrind":null,"pos":null,"loc":null,"dtc":"2024-12-31","dy":"247","visit":"WEEK 36","visitnum":"6.0","epoch":"TREATMENT"},{"seq":"46","testcd":"SYSBP","test":"Systolic Blood Pressure","cat":null,"orres":"121.5","orresu":"mmHg","stresc":"121.5","stresn":"121.5","stresu":"mmHg","stnrlo":null,"stnrhi":null,"nrind":null,"pos":null,"loc":null,"dtc":"2024-12-31","dy":"247","visit":"WEEK 36","visitnum":"6.0","epoch":"TREATMENT"},{"seq":"47","testcd":"TEMP","test":"Temperature","cat":null,"orres":"37.1","orresu":"C","stresc":"37.1","stresn":"37.1","stresu":"C","stnrlo":null,"stnrhi":null,"nrind":null,"pos":null,"loc":null,"dtc":"2024-12-31","dy":"247","visit":"WEEK 36","visitnum":"6.0","epoch":"TREATMENT"},{"seq":"48","testcd":"WEIGHT","test":"Weight","cat":null,"orres":"81.1","orresu":"kg","stresc":"81.1","stresn":"81.1","stresu":"kg","stnrlo":null,"stnrhi":null,"nrind":null,"pos":null,"loc":null,"dtc":"2024-12-31","dy":"247","visit":"WEEK 36","visitnum":"6.0","epoch":"TREATMENT"},{"seq":"49","testcd":"BMI","test":"BMI","cat":null,"orres":"23.1","orresu":"kg/m2","stresc":"23.1","stresn":"23.1","stresu":"kg/m2","stnrlo":null,"stnrhi":null,"nrind":null,"pos":null,"loc":null,"dtc":"2025-05-02","dy":"369","visit":"WEEK 52","visitnum":"7.0","epoch":"TREATMENT"},{"seq":"50","testcd":"DIABP","test":"Diastolic Blood Pressure","cat":null,"orres":"90.3","orresu":"mmHg","stresc":"90.3","stresn":"90.3","stresu":"mmHg","stnrlo":null,"stnrhi":null,"nrind":null,"pos":null,"loc":null,"dtc":"2025-05-02","dy":"369","visit":"WEEK 52","visitnum":"7.0","epoch":"TREATMENT"},{"seq":"51","testcd":"HEIGHT","test":"Height","cat":null,"orres":"185.5","orresu":"cm","stresc":"185.5","stresn":"185.5","stresu":"cm","stnrlo":null,"stnrhi":null,"nrind":null,"pos":null,"loc":null,"dtc":"2025-05-02","dy":"369","visit":"WEEK 52","visitnum":"7.0","epoch":"TREATMENT"},{"seq":"52","testcd":"PULSE","test":"Pulse Rate","cat":null,"orres":"82.1","orresu":"beats/min","stresc":"82.1","stresn":"82.1","stresu":"beats/min","stnrlo":null,"stnrhi":null,"nrind":null,"pos":null,"loc":null,"dtc":"2025-05-02","dy":"369","visit":"WEEK 52","visitnum":"7.0","epoch":"TREATMENT"},{"seq":"53","testcd":"RESP","test":"Respiratory Rate","cat":null,"orres":"18.7","orresu":"breaths/min","stresc":"18.7","stresn":"18.7","stresu":"breaths/min","stnrlo":null,"stnrhi":null,"nrind":null,"pos":null,"loc":null,"dtc":"2025-05-02","dy":"369","visit":"WEEK 52","visitnum":"7.0","epoch":"TREATMENT"},{"seq":"54","testcd":"SYSBP","test":"Systolic Blood Pressure","cat":null,"orres":"139.3","orresu":"mmHg","stresc":"139.3","stresn":"139.3","stresu":"mmHg","stnrlo":null,"stnrhi":null,"nrind":null,"pos":null,"loc":null,"dtc":"2025-05-02","dy":"369","visit":"WEEK 52","visitnum":"7.0","epoch":"TREATMENT"},{"seq":"55","testcd":"TEMP","test":"Temperature","cat":null,"orres":"37.1","orresu":"C","stresc":"37.1","stresn":"37.1","stresu":"C","stnrlo":null,"stnrhi":null,"nrind":null,"pos":null,"loc":null,"dtc":"2025-05-02","dy":"369","visit":"WEEK 52","visitnum":"7.0","epoch":"TREATMENT"},{"seq":"56","testcd":"WEIGHT","test":"Weight","cat":null,"orres":"79.4","orresu":"kg","stresc":"79.4","stresn":"79.4","stresu":"kg","stnrlo":null,"stnrhi":null,"nrind":null,"pos":null,"loc":null,"dtc":"2025-05-02","dy":"369","visit":"WEEK 52","visitnum":"7.0","epoch":"TREATMENT"},{"seq":"57","testcd":"BMI","test":"BMI","cat":null,"orres":"23.7","orresu":"kg/m2","stresc":"23.7","stresn":"23.7","stresu":"kg/m2","stnrlo":null,"stnrhi":null,"nrind":null,"pos":null,"loc":null,"dtc":"2025-06-04","dy":"402","visit":"FOLLOW-UP","visitnum":"8.0","epoch":"FOLLOW-UP"},{"seq":"58","testcd":"DIABP","test":"Diastolic Blood Pressure","cat":null,"orres":"92.1","orresu":"mmHg","stresc":"92.1","stresn":"92.1","stresu":"mmHg","stnrlo":null,"stnrhi":null,"nrind":null,"pos":null,"loc":null,"dtc":"2025-06-04","dy":"402","visit":"FOLLOW-UP","visitnum":"8.0","epoch":"FOLLOW-UP"},{"seq":"59","testcd":"HEIGHT","test":"Height","cat":null,"orres":"186.2","orresu":"cm","stresc":"186.2","stresn":"186.2","stresu":"cm","stnrlo":null,"stnrhi":null,"nrind":null,"pos":null,"loc":null,"dtc":"2025-06-04","dy":"402","visit":"FOLLOW-UP","visitnum":"8.0","epoch":"FOLLOW-UP"},{"seq":"60","testcd":"PULSE","test":"Pulse Rate","cat":null,"orres":"80.7","orresu":"beats/min","stresc":"80.7","stresn":"80.7","stresu":"beats/min","stnrlo":null,"stnrhi":null,"nrind":null,"pos":null,"loc":null,"dtc":"2025-06-04","dy":"402","visit":"FOLLOW-UP","visitnum":"8.0","epoch":"FOLLOW-UP"},{"seq":"61","testcd":"RESP","test":"Respiratory Rate","cat":null,"orres":"18.1","orresu":"breaths/min","stresc":"18.1","stresn":"18.1","stresu":"breaths/min","stnrlo":null,"stnrhi":null,"nrind":null,"pos":null,"loc":null,"dtc":"2025-06-04","dy":"402","visit":"FOLLOW-UP","visitnum":"8.0","epoch":"FOLLOW-UP"},{"seq":"62","testcd":"SYSBP","test":"Systolic Blood Pressure","cat":null,"orres":"139.1","orresu":"mmHg","stresc":"139.1","stresn":"139.1","stresu":"mmHg","stnrlo":null,"stnrhi":null,"nrind":null,"pos":null,"loc":null,"dtc":"2025-06-04","dy":"402","visit":"FOLLOW-UP","visitnum":"8.0","epoch":"FOLLOW-UP"},{"seq":"63","testcd":"TEMP","test":"Temperature","cat":null,"orres":"37.0","orresu":"C","stresc":"37.0","stresn":"37.0","stresu":"C","stnrlo":null,"stnrhi":null,"nrind":null,"pos":null,"loc":null,"dtc":"2025-06-04","dy":"402","visit":"FOLLOW-UP","visitnum":"8.0","epoch":"FOLLOW-UP"},{"seq":"64","testcd":"WEIGHT","test":"Weight","cat":null,"orres":"82.2","orresu":"kg","stresc":"82.2","stresn":"82.2","stresu":"kg","stnrlo":null,"stnrhi":null,"nrind":null,"pos":null,"loc":null,"dtc":"2025-06-04","dy":"402","visit":"FOLLOW-UP","visitnum":"8.0","epoch":"FOLLOW-UP"}]},"section_10_questionnaires_and_scores":{"questionnaires":[],"findings_about":[]},"section_11_protocol_deviations":{"deviations":[{"seq":"1","term":"Missed EMPAGLIFLOZIN dose on 2024-05-05","decod":"MISSED DOSE","cat":"MINOR","scat":"DOSING","start_dtc":"2024-05-05","end_dtc":null,"visit":null},{"seq":"2","term":"Missed EMPAGLIFLOZIN dose on 2024-05-26","decod":"MISSED DOSE","cat":"MINOR","scat":"DOSING","start_dtc":"2024-05-26","end_dtc":null,"visit":null},{"seq":"3","term":"Missed EMPAGLIFLOZIN dose on 2024-06-29","decod":"MISSED DOSE","cat":"MINOR","scat":"DOSING","start_dtc":"2024-06-29","end_dtc":null,"visit":null},{"seq":"4","term":"Missed EMPAGLIFLOZIN dose on 2024-07-06","decod":"MISSED DOSE","cat":"MINOR","scat":"DOSING","start_dtc":"2024-07-06","end_dtc":null,"visit":null},{"seq":"5","term":"Missed EMPAGLIFLOZIN dose on 2024-07-12","decod":"MISSED DOSE","cat":"MINOR","scat":"DOSING","start_dtc":"2024-07-12","end_dtc":null,"visit":null},{"seq":"6","term":"Missed EMPAGLIFLOZIN dose on 2024-07-21","decod":"MISSED DOSE","cat":"MINOR","scat":"DOSING","start_dtc":"2024-07-21","end_dtc":null,"visit":null},{"seq":"7","term":"Missed EMPAGLIFLOZIN dose on 2024-08-03","decod":"MISSED DOSE","cat":"MINOR","scat":"DOSING","start_dtc":"2024-08-03","end_dtc":null,"visit":null},{"seq":"8","term":"Missed EMPAGLIFLOZIN dose on 2024-08-04","decod":"MISSED DOSE","cat":"MINOR","scat":"DOSING","start_dtc":"2024-08-04","end_dtc":null,"visit":null},{"seq":"9","term":"Missed EMPAGLIFLOZIN dose on 2024-08-13","decod":"MISSED DOSE","cat":"MINOR","scat":"DOSING","start_dtc":"2024-08-13","end_dtc":null,"visit":null},{"seq":"10","term":"Missed EMPAGLIFLOZIN dose on 2024-09-02","decod":"MISSED DOSE","cat":"MINOR","scat":"DOSING","start_dtc":"2024-09-02","end_dtc":null,"visit":null},{"seq":"11","term":"Missed EMPAGLIFLOZIN dose on 2024-09-12","decod":"MISSED DOSE","cat":"MINOR","scat":"DOSING","start_dtc":"2024-09-12","end_dtc":null,"visit":null},{"seq":"12","term":"Missed EMPAGLIFLOZIN dose on 2024-09-13","decod":"MISSED DOSE","cat":"MINOR","scat":"DOSING","start_dtc":"2024-09-13","end_dtc":null,"visit":null},{"seq":"13","term":"Missed EMPAGLIFLOZIN dose on 2024-09-19","decod":"MISSED DOSE","cat":"MINOR","scat":"DOSING","start_dtc":"2024-09-19","end_dtc":null,"visit":null},{"seq":"14","term":"Dose modified from 10.0 to 5.0 mg","decod":"DOSE MODIFICATION","cat":"MINOR","scat":"DOSING","start_dtc":"2024-10-08","end_dtc":null,"visit":null},{"seq":"15","term":"Visit WEEK 24 occurred 4 days early (Day 165 vs planned Day 169)","decod":"VISIT OCCURRED OUTSIDE VISIT WINDOW","cat":"MINOR","scat":"VISIT WINDOW","start_dtc":"2024-10-10","end_dtc":null,"visit":null}],"total":15},"section_12_disposition":{"completion_status":"COMPLETED","disposition_records":[{"seq":"1","term":"INFORMED CONSENT OBTAINED","decod":"INFORMED CONSENT OBTAINED","cat":"PROTOCOL MILESTONE","scat":null,"dtc":"2024-04-09","dy":null,"visit":null,"epoch":"SCREENING"},{"seq":"2","term":"RANDOMIZED","decod":"RANDOMIZED","cat":"PROTOCOL MILESTONE","scat":null,"dtc":"2024-04-29","dy":null,"visit":null,"epoch":"TREATMENT"},{"seq":"3","term":"COMPLETED","decod":"COMPLETED","cat":"DISPOSITION EVENT","scat":null,"dtc":"2025-06-10","dy":null,"visit":null,"epoch":"FOLLOW-UP"}],"death":null},"section_13_hospitalizations":{"items":[{"seq":"1","term":"Headache","decod":"Headache","cat":"HOSPITALIZATION","start_dtc":"2024-05-13","end_dtc":"2024-05-22","epoch":"TREATMENT"},{"seq":"2","term":"Cardiac failure","decod":"Cardiac failure","cat":"HOSPITALIZATION","start_dtc":"2024-07-09","end_dtc":"2024-07-20","epoch":"TREATMENT"},{"seq":"3","term":"Blood creatinine increased","decod":"Blood creatinine increased","cat":"EMERGENCY ROOM VISIT","start_dtc":"2024-07-10","end_dtc":"2024-07-22","epoch":"TREATMENT"},{"seq":"4","term":"Urinary tract infection","decod":"Urinary tract infection","cat":"HOSPITALIZATION","start_dtc":"2024-08-04","end_dtc":"2024-08-09","epoch":"TREATMENT"},{"seq":"5","term":"Nausea","decod":"Nausea","cat":"HOSPITALIZATION","start_dtc":"2024-10-05","end_dtc":"2024-10-18","epoch":"TREATMENT"},{"seq":"6","term":"Cardiac failure","decod":"Cardiac failure","cat":"HOSPITALIZATION","start_dtc":"2024-12-07","end_dtc":"2024-12-16","epoch":"TREATMENT"}],"total":6},"section_14_substance_use":{"items":[{"seq":"1","substance":"ALCOHOL","decod":"ALCOHOL","cat":"ALCOHOL","scat":null,"usage":"N","dose":null,"dosu":null,"freq":null,"start_dtc":null,"end_dtc":null},{"seq":"2","substance":"COFFEE","decod":"COFFEE","cat":"CAFFEINE","scat":null,"usage":"Y","dose":"2.0","dosu":"CUPS/DAY","freq":"QD","start_dtc":"2009-04-13","end_dtc":null},{"seq":"3","substance":"CIGARETTES","decod":"CIGARETTES","cat":"TOBACCO","scat":"CIGARETTES","usage":"Y","dose":null,"dosu":null,"freq":null,"start_dtc":"2005-04-14","end_dtc":"2019-04-11"}],"total":3},"section_15_subject_status":{"items":[{"seq":"1","testcd":"SURVSTAT","test":"Survival Status","orres":"ALIVE","stresc":"ALIVE","dtc":"2025-05-28","visit":"FOLLOW-UP","epoch":"FOLLOW-UP"}],"total":1}}