{"subject_id":"VISION-NSCLC-SITE003-0102","study_id":"VISION-NSCLC","generated_at":"2026-06-16T10:08:29.546454+00:00","sdtmig_version":"3.4","flags":{"has_serious_ae":true,"has_fatal_ae":false,"has_protocol_deviation":true,"n_protocol_deviations":6,"n_adverse_events":9,"n_concomitant_meds":5,"max_ae_severity":"SEVERE","screen_failure":false,"discontinued_early":true,"discontinuation_reason":"ADVERSE EVENT","death":false,"exposure_days":76},"timeline":[{"dtc":"2024-03-30","dy":"-31","event":"INFORMED CONSENT OBTAINED","domain":"DS","category":"milestone"},{"dtc":"2024-04-18","dy":"-12","event":"VISIT: SCREENING","domain":"SV","category":"visit"},{"dtc":"2024-04-30","dy":"1","event":"RANDOMIZED","domain":"DS","category":"milestone"},{"dtc":"2024-04-30","dy":"1","event":"FIRST DOSE: TEPOTINIB","domain":"EX","category":"exposure"},{"dtc":"2024-04-30","dy":"1","event":"VISIT: C1D1","domain":"SV","category":"visit"},{"dtc":"2024-05-06","dy":"7","event":"DEVIATION: MISSED DOSE","domain":"DV","category":"deviation"},{"dtc":"2024-05-15","dy":"16","event":"VISIT: C1D15","domain":"SV","category":"visit"},{"dtc":"2024-05-21","dy":"22","event":"CM START: ASPIRIN","domain":"CM","category":"concomitant_med"},{"dtc":"2024-05-22","dy":"23","event":"DEVIATION: MISSED DOSE","domain":"DV","category":"deviation"},{"dtc":"2024-05-23","dy":"24","event":"AE: Oedema peripheral (MILD)","domain":"AE","category":"adverse_event"},{"dtc":"2024-05-23","dy":"24","event":"CM START: FUROSEMIDE","domain":"CM","category":"concomitant_med"},{"dtc":"2024-05-28","dy":"29","event":"DEVIATION: VISIT OCCURRED OUTSIDE VISIT WINDOW","domain":"DV","category":"deviation"},{"dtc":"2024-05-28","dy":"29","event":"VISIT: C2D1","domain":"SV","category":"visit"},{"dtc":"2024-05-29","dy":"30","event":"DEVIATION: MISSED DOSE","domain":"DV","category":"deviation"},{"dtc":"2024-05-30","dy":"31","event":"DEVIATION: MISSED DOSE","domain":"DV","category":"deviation"},{"dtc":"2024-06-03","dy":"35","event":"DEVIATION: MISSED DOSE","domain":"DV","category":"deviation"},{"dtc":"2024-06-14","dy":"46","event":"AE: Oedema peripheral (SEVERE) [SERIOUS]","domain":"AE","category":"adverse_event"},{"dtc":"2024-06-14","dy":"46","event":"CM START: FUROSEMIDE","domain":"CM","category":"concomitant_med"},{"dtc":"2024-06-24","dy":"56","event":"VISIT: C3D1","domain":"SV","category":"visit"},{"dtc":"2024-06-30","dy":"62","event":"AE: Diarrhoea (MILD)","domain":"AE","category":"adverse_event"},{"dtc":"2024-06-30","dy":"62","event":"AE: Myocardial infarction (SEVERE) [SERIOUS]","domain":"AE","category":"adverse_event"},{"dtc":"2024-06-30","dy":"62","event":"CM START: LOPERAMIDE","domain":"CM","category":"concomitant_med"},{"dtc":"2024-07-04","dy":"66","event":"AE: Pulmonary embolism (MILD)","domain":"AE","category":"adverse_event"},{"dtc":"2024-07-15","dy":"77","event":"LAST DOSE: TEPOTINIB","domain":"EX","category":"exposure"},{"dtc":"2024-07-16","dy":"78","event":"AE: Hypoalbuminaemia (MILD)","domain":"AE","category":"adverse_event"},{"dtc":"2024-07-21","dy":"83","event":"AE: Nausea (MILD)","domain":"AE","category":"adverse_event"},{"dtc":"2024-07-21","dy":"83","event":"CM START: ONDANSETRON","domain":"CM","category":"concomitant_med"},{"dtc":"2024-07-24","dy":"86","event":"VISIT: C4D1","domain":"SV","category":"visit"},{"dtc":"2024-07-25","dy":"87","event":"AE: Nausea (MILD)","domain":"AE","category":"adverse_event"},{"dtc":"2024-08-18","dy":"111","event":"ADVERSE EVENT","domain":"DS","category":"milestone"},{"dtc":"2024-08-18","dy":"111","event":"AE: Vomiting (SEVERE) [SERIOUS]","domain":"AE","category":"adverse_event"}],"section_1_demographics":{"usubjid":"VISION-NSCLC-SITE003-0102","subjid":"0102","siteid":"SITE003","age":"54","ageu":"YEARS","sex":"F","race":"WHITE","ethnicity":"NOT HISPANIC OR LATINO","country":"USA","arm":"Tepotinib 500mg QD","armcd":"TEP500","actarm":"Tepotinib 500mg QD","actarmcd":"TEP500","randomization_date":null,"informed_consent_date":"2024-03-30","reference_start_date":"2024-04-30","reference_end_date":"2024-08-18","screen_failure":false,"death_flag":null,"death_date":null,"subject_characteristics":[{"testcd":"ALCUSE","test":"Alcohol Use","orres":"CURRENT DRINKER","stresc":"CURRENT DRINKER","visit":null,"dtc":"2024-03-30"},{"testcd":"BMI","test":"Body Mass Index","orres":"23.7","stresc":"23.7","visit":null,"dtc":"2024-03-30"},{"testcd":"DURDIS","test":"Duration of Disease","orres":"85 months","stresc":"85","visit":null,"dtc":"2024-03-30"},{"testcd":"TOBPKYR","test":"Tobacco Pack-Years","orres":"18","stresc":"18","visit":null,"dtc":"2024-03-30"},{"testcd":"TOBUSE","test":"Tobacco Use","orres":"CURRENT SMOKER","stresc":"CURRENT SMOKER","visit":null,"dtc":"2024-03-30"}]},"section_2_medical_history":{"items":[{"seq":"1","term":"ASTHMA","decod":"ASTHMA","cat":"RESPIRATORY","scat":null,"presp":null,"occur":null,"status":null,"onset_dtc":"2017-04-01","end_dtc":"2021-10-20","visit":null}]},"section_3_inclusion_exclusion":{"criteria":[]},"section_4_trial_participation":{"visits":[{"visitnum":"1.0","visit":"SCREENING","start_dtc":"2024-04-18","end_dtc":"2024-04-18","updes":null},{"visitnum":"2.0","visit":"C1D1","start_dtc":"2024-04-30","end_dtc":"2024-04-30","updes":null},{"visitnum":"3.0","visit":"C1D15","start_dtc":"2024-05-15","end_dtc":"2024-05-15","updes":null},{"visitnum":"4.0","visit":"C2D1","start_dtc":"2024-05-28","end_dtc":"2024-05-28","updes":null},{"visitnum":"5.0","visit":"C3D1","start_dtc":"2024-06-24","end_dtc":"2024-06-24","updes":null},{"visitnum":"6.0","visit":"C4D1","start_dtc":"2024-07-24","end_dtc":"2024-07-24","updes":null}],"epochs":[{"seq":"1","etcd":"SCRN","element":"Screening","start_dtc":"2024-04-02","end_dtc":"2024-04-30","updes":null},{"seq":"2","etcd":"TRT","element":"Treatment","start_dtc":"2024-04-30","end_dtc":"2024-08-18","updes":null}],"visit_count":6},"section_5_concomitant_medications":{"medications":[{"seq":"1","trt":"ASPIRIN","decod":"ASPIRIN","cat":"CONCOMITANT","dose":null,"doseu":null,"dosef":"QD","route":"ORAL","indication":null,"start_dtc":"2024-05-21","end_dtc":"2024-06-26","ongoing":null,"visit":null},{"seq":"2","trt":"FUROSEMIDE","decod":"FUROSEMIDE","cat":"CONCOMITANT","dose":"20.0","doseu":null,"dosef":"QD","route":"ORAL","indication":"OEDEMA PERIPHERAL","start_dtc":"2024-05-23","end_dtc":"2024-06-22","ongoing":null,"visit":null},{"seq":"3","trt":"FUROSEMIDE","decod":"FUROSEMIDE","cat":"CONCOMITANT","dose":"20.0","doseu":null,"dosef":"QD","route":"ORAL","indication":"OEDEMA PERIPHERAL","start_dtc":"2024-06-14","end_dtc":"2024-06-23","ongoing":null,"visit":null},{"seq":"4","trt":"LOPERAMIDE","decod":"LOPERAMIDE","cat":"CONCOMITANT","dose":"2","doseu":null,"dosef":"PRN","route":"ORAL","indication":"DIARRHOEA","start_dtc":"2024-06-30","end_dtc":"2024-07-29","ongoing":null,"visit":null},{"seq":"5","trt":"ONDANSETRON","decod":"ONDANSETRON","cat":"CONCOMITANT","dose":"4","doseu":null,"dosef":"PRN","route":"ORAL","indication":"NAUSEA","start_dtc":"2024-07-21","end_dtc":"2024-08-14","ongoing":null,"visit":null}]},"section_6_exposure":{"exposure_as_administered":[{"seq":"1","trt":"TEPOTINIB","dose":"500.0","doseu":null,"dosef":"QD","route":"ORAL","lot":null,"start_dtc":"2024-04-30","end_dtc":"2024-06-13","start_dy":"1","end_dy":"45","epoch":"TREATMENT","visit":null},{"seq":"2","trt":"TEPOTINIB","dose":"250.0","doseu":null,"dosef":"QD","route":"ORAL","lot":null,"start_dtc":"2024-07-15","end_dtc":"2024-07-15","start_dy":"77","end_dy":"77","epoch":"TREATMENT","visit":null}],"exposure_as_collected":[{"seq":"1","trt":"TEPOTINIB","dose":"500.0","doseu":null,"dosef":"QD","route":"ORAL","start_dtc":"2024-04-30","end_dtc":"2024-04-30","visit":"C1D1"},{"seq":"2","trt":"TEPOTINIB","dose":"500.0","doseu":null,"dosef":"QD","route":"ORAL","start_dtc":"2024-05-01","end_dtc":"2024-05-01","visit":"C1D1"},{"seq":"3","trt":"TEPOTINIB","dose":"500.0","doseu":null,"dosef":"QD","route":"ORAL","start_dtc":"2024-05-02","end_dtc":"2024-05-02","visit":"C1D1"},{"seq":"4","trt":"TEPOTINIB","dose":"500.0","doseu":null,"dosef":"QD","route":"ORAL","start_dtc":"2024-05-03","end_dtc":"2024-05-03","visit":"C1D1"},{"seq":"5","trt":"TEPOTINIB","dose":"500.0","doseu":null,"dosef":"QD","route":"ORAL","start_dtc":"2024-05-04","end_dtc":"2024-05-04","visit":null},{"seq":"6","trt":"TEPOTINIB","dose":"500.0","doseu":null,"dosef":"QD","route":"ORAL","start_dtc":"2024-05-05","end_dtc":"2024-05-05","visit":null},{"seq":"7","trt":"TEPOTINIB","dose":null,"doseu":null,"dosef":"QD","route":"ORAL","start_dtc":"2024-05-06","end_dtc":"2024-05-06","visit":null},{"seq":"8","trt":"TEPOTINIB","dose":"500.0","doseu":null,"dosef":"QD","route":"ORAL","start_dtc":"2024-05-07","end_dtc":"2024-05-07","visit":null},{"seq":"9","trt":"TEPOTINIB","dose":"500.0","doseu":null,"dosef":"QD","route":"ORAL","start_dtc":"2024-05-08","end_dtc":"2024-05-08","visit":null},{"seq":"10","trt":"TEPOTINIB","dose":"500.0","doseu":null,"dosef":"QD","route":"ORAL","start_dtc":"2024-05-09","end_dtc":"2024-05-09","visit":null},{"seq":"11","trt":"TEPOTINIB","dose":"500.0","doseu":null,"dosef":"QD","route":"ORAL","start_dtc":"2024-05-10","end_dtc":"2024-05-10","visit":null},{"seq":"12","trt":"TEPOTINIB","dose":"500.0","doseu":null,"dosef":"QD","route":"ORAL","start_dtc":"2024-05-11","end_dtc":"2024-05-11","visit":"C1D15"},{"seq":"13","trt":"TEPOTINIB","dose":"500.0","doseu":null,"dosef":"QD","route":"ORAL","start_dtc":"2024-05-12","end_dtc":"2024-05-12","visit":"C1D15"},{"seq":"14","trt":"TEPOTINIB","dose":"500.0","doseu":null,"dosef":"QD","route":"ORAL","start_dtc":"2024-05-13","end_dtc":"2024-05-13","visit":"C1D15"},{"seq":"15","trt":"TEPOTINIB","dose":"500.0","doseu":null,"dosef":"QD","route":"ORAL","start_dtc":"2024-05-14","end_dtc":"2024-05-14","visit":"C1D15"},{"seq":"16","trt":"TEPOTINIB","dose":"500.0","doseu":null,"dosef":"QD","route":"ORAL","start_dtc":"2024-05-15","end_dtc":"2024-05-15","visit":"C1D15"},{"seq":"17","trt":"TEPOTINIB","dose":"500.0","doseu":null,"dosef":"QD","route":"ORAL","start_dtc":"2024-05-16","end_dtc":"2024-05-16","visit":"C1D15"},{"seq":"18","trt":"TEPOTINIB","dose":"500.0","doseu":null,"dosef":"QD","route":"ORAL","start_dtc":"2024-05-17","end_dtc":"2024-05-17","visit":"C1D15"},{"seq":"19","trt":"TEPOTINIB","dose":"500.0","doseu":null,"dosef":"QD","route":"ORAL","start_dtc":"2024-05-18","end_dtc":"2024-05-18","visit":null},{"seq":"20","trt":"TEPOTINIB","dose":"500.0","doseu":null,"dosef":"QD","route":"ORAL","start_dtc":"2024-05-19","end_dtc":"2024-05-19","visit":null},{"seq":"21","trt":"TEPOTINIB","dose":"500.0","doseu":null,"dosef":"QD","route":"ORAL","start_dtc":"2024-05-20","end_dtc":"2024-05-20","visit":null},{"seq":"22","trt":"TEPOTINIB","dose":"500.0","doseu":null,"dosef":"QD","route":"ORAL","start_dtc":"2024-05-21","end_dtc":"2024-05-21","visit":null},{"seq":"23","trt":"TEPOTINIB","dose":null,"doseu":null,"dosef":"QD","route":"ORAL","start_dtc":"2024-05-22","end_dtc":"2024-05-22","visit":null},{"seq":"24","trt":"TEPOTINIB","dose":"500.0","doseu":null,"dosef":"QD","route":"ORAL","start_dtc":"2024-05-23","end_dtc":"2024-05-23","visit":null},{"seq":"25","trt":"TEPOTINIB","dose":"500.0","doseu":null,"dosef":"QD","route":"ORAL","start_dtc":"2024-05-24","end_dtc":"2024-05-24","visit":null},{"seq":"26","trt":"TEPOTINIB","dose":"500.0","doseu":null,"dosef":"QD","route":"ORAL","start_dtc":"2024-05-25","end_dtc":"2024-05-25","visit":"C2D1"},{"seq":"27","trt":"TEPOTINIB","dose":"500.0","doseu":null,"dosef":"QD","route":"ORAL","start_dtc":"2024-05-26","end_dtc":"2024-05-26","visit":"C2D1"},{"seq":"28","trt":"TEPOTINIB","dose":"500.0","doseu":null,"dosef":"QD","route":"ORAL","start_dtc":"2024-05-27","end_dtc":"2024-05-27","visit":"C2D1"},{"seq":"29","trt":"TEPOTINIB","dose":"500.0","doseu":null,"dosef":"QD","route":"ORAL","start_dtc":"2024-05-28","end_dtc":"2024-05-28","visit":"C2D1"},{"seq":"30","trt":"TEPOTINIB","dose":null,"doseu":null,"dosef":"QD","route":"ORAL","start_dtc":"2024-05-29","end_dtc":"2024-05-29","visit":"C2D1"},{"seq":"31","trt":"TEPOTINIB","dose":null,"doseu":null,"dosef":"QD","route":"ORAL","start_dtc":"2024-05-30","end_dtc":"2024-05-30","visit":"C2D1"},{"seq":"32","trt":"TEPOTINIB","dose":"500.0","doseu":null,"dosef":"QD","route":"ORAL","start_dtc":"2024-05-31","end_dtc":"2024-05-31","visit":"C2D1"},{"seq":"33","trt":"TEPOTINIB","dose":"500.0","doseu":null,"dosef":"QD","route":"ORAL","start_dtc":"2024-06-01","end_dtc":"2024-06-01","visit":null},{"seq":"34","trt":"TEPOTINIB","dose":"500.0","doseu":null,"dosef":"QD","route":"ORAL","start_dtc":"2024-06-02","end_dtc":"2024-06-02","visit":null},{"seq":"35","trt":"TEPOTINIB","dose":null,"doseu":null,"dosef":"QD","route":"ORAL","start_dtc":"2024-06-03","end_dtc":"2024-06-03","visit":null},{"seq":"36","trt":"TEPOTINIB","dose":"500.0","doseu":null,"dosef":"QD","route":"ORAL","start_dtc":"2024-06-04","end_dtc":"2024-06-04","visit":null},{"seq":"37","trt":"TEPOTINIB","dose":"500.0","doseu":null,"dosef":"QD","route":"ORAL","start_dtc":"2024-06-05","end_dtc":"2024-06-05","visit":null},{"seq":"38","trt":"TEPOTINIB","dose":"500.0","doseu":null,"dosef":"QD","route":"ORAL","start_dtc":"2024-06-06","end_dtc":"2024-06-06","visit":null},{"seq":"39","trt":"TEPOTINIB","dose":"500.0","doseu":null,"dosef":"QD","route":"ORAL","start_dtc":"2024-06-07","end_dtc":"2024-06-07","visit":null},{"seq":"40","trt":"TEPOTINIB","dose":"500.0","doseu":null,"dosef":"QD","route":"ORAL","start_dtc":"2024-06-08","end_dtc":"2024-06-08","visit":null},{"seq":"41","trt":"TEPOTINIB","dose":"500.0","doseu":null,"dosef":"QD","route":"ORAL","start_dtc":"2024-06-09","end_dtc":"2024-06-09","visit":null},{"seq":"42","trt":"TEPOTINIB","dose":"500.0","doseu":null,"dosef":"QD","route":"ORAL","start_dtc":"2024-06-10","end_dtc":"2024-06-10","visit":null},{"seq":"43","trt":"TEPOTINIB","dose":"500.0","doseu":null,"dosef":"QD","route":"ORAL","start_dtc":"2024-06-11","end_dtc":"2024-06-11","visit":null},{"seq":"44","trt":"TEPOTINIB","dose":"500.0","doseu":null,"dosef":"QD","route":"ORAL","start_dtc":"2024-06-12","end_dtc":"2024-06-12","visit":null},{"seq":"45","trt":"TEPOTINIB","dose":"500.0","doseu":null,"dosef":"QD","route":"ORAL","start_dtc":"2024-06-13","end_dtc":"2024-06-13","visit":null},{"seq":"46","trt":"TEPOTINIB","dose":"250.0","doseu":null,"dosef":"QD","route":"ORAL","start_dtc":"2024-07-15","end_dtc":"2024-07-15","visit":null}]},"section_7_adverse_events":{"summary":{"total_aes":9,"serious_aes":3,"fatal_aes":0,"by_severity":{"MILD":6,"SEVERE":3},"by_soc":{"General disorders and administration site conditions":2,"Gastrointestinal disorders":4,"Cardiac disorders":1,"Vascular disorders":1,"Metabolism and nutrition disorders":1}},"events":[{"seq":"1","term":"OEDEMA PERIPHERAL","decod":"Oedema peripheral","llt":"Oedema peripheral","hlt":"Oedema NEC","hlgt":"Oedema NEC","soc":"General disorders and administration site conditions","bodsys":"General disorders and administration site conditions","severity":"MILD","serious":"N","causality":"NOT RELATED","action_taken":"DOSE NOT CHANGED","outcome":"NOT RECOVERED/NOT RESOLVED","fatal":"N","hospitalization":"N","life_threatening":"N","onset_dtc":"2024-05-23","end_dtc":null,"onset_dy":"24","end_dy":null,"duration":null,"epoch":"TREATMENT","visit":null,"supplemental":{}},{"seq":"2","term":"OEDEMA PERIPHERAL","decod":"Oedema peripheral","llt":"Oedema peripheral","hlt":"Oedema NEC","hlgt":"Oedema NEC","soc":"General disorders and administration site conditions","bodsys":"General disorders and administration site conditions","severity":"SEVERE","serious":"Y","causality":"POSSIBLY RELATED","action_taken":"DRUG INTERRUPTED","outcome":"RECOVERED/RESOLVED","fatal":"N","hospitalization":"Y","life_threatening":"N","onset_dtc":"2024-06-14","end_dtc":"2024-07-20","onset_dy":"46","end_dy":"82","duration":null,"epoch":"TREATMENT","visit":null,"supplemental":{}},{"seq":"3","term":"DIARRHOEA","decod":"Diarrhoea","llt":"Diarrhoea","hlt":"Diarrhoea (excl infective)","hlgt":"Gastrointestinal motility and defaecation conditions","soc":"Gastrointestinal disorders","bodsys":"Gastrointestinal disorders","severity":"MILD","serious":"N","causality":"NOT RELATED","action_taken":"DOSE NOT CHANGED","outcome":"RECOVERED/RESOLVED","fatal":"N","hospitalization":"N","life_threatening":"N","onset_dtc":"2024-06-30","end_dtc":"2024-07-04","onset_dy":"62","end_dy":"66","duration":null,"epoch":"TREATMENT","visit":null,"supplemental":{}},{"seq":"4","term":"MYOCARDIAL INFARCTION","decod":"Myocardial infarction","llt":"Myocardial infarction","hlt":"Ischaemic coronary artery disorders","hlgt":"Coronary artery disorders","soc":"Cardiac disorders","bodsys":"Cardiac disorders","severity":"SEVERE","serious":"Y","causality":"NOT RELATED","action_taken":"DOSE NOT CHANGED","outcome":"NOT RECOVERED/NOT RESOLVED","fatal":"N","hospitalization":"Y","life_threatening":"N","onset_dtc":"2024-06-30","end_dtc":null,"onset_dy":"62","end_dy":null,"duration":null,"epoch":"TREATMENT","visit":null,"supplemental":{}},{"seq":"5","term":"PULMONARY EMBOLISM","decod":"Pulmonary embolism","llt":"Pulmonary embolism","hlt":"Embolism and thrombosis","hlgt":"Embolism and thrombosis","soc":"Vascular disorders","bodsys":"Vascular disorders","severity":"MILD","serious":"N","causality":"RELATED","action_taken":"DOSE REDUCED","outcome":"NOT RECOVERED/NOT RESOLVED","fatal":"N","hospitalization":"N","life_threatening":"N","onset_dtc":"2024-07-04","end_dtc":null,"onset_dy":"66","end_dy":null,"duration":null,"epoch":"TREATMENT","visit":null,"supplemental":{}},{"seq":"6","term":"HYPOALBUMINAEMIA","decod":"Hypoalbuminaemia","llt":"Hypoalbuminaemia","hlt":"Protein metabolism disorders","hlgt":"Protein and amino acid metabolism disorders","soc":"Metabolism and nutrition disorders","bodsys":"Metabolism and nutrition disorders","severity":"MILD","serious":"N","causality":"NOT RELATED","action_taken":"DOSE NOT CHANGED","outcome":"RECOVERED/RESOLVED","fatal":"N","hospitalization":"N","life_threatening":"N","onset_dtc":"2024-07-16","end_dtc":"2024-07-24","onset_dy":"78","end_dy":"86","duration":null,"epoch":"TREATMENT","visit":null,"supplemental":{}},{"seq":"7","term":"NAUSEA","decod":"Nausea","llt":"Nausea","hlt":"Nausea and vomiting symptoms","hlgt":"Gastrointestinal signs and symptoms","soc":"Gastrointestinal disorders","bodsys":"Gastrointestinal disorders","severity":"MILD","serious":"N","causality":"POSSIBLY RELATED","action_taken":"DOSE NOT CHANGED","outcome":"NOT RECOVERED/NOT RESOLVED","fatal":"N","hospitalization":"N","life_threatening":"N","onset_dtc":"2024-07-21","end_dtc":null,"onset_dy":"83","end_dy":null,"duration":null,"epoch":"TREATMENT","visit":null,"supplemental":{}},{"seq":"8","term":"NAUSEA","decod":"Nausea","llt":"Nausea","hlt":"Nausea and vomiting symptoms","hlgt":"Gastrointestinal signs and symptoms","soc":"Gastrointestinal disorders","bodsys":"Gastrointestinal disorders","severity":"MILD","serious":"N","causality":"NOT RELATED","action_taken":"DOSE NOT CHANGED","outcome":"RECOVERED/RESOLVED","fatal":"N","hospitalization":"N","life_threatening":"N","onset_dtc":"2024-07-25","end_dtc":"2024-07-27","onset_dy":"87","end_dy":"89","duration":null,"epoch":"TREATMENT","visit":null,"supplemental":{}},{"seq":"9","term":"VOMITING","decod":"Vomiting","llt":"Vomiting","hlt":"Nausea and vomiting symptoms","hlgt":"Gastrointestinal signs and symptoms","soc":"Gastrointestinal disorders","bodsys":"Gastrointestinal disorders","severity":"SEVERE","serious":"Y","causality":"RELATED","action_taken":"DRUG WITHDRAWN","outcome":"RECOVERED/RESOLVED","fatal":"N","hospitalization":"Y","life_threatening":"N","onset_dtc":"2024-08-18","end_dtc":"2024-08-18","onset_dy":"111","end_dy":"111","duration":null,"epoch":"TREATMENT","visit":null,"supplemental":{}}]},"section_8_laboratory_results":{"summary":{"total_records":42,"abnormal_count":0,"abnormal_pct":0.0},"shift_summary":[{"testcd":"ALT","baseline_value":38.33,"baseline_nrind":"NORMAL","worst_post_baseline_value":38.79,"worst_post_baseline_nrind":"NORMAL","worst_visit":"C1D15"},{"testcd":"AST","baseline_value":21.24,"baseline_nrind":"NORMAL","worst_post_baseline_value":23.49,"worst_post_baseline_nrind":"NORMAL","worst_visit":"C4D1"},{"testcd":"CREAT","baseline_value":68.5,"baseline_nrind":"NORMAL","worst_post_baseline_value":65.7,"worst_post_baseline_nrind":"NORMAL","worst_visit":"C1D15"},{"testcd":"GLUC","baseline_value":4.49,"baseline_nrind":"NORMAL","worst_post_baseline_value":4.49,"worst_post_baseline_nrind":"NORMAL","worst_visit":"C1D1"},{"testcd":"HGB","baseline_value":129.17,"baseline_nrind":"NORMAL","worst_post_baseline_value":124.62,"worst_post_baseline_nrind":"NORMAL","worst_visit":"C4D1"},{"testcd":"PLAT","baseline_value":221.94,"baseline_nrind":"NORMAL","worst_post_baseline_value":254.47,"worst_post_baseline_nrind":"NORMAL","worst_visit":"C2D1"},{"testcd":"WBC","baseline_value":5.86,"baseline_nrind":"NORMAL","worst_post_baseline_value":6.38,"worst_post_baseline_nrind":"NORMAL","worst_visit":"C3D1"}],"results":[{"seq":"1","testcd":"ALT","test":"Alanine Aminotransferase","cat":"CHEMISTRY","orres":"38.33","orresu":"U/L","stresc":"38.33","stresn":"38.33","stresu":"U/L","stnrlo":"7","stnrhi":"56","nrind":"NORMAL","fast":null,"dtc":"2024-04-18","dy":"-12","visit":"SCREENING","visitnum":"1.0","epoch":"SCREENING","spec":null,"method":null},{"seq":"2","testcd":"AST","test":"Aspartate Aminotransferase","cat":"CHEMISTRY","orres":"21.24","orresu":"U/L","stresc":"21.24","stresn":"21.24","stresu":"U/L","stnrlo":"10","stnrhi":"40","nrind":"NORMAL","fast":null,"dtc":"2024-04-18","dy":"-12","visit":"SCREENING","visitnum":"1.0","epoch":"SCREENING","spec":null,"method":null},{"seq":"3","testcd":"CREAT","test":"Creatinine","cat":"CHEMISTRY","orres":"68.5","orresu":"umol/L","stresc":"68.5","stresn":"68.5","stresu":"umol/L","stnrlo":"44","stnrhi":"80","nrind":"NORMAL","fast":null,"dtc":"2024-04-18","dy":"-12","visit":"SCREENING","visitnum":"1.0","epoch":"SCREENING","spec":null,"method":null},{"seq":"4","testcd":"GLUC","test":"Glucose","cat":"CHEMISTRY","orres":null,"orresu":null,"stresc":null,"stresn":null,"stresu":null,"stnrlo":null,"stnrhi":null,"nrind":null,"fast":null,"dtc":"2024-04-18","dy":"-12","visit":"SCREENING","visitnum":"1.0","epoch":"SCREENING","spec":null,"method":null},{"seq":"5","testcd":"HGB","test":"Hemoglobin","cat":"HEMATOLOGY","orres":null,"orresu":null,"stresc":null,"stresn":null,"stresu":null,"stnrlo":null,"stnrhi":null,"nrind":null,"fast":null,"dtc":"2024-04-18","dy":"-12","visit":"SCREENING","visitnum":"1.0","epoch":"SCREENING","spec":null,"method":null},{"seq":"6","testcd":"PLAT","test":"Platelets","cat":"HEMATOLOGY","orres":"221.94","orresu":"10^9/L","stresc":"221.94","stresn":"221.94","stresu":"10^9/L","stnrlo":"150","stnrhi":"400","nrind":"NORMAL","fast":null,"dtc":"2024-04-18","dy":"-12","visit":"SCREENING","visitnum":"1.0","epoch":"SCREENING","spec":null,"method":null},{"seq":"7","testcd":"WBC","test":"Leukocytes","cat":"HEMATOLOGY","orres":"5.86","orresu":"10^9/L","stresc":"5.86","stresn":"5.86","stresu":"10^9/L","stnrlo":"4.0","stnrhi":"11.0","nrind":"NORMAL","fast":null,"dtc":"2024-04-18","dy":"-12","visit":"SCREENING","visitnum":"1.0","epoch":"SCREENING","spec":null,"method":null},{"seq":"8","testcd":"ALT","test":"Alanine Aminotransferase","cat":"CHEMISTRY","orres":"37.16","orresu":"U/L","stresc":"37.16","stresn":"37.16","stresu":"U/L","stnrlo":"7","stnrhi":"56","nrind":"NORMAL","fast":null,"dtc":"2024-04-30","dy":"1","visit":"C1D1","visitnum":"2.0","epoch":"TREATMENT","spec":null,"method":null},{"seq":"9","testcd":"AST","test":"Aspartate Aminotransferase","cat":"CHEMISTRY","orres":"21.71","orresu":"U/L","stresc":"21.71","stresn":"21.71","stresu":"U/L","stnrlo":"10","stnrhi":"40","nrind":"NORMAL","fast":null,"dtc":"2024-04-30","dy":"1","visit":"C1D1","visitnum":"2.0","epoch":"TREATMENT","spec":null,"method":null},{"seq":"10","testcd":"CREAT","test":"Creatinine","cat":"CHEMISTRY","orres":"63.36","orresu":"umol/L","stresc":"63.36","stresn":"63.36","stresu":"umol/L","stnrlo":"44","stnrhi":"80","nrind":"NORMAL","fast":null,"dtc":"2024-04-30","dy":"1","visit":"C1D1","visitnum":"2.0","epoch":"TREATMENT","spec":null,"method":null},{"seq":"11","testcd":"GLUC","test":"Glucose","cat":"CHEMISTRY","orres":"4.49","orresu":"mmol/L","stresc":"4.49","stresn":"4.49","stresu":"mmol/L","stnrlo":"3.9","stnrhi":"5.6","nrind":"NORMAL","fast":null,"dtc":"2024-04-30","dy":"1","visit":"C1D1","visitnum":"2.0","epoch":"TREATMENT","spec":null,"method":null},{"seq":"12","testcd":"HGB","test":"Hemoglobin","cat":"HEMATOLOGY","orres":"129.17","orresu":"g/L","stresc":"129.17","stresn":"129.17","stresu":"g/L","stnrlo":"120","stnrhi":"155","nrind":"NORMAL","fast":null,"dtc":"2024-04-30","dy":"1","visit":"C1D1","visitnum":"2.0","epoch":"TREATMENT","spec":null,"method":null},{"seq":"13","testcd":"PLAT","test":"Platelets","cat":"HEMATOLOGY","orres":"234.43","orresu":"10^9/L","stresc":"234.43","stresn":"234.43","stresu":"10^9/L","stnrlo":"150","stnrhi":"400","nrind":"NORMAL","fast":null,"dtc":"2024-04-30","dy":"1","visit":"C1D1","visitnum":"2.0","epoch":"TREATMENT","spec":null,"method":null},{"seq":"14","testcd":"WBC","test":"Leukocytes","cat":"HEMATOLOGY","orres":"5.62","orresu":"10^9/L","stresc":"5.62","stresn":"5.62","stresu":"10^9/L","stnrlo":"4.0","stnrhi":"11.0","nrind":"NORMAL","fast":null,"dtc":"2024-04-30","dy":"1","visit":"C1D1","visitnum":"2.0","epoch":"TREATMENT","spec":null,"method":null},{"seq":"15","testcd":"ALT","test":"Alanine Aminotransferase","cat":"CHEMISTRY","orres":"38.79","orresu":"U/L","stresc":"38.79","stresn":"38.79","stresu":"U/L","stnrlo":"7","stnrhi":"56","nrind":"NORMAL","fast":null,"dtc":"2024-05-15","dy":"16","visit":"C1D15","visitnum":"3.0","epoch":"TREATMENT","spec":null,"method":null},{"seq":"16","testcd":"AST","test":"Aspartate Aminotransferase","cat":"CHEMISTRY","orres":"20.65","orresu":"U/L","stresc":"20.65","stresn":"20.65","stresu":"U/L","stnrlo":"10","stnrhi":"40","nrind":"NORMAL","fast":null,"dtc":"2024-05-15","dy":"16","visit":"C1D15","visitnum":"3.0","epoch":"TREATMENT","spec":null,"method":null},{"seq":"17","testcd":"CREAT","test":"Creatinine","cat":"CHEMISTRY","orres":"65.7","orresu":"umol/L","stresc":"65.7","stresn":"65.7","stresu":"umol/L","stnrlo":"44","stnrhi":"80","nrind":"NORMAL","fast":null,"dtc":"2024-05-15","dy":"16","visit":"C1D15","visitnum":"3.0","epoch":"TREATMENT","spec":null,"method":null},{"seq":"18","testcd":"GLUC","test":"Glucose","cat":"CHEMISTRY","orres":"4.35","orresu":"mmol/L","stresc":"4.35","stresn":"4.35","stresu":"mmol/L","stnrlo":"3.9","stnrhi":"5.6","nrind":"NORMAL","fast":null,"dtc":"2024-05-15","dy":"16","visit":"C1D15","visitnum":"3.0","epoch":"TREATMENT","spec":null,"method":null},{"seq":"19","testcd":"HGB","test":"Hemoglobin","cat":"HEMATOLOGY","orres":"127.13","orresu":"g/L","stresc":"127.13","stresn":"127.13","stresu":"g/L","stnrlo":"120","stnrhi":"155","nrind":"NORMAL","fast":null,"dtc":"2024-05-15","dy":"16","visit":"C1D15","visitnum":"3.0","epoch":"TREATMENT","spec":null,"method":null},{"seq":"20","testcd":"PLAT","test":"Platelets","cat":"HEMATOLOGY","orres":"249.15","orresu":"10^9/L","stresc":"249.15","stresn":"249.15","stresu":"10^9/L","stnrlo":"150","stnrhi":"400","nrind":"NORMAL","fast":null,"dtc":"2024-05-15","dy":"16","visit":"C1D15","visitnum":"3.0","epoch":"TREATMENT","spec":null,"method":null},{"seq":"21","testcd":"WBC","test":"Leukocytes","cat":"HEMATOLOGY","orres":"6.05","orresu":"10^9/L","stresc":"6.05","stresn":"6.05","stresu":"10^9/L","stnrlo":"4.0","stnrhi":"11.0","nrind":"NORMAL","fast":null,"dtc":"2024-05-15","dy":"16","visit":"C1D15","visitnum":"3.0","epoch":"TREATMENT","spec":null,"method":null},{"seq":"22","testcd":"ALT","test":"Alanine Aminotransferase","cat":"CHEMISTRY","orres":"38.72","orresu":"U/L","stresc":"38.72","stresn":"38.72","stresu":"U/L","stnrlo":"7","stnrhi":"56","nrind":"NORMAL","fast":null,"dtc":"2024-05-28","dy":"29","visit":"C2D1","visitnum":"4.0","epoch":"TREATMENT","spec":null,"method":null},{"seq":"23","testcd":"AST","test":"Aspartate Aminotransferase","cat":"CHEMISTRY","orres":"20.8","orresu":"U/L","stresc":"20.8","stresn":"20.8","stresu":"U/L","stnrlo":"10","stnrhi":"40","nrind":"NORMAL","fast":null,"dtc":"2024-05-28","dy":"29","visit":"C2D1","visitnum":"4.0","epoch":"TREATMENT","spec":null,"method":null},{"seq":"24","testcd":"CREAT","test":"Creatinine","cat":"CHEMISTRY","orres":"65.34","orresu":"umol/L","stresc":"65.34","stresn":"65.34","stresu":"umol/L","stnrlo":"44","stnrhi":"80","nrind":"NORMAL","fast":null,"dtc":"2024-05-28","dy":"29","visit":"C2D1","visitnum":"4.0","epoch":"TREATMENT","spec":null,"method":null},{"seq":"25","testcd":"GLUC","test":"Glucose","cat":"CHEMISTRY","orres":"4.46","orresu":"mmol/L","stresc":"4.46","stresn":"4.46","stresu":"mmol/L","stnrlo":"3.9","stnrhi":"5.6","nrind":"NORMAL","fast":null,"dtc":"2024-05-28","dy":"29","visit":"C2D1","visitnum":"4.0","epoch":"TREATMENT","spec":null,"method":null},{"seq":"26","testcd":"HGB","test":"Hemoglobin","cat":"HEMATOLOGY","orres":"125.36","orresu":"g/L","stresc":"125.36","stresn":"125.36","stresu":"g/L","stnrlo":"120","stnrhi":"155","nrind":"NORMAL","fast":null,"dtc":"2024-05-28","dy":"29","visit":"C2D1","visitnum":"4.0","epoch":"TREATMENT","spec":null,"method":null},{"seq":"27","testcd":"PLAT","test":"Platelets","cat":"HEMATOLOGY","orres":"254.47","orresu":"10^9/L","stresc":"254.47","stresn":"254.47","stresu":"10^9/L","stnrlo":"150","stnrhi":"400","nrind":"NORMAL","fast":null,"dtc":"2024-05-28","dy":"29","visit":"C2D1","visitnum":"4.0","epoch":"TREATMENT","spec":null,"method":null},{"seq":"28","testcd":"WBC","test":"Leukocytes","cat":"HEMATOLOGY","orres":"5.99","orresu":"10^9/L","stresc":"5.99","stresn":"5.99","stresu":"10^9/L","stnrlo":"4.0","stnrhi":"11.0","nrind":"NORMAL","fast":null,"dtc":"2024-05-28","dy":"29","visit":"C2D1","visitnum":"4.0","epoch":"TREATMENT","spec":null,"method":null},{"seq":"29","testcd":"ALT","test":"Alanine Aminotransferase","cat":"CHEMISTRY","orres":"35.63","orresu":"U/L","stresc":"35.63","stresn":"35.63","stresu":"U/L","stnrlo":"7","stnrhi":"56","nrind":"NORMAL","fast":null,"dtc":"2024-06-24","dy":"56","visit":"C3D1","visitnum":"5.0","epoch":"TREATMENT","spec":null,"method":null},{"seq":"30","testcd":"AST","test":"Aspartate Aminotransferase","cat":"CHEMISTRY","orres":"21.61","orresu":"U/L","stresc":"21.61","stresn":"21.61","stresu":"U/L","stnrlo":"10","stnrhi":"40","nrind":"NORMAL","fast":null,"dtc":"2024-06-24","dy":"56","visit":"C3D1","visitnum":"5.0","epoch":"TREATMENT","spec":null,"method":null},{"seq":"31","testcd":"CREAT","test":"Creatinine","cat":"CHEMISTRY","orres":"64.96","orresu":"umol/L","stresc":"64.96","stresn":"64.96","stresu":"umol/L","stnrlo":"44","stnrhi":"80","nrind":"NORMAL","fast":null,"dtc":"2024-06-24","dy":"56","visit":"C3D1","visitnum":"5.0","epoch":"TREATMENT","spec":null,"method":null},{"seq":"32","testcd":"GLUC","test":"Glucose","cat":"CHEMISTRY","orres":"4.43","orresu":"mmol/L","stresc":"4.43","stresn":"4.43","stresu":"mmol/L","stnrlo":"3.9","stnrhi":"5.6","nrind":"NORMAL","fast":null,"dtc":"2024-06-24","dy":"56","visit":"C3D1","visitnum":"5.0","epoch":"TREATMENT","spec":null,"method":null},{"seq":"33","testcd":"HGB","test":"Hemoglobin","cat":"HEMATOLOGY","orres":"125.58","orresu":"g/L","stresc":"125.58","stresn":"125.58","stresu":"g/L","stnrlo":"120","stnrhi":"155","nrind":"NORMAL","fast":null,"dtc":"2024-06-24","dy":"56","visit":"C3D1","visitnum":"5.0","epoch":"TREATMENT","spec":null,"method":null},{"seq":"34","testcd":"PLAT","test":"Platelets","cat":"HEMATOLOGY","orres":"247.75","orresu":"10^9/L","stresc":"247.75","stresn":"247.75","stresu":"10^9/L","stnrlo":"150","stnrhi":"400","nrind":"NORMAL","fast":null,"dtc":"2024-06-24","dy":"56","visit":"C3D1","visitnum":"5.0","epoch":"TREATMENT","spec":null,"method":null},{"seq":"35","testcd":"WBC","test":"Leukocytes","cat":"HEMATOLOGY","orres":"6.38","orresu":"10^9/L","stresc":"6.38","stresn":"6.38","stresu":"10^9/L","stnrlo":"4.0","stnrhi":"11.0","nrind":"NORMAL","fast":null,"dtc":"2024-06-24","dy":"56","visit":"C3D1","visitnum":"5.0","epoch":"TREATMENT","spec":null,"method":null},{"seq":"36","testcd":"ALT","test":"Alanine Aminotransferase","cat":"CHEMISTRY","orres":"36.81","orresu":"U/L","stresc":"36.81","stresn":"36.81","stresu":"U/L","stnrlo":"7","stnrhi":"56","nrind":"NORMAL","fast":null,"dtc":"2024-07-24","dy":"86","visit":"C4D1","visitnum":"6.0","epoch":"TREATMENT","spec":null,"method":null},{"seq":"37","testcd":"AST","test":"Aspartate Aminotransferase","cat":"CHEMISTRY","orres":"23.49","orresu":"U/L","stresc":"23.49","stresn":"23.49","stresu":"U/L","stnrlo":"10","stnrhi":"40","nrind":"NORMAL","fast":null,"dtc":"2024-07-24","dy":"86","visit":"C4D1","visitnum":"6.0","epoch":"TREATMENT","spec":null,"method":null},{"seq":"38","testcd":"CREAT","test":"Creatinine","cat":"CHEMISTRY","orres":null,"orresu":null,"stresc":null,"stresn":null,"stresu":null,"stnrlo":null,"stnrhi":null,"nrind":null,"fast":null,"dtc":"2024-07-24","dy":"86","visit":"C4D1","visitnum":"6.0","epoch":"TREATMENT","spec":null,"method":null},{"seq":"39","testcd":"GLUC","test":"Glucose","cat":"CHEMISTRY","orres":"4.25","orresu":"mmol/L","stresc":"4.25","stresn":"4.25","stresu":"mmol/L","stnrlo":"3.9","stnrhi":"5.6","nrind":"NORMAL","fast":null,"dtc":"2024-07-24","dy":"86","visit":"C4D1","visitnum":"6.0","epoch":"TREATMENT","spec":null,"method":null},{"seq":"40","testcd":"HGB","test":"Hemoglobin","cat":"HEMATOLOGY","orres":"124.62","orresu":"g/L","stresc":"124.62","stresn":"124.62","stresu":"g/L","stnrlo":"120","stnrhi":"155","nrind":"NORMAL","fast":null,"dtc":"2024-07-24","dy":"86","visit":"C4D1","visitnum":"6.0","epoch":"TREATMENT","spec":null,"method":null},{"seq":"41","testcd":"PLAT","test":"Platelets","cat":"HEMATOLOGY","orres":"240.19","orresu":"10^9/L","stresc":"240.19","stresn":"240.19","stresu":"10^9/L","stnrlo":"150","stnrhi":"400","nrind":"NORMAL","fast":null,"dtc":"2024-07-24","dy":"86","visit":"C4D1","visitnum":"6.0","epoch":"TREATMENT","spec":null,"method":null},{"seq":"42","testcd":"WBC","test":"Leukocytes","cat":"HEMATOLOGY","orres":null,"orresu":null,"stresc":null,"stresn":null,"stresu":null,"stnrlo":null,"stnrhi":null,"nrind":null,"fast":null,"dtc":"2024-07-24","dy":"86","visit":"C4D1","visitnum":"6.0","epoch":"TREATMENT","spec":null,"method":null}]},"section_9_vital_signs":{"summary":{"total_records":32},"trends":{"BMI":[{"visit":"SCREENING","visitnum":"1.0","dtc":"2024-04-18","value":"23.7","unit":"kg/m2"},{"visit":"C1D1","visitnum":"2.0","dtc":"2024-04-30","value":"23.3","unit":"kg/m2"},{"visit":"C1D15","visitnum":"3.0","dtc":"2024-05-15","value":"22.8","unit":"kg/m2"},{"visit":"C2D1","visitnum":"4.0","dtc":"2024-05-28","value":"23.6","unit":"kg/m2"}],"DIABP":[{"visit":"SCREENING","visitnum":"1.0","dtc":"2024-04-18","value":"56.6","unit":"mmHg"},{"visit":"C1D1","visitnum":"2.0","dtc":"2024-04-30","value":"54.6","unit":"mmHg"},{"visit":"C1D15","visitnum":"3.0","dtc":"2024-05-15","value":"54.9","unit":"mmHg"},{"visit":"C2D1","visitnum":"4.0","dtc":"2024-05-28","value":"54.9","unit":"mmHg"}],"HEIGHT":[{"visit":"SCREENING","visitnum":"1.0","dtc":"2024-04-18","value":"149.7","unit":"cm"},{"visit":"C1D1","visitnum":"2.0","dtc":"2024-04-30","value":"149.5","unit":"cm"},{"visit":"C1D15","visitnum":"3.0","dtc":"2024-05-15","value":"149.7","unit":"cm"},{"visit":"C2D1","visitnum":"4.0","dtc":"2024-05-28","value":"149.7","unit":"cm"}],"PULSE":[{"visit":"SCREENING","visitnum":"1.0","dtc":"2024-04-18","value":"62.9","unit":"beats/min"},{"visit":"C1D1","visitnum":"2.0","dtc":"2024-04-30","value":"61.7","unit":"beats/min"},{"visit":"C1D15","visitnum":"3.0","dtc":"2024-05-15","value":"63.8","unit":"beats/min"},{"visit":"C2D1","visitnum":"4.0","dtc":"2024-05-28","value":"68.2","unit":"beats/min"}],"RESP":[{"visit":"SCREENING","visitnum":"1.0","dtc":"2024-04-18","value":"15.4","unit":"breaths/min"},{"visit":"C1D1","visitnum":"2.0","dtc":"2024-04-30","value":"16.0","unit":"breaths/min"},{"visit":"C1D15","visitnum":"3.0","dtc":"2024-05-15","value":"16.9","unit":"breaths/min"},{"visit":"C2D1","visitnum":"4.0","dtc":"2024-05-28","value":"15.8","unit":"breaths/min"}],"SYSBP":[{"visit":"SCREENING","visitnum":"1.0","dtc":"2024-04-18","value":"101.4","unit":"mmHg"},{"visit":"C1D1","visitnum":"2.0","dtc":"2024-04-30","value":"102.2","unit":"mmHg"},{"visit":"C1D15","visitnum":"3.0","dtc":"2024-05-15","value":"103.0","unit":"mmHg"},{"visit":"C2D1","visitnum":"4.0","dtc":"2024-05-28","value":"102.6","unit":"mmHg"}],"TEMP":[{"visit":"SCREENING","visitnum":"1.0","dtc":"2024-04-18","value":"36.7","unit":"C"},{"visit":"C1D1","visitnum":"2.0","dtc":"2024-04-30","value":"36.7","unit":"C"},{"visit":"C1D15","visitnum":"3.0","dtc":"2024-05-15","value":"36.9","unit":"C"},{"visit":"C2D1","visitnum":"4.0","dtc":"2024-05-28","value":"36.9","unit":"C"}],"WEIGHT":[{"visit":"SCREENING","visitnum":"1.0","dtc":"2024-04-18","value":"53.1","unit":"kg"},{"visit":"C1D1","visitnum":"2.0","dtc":"2024-04-30","value":"52.1","unit":"kg"},{"visit":"C1D15","visitnum":"3.0","dtc":"2024-05-15","value":"51.0","unit":"kg"},{"visit":"C2D1","visitnum":"4.0","dtc":"2024-05-28","value":"52.8","unit":"kg"}]},"results":[{"seq":"1","testcd":"BMI","test":"BMI","cat":null,"orres":"23.7","orresu":"kg/m2","stresc":"23.7","stresn":"23.7","stresu":"kg/m2","stnrlo":null,"stnrhi":null,"nrind":null,"pos":null,"loc":null,"dtc":"2024-04-18","dy":"-12","visit":"SCREENING","visitnum":"1.0","epoch":"SCREENING"},{"seq":"2","testcd":"DIABP","test":"Diastolic Blood Pressure","cat":null,"orres":"56.6","orresu":"mmHg","stresc":"56.6","stresn":"56.6","stresu":"mmHg","stnrlo":null,"stnrhi":null,"nrind":null,"pos":null,"loc":null,"dtc":"2024-04-18","dy":"-12","visit":"SCREENING","visitnum":"1.0","epoch":"SCREENING"},{"seq":"3","testcd":"HEIGHT","test":"Height","cat":null,"orres":"149.7","orresu":"cm","stresc":"149.7","stresn":"149.7","stresu":"cm","stnrlo":null,"stnrhi":null,"nrind":null,"pos":null,"loc":null,"dtc":"2024-04-18","dy":"-12","visit":"SCREENING","visitnum":"1.0","epoch":"SCREENING"},{"seq":"4","testcd":"PULSE","test":"Pulse Rate","cat":null,"orres":"62.9","orresu":"beats/min","stresc":"62.9","stresn":"62.9","stresu":"beats/min","stnrlo":null,"stnrhi":null,"nrind":null,"pos":null,"loc":null,"dtc":"2024-04-18","dy":"-12","visit":"SCREENING","visitnum":"1.0","epoch":"SCREENING"},{"seq":"5","testcd":"RESP","test":"Respiratory Rate","cat":null,"orres":"15.4","orresu":"breaths/min","stresc":"15.4","stresn":"15.4","stresu":"breaths/min","stnrlo":null,"stnrhi":null,"nrind":null,"pos":null,"loc":null,"dtc":"2024-04-18","dy":"-12","visit":"SCREENING","visitnum":"1.0","epoch":"SCREENING"},{"seq":"6","testcd":"SYSBP","test":"Systolic Blood Pressure","cat":null,"orres":"101.4","orresu":"mmHg","stresc":"101.4","stresn":"101.4","stresu":"mmHg","stnrlo":null,"stnrhi":null,"nrind":null,"pos":null,"loc":null,"dtc":"2024-04-18","dy":"-12","visit":"SCREENING","visitnum":"1.0","epoch":"SCREENING"},{"seq":"7","testcd":"TEMP","test":"Temperature","cat":null,"orres":"36.7","orresu":"C","stresc":"36.7","stresn":"36.7","stresu":"C","stnrlo":null,"stnrhi":null,"nrind":null,"pos":null,"loc":null,"dtc":"2024-04-18","dy":"-12","visit":"SCREENING","visitnum":"1.0","epoch":"SCREENING"},{"seq":"8","testcd":"WEIGHT","test":"Weight","cat":null,"orres":"53.1","orresu":"kg","stresc":"53.1","stresn":"53.1","stresu":"kg","stnrlo":null,"stnrhi":null,"nrind":null,"pos":null,"loc":null,"dtc":"2024-04-18","dy":"-12","visit":"SCREENING","visitnum":"1.0","epoch":"SCREENING"},{"seq":"9","testcd":"BMI","test":"BMI","cat":null,"orres":"23.3","orresu":"kg/m2","stresc":"23.3","stresn":"23.3","stresu":"kg/m2","stnrlo":null,"stnrhi":null,"nrind":null,"pos":null,"loc":null,"dtc":"2024-04-30","dy":"1","visit":"C1D1","visitnum":"2.0","epoch":"TREATMENT"},{"seq":"10","testcd":"DIABP","test":"Diastolic Blood Pressure","cat":null,"orres":"54.6","orresu":"mmHg","stresc":"54.6","stresn":"54.6","stresu":"mmHg","stnrlo":null,"stnrhi":null,"nrind":null,"pos":null,"loc":null,"dtc":"2024-04-30","dy":"1","visit":"C1D1","visitnum":"2.0","epoch":"TREATMENT"},{"seq":"11","testcd":"HEIGHT","test":"Height","cat":null,"orres":"149.5","orresu":"cm","stresc":"149.5","stresn":"149.5","stresu":"cm","stnrlo":null,"stnrhi":null,"nrind":null,"pos":null,"loc":null,"dtc":"2024-04-30","dy":"1","visit":"C1D1","visitnum":"2.0","epoch":"TREATMENT"},{"seq":"12","testcd":"PULSE","test":"Pulse Rate","cat":null,"orres":"61.7","orresu":"beats/min","stresc":"61.7","stresn":"61.7","stresu":"beats/min","stnrlo":null,"stnrhi":null,"nrind":null,"pos":null,"loc":null,"dtc":"2024-04-30","dy":"1","visit":"C1D1","visitnum":"2.0","epoch":"TREATMENT"},{"seq":"13","testcd":"RESP","test":"Respiratory Rate","cat":null,"orres":"16.0","orresu":"breaths/min","stresc":"16.0","stresn":"16.0","stresu":"breaths/min","stnrlo":null,"stnrhi":null,"nrind":null,"pos":null,"loc":null,"dtc":"2024-04-30","dy":"1","visit":"C1D1","visitnum":"2.0","epoch":"TREATMENT"},{"seq":"14","testcd":"SYSBP","test":"Systolic Blood Pressure","cat":null,"orres":"102.2","orresu":"mmHg","stresc":"102.2","stresn":"102.2","stresu":"mmHg","stnrlo":null,"stnrhi":null,"nrind":null,"pos":null,"loc":null,"dtc":"2024-04-30","dy":"1","visit":"C1D1","visitnum":"2.0","epoch":"TREATMENT"},{"seq":"15","testcd":"TEMP","test":"Temperature","cat":null,"orres":"36.7","orresu":"C","stresc":"36.7","stresn":"36.7","stresu":"C","stnrlo":null,"stnrhi":null,"nrind":null,"pos":null,"loc":null,"dtc":"2024-04-30","dy":"1","visit":"C1D1","visitnum":"2.0","epoch":"TREATMENT"},{"seq":"16","testcd":"WEIGHT","test":"Weight","cat":null,"orres":"52.1","orresu":"kg","stresc":"52.1","stresn":"52.1","stresu":"kg","stnrlo":null,"stnrhi":null,"nrind":null,"pos":null,"loc":null,"dtc":"2024-04-30","dy":"1","visit":"C1D1","visitnum":"2.0","epoch":"TREATMENT"},{"seq":"17","testcd":"BMI","test":"BMI","cat":null,"orres":"22.8","orresu":"kg/m2","stresc":"22.8","stresn":"22.8","stresu":"kg/m2","stnrlo":null,"stnrhi":null,"nrind":null,"pos":null,"loc":null,"dtc":"2024-05-15","dy":"16","visit":"C1D15","visitnum":"3.0","epoch":"TREATMENT"},{"seq":"18","testcd":"DIABP","test":"Diastolic Blood Pressure","cat":null,"orres":"54.9","orresu":"mmHg","stresc":"54.9","stresn":"54.9","stresu":"mmHg","stnrlo":null,"stnrhi":null,"nrind":null,"pos":null,"loc":null,"dtc":"2024-05-15","dy":"16","visit":"C1D15","visitnum":"3.0","epoch":"TREATMENT"},{"seq":"19","testcd":"HEIGHT","test":"Height","cat":null,"orres":"149.7","orresu":"cm","stresc":"149.7","stresn":"149.7","stresu":"cm","stnrlo":null,"stnrhi":null,"nrind":null,"pos":null,"loc":null,"dtc":"2024-05-15","dy":"16","visit":"C1D15","visitnum":"3.0","epoch":"TREATMENT"},{"seq":"20","testcd":"PULSE","test":"Pulse Rate","cat":null,"orres":"63.8","orresu":"beats/min","stresc":"63.8","stresn":"63.8","stresu":"beats/min","stnrlo":null,"stnrhi":null,"nrind":null,"pos":null,"loc":null,"dtc":"2024-05-15","dy":"16","visit":"C1D15","visitnum":"3.0","epoch":"TREATMENT"},{"seq":"21","testcd":"RESP","test":"Respiratory Rate","cat":null,"orres":"16.9","orresu":"breaths/min","stresc":"16.9","stresn":"16.9","stresu":"breaths/min","stnrlo":null,"stnrhi":null,"nrind":null,"pos":null,"loc":null,"dtc":"2024-05-15","dy":"16","visit":"C1D15","visitnum":"3.0","epoch":"TREATMENT"},{"seq":"22","testcd":"SYSBP","test":"Systolic Blood Pressure","cat":null,"orres":"103.0","orresu":"mmHg","stresc":"103.0","stresn":"103.0","stresu":"mmHg","stnrlo":null,"stnrhi":null,"nrind":null,"pos":null,"loc":null,"dtc":"2024-05-15","dy":"16","visit":"C1D15","visitnum":"3.0","epoch":"TREATMENT"},{"seq":"23","testcd":"TEMP","test":"Temperature","cat":null,"orres":"36.9","orresu":"C","stresc":"36.9","stresn":"36.9","stresu":"C","stnrlo":null,"stnrhi":null,"nrind":null,"pos":null,"loc":null,"dtc":"2024-05-15","dy":"16","visit":"C1D15","visitnum":"3.0","epoch":"TREATMENT"},{"seq":"24","testcd":"WEIGHT","test":"Weight","cat":null,"orres":"51.0","orresu":"kg","stresc":"51.0","stresn":"51.0","stresu":"kg","stnrlo":null,"stnrhi":null,"nrind":null,"pos":null,"loc":null,"dtc":"2024-05-15","dy":"16","visit":"C1D15","visitnum":"3.0","epoch":"TREATMENT"},{"seq":"25","testcd":"BMI","test":"BMI","cat":null,"orres":"23.6","orresu":"kg/m2","stresc":"23.6","stresn":"23.6","stresu":"kg/m2","stnrlo":null,"stnrhi":null,"nrind":null,"pos":null,"loc":null,"dtc":"2024-05-28","dy":"29","visit":"C2D1","visitnum":"4.0","epoch":"TREATMENT"},{"seq":"26","testcd":"DIABP","test":"Diastolic Blood Pressure","cat":null,"orres":"54.9","orresu":"mmHg","stresc":"54.9","stresn":"54.9","stresu":"mmHg","stnrlo":null,"stnrhi":null,"nrind":null,"pos":null,"loc":null,"dtc":"2024-05-28","dy":"29","visit":"C2D1","visitnum":"4.0","epoch":"TREATMENT"},{"seq":"27","testcd":"HEIGHT","test":"Height","cat":null,"orres":"149.7","orresu":"cm","stresc":"149.7","stresn":"149.7","stresu":"cm","stnrlo":null,"stnrhi":null,"nrind":null,"pos":null,"loc":null,"dtc":"2024-05-28","dy":"29","visit":"C2D1","visitnum":"4.0","epoch":"TREATMENT"},{"seq":"28","testcd":"PULSE","test":"Pulse Rate","cat":null,"orres":"68.2","orresu":"beats/min","stresc":"68.2","stresn":"68.2","stresu":"beats/min","stnrlo":null,"stnrhi":null,"nrind":null,"pos":null,"loc":null,"dtc":"2024-05-28","dy":"29","visit":"C2D1","visitnum":"4.0","epoch":"TREATMENT"},{"seq":"29","testcd":"RESP","test":"Respiratory Rate","cat":null,"orres":"15.8","orresu":"breaths/min","stresc":"15.8","stresn":"15.8","stresu":"breaths/min","stnrlo":null,"stnrhi":null,"nrind":null,"pos":null,"loc":null,"dtc":"2024-05-28","dy":"29","visit":"C2D1","visitnum":"4.0","epoch":"TREATMENT"},{"seq":"30","testcd":"SYSBP","test":"Systolic Blood Pressure","cat":null,"orres":"102.6","orresu":"mmHg","stresc":"102.6","stresn":"102.6","stresu":"mmHg","stnrlo":null,"stnrhi":null,"nrind":null,"pos":null,"loc":null,"dtc":"2024-05-28","dy":"29","visit":"C2D1","visitnum":"4.0","epoch":"TREATMENT"},{"seq":"31","testcd":"TEMP","test":"Temperature","cat":null,"orres":"36.9","orresu":"C","stresc":"36.9","stresn":"36.9","stresu":"C","stnrlo":null,"stnrhi":null,"nrind":null,"pos":null,"loc":null,"dtc":"2024-05-28","dy":"29","visit":"C2D1","visitnum":"4.0","epoch":"TREATMENT"},{"seq":"32","testcd":"WEIGHT","test":"Weight","cat":null,"orres":"52.8","orresu":"kg","stresc":"52.8","stresn":"52.8","stresu":"kg","stnrlo":null,"stnrhi":null,"nrind":null,"pos":null,"loc":null,"dtc":"2024-05-28","dy":"29","visit":"C2D1","visitnum":"4.0","epoch":"TREATMENT"}]},"section_10_questionnaires_and_scores":{"questionnaires":[],"findings_about":[{"seq":"1","testcd":"LDIAM","test":"Longest Diameter","cat":"TUMOR ASSESSMENT","orres":"66.8","stresc":"66.8","stresn":"66.8","dtc":"2024-03-30","visit":"SCREENING"},{"seq":"2","testcd":"SAXIS","test":"Short Axis","cat":"TUMOR ASSESSMENT","orres":"7.2","stresc":"7.2","stresn":"7.2","dtc":"2024-03-30","visit":"SCREENING"},{"seq":"3","testcd":"LDIAM","test":"Longest Diameter","cat":"TUMOR ASSESSMENT","orres":"50.8","stresc":"50.8","stresn":"50.8","dtc":"2024-03-30","visit":"SCREENING"},{"seq":"4","testcd":"SAXIS","test":"Short Axis","cat":"TUMOR ASSESSMENT","orres":"11.8","stresc":"11.8","stresn":"11.8","dtc":"2024-03-30","visit":"SCREENING"},{"seq":"5","testcd":"LDIAM","test":"Longest Diameter","cat":"TUMOR ASSESSMENT","orres":"64.2","stresc":"64.2","stresn":"64.2","dtc":"2024-04-30","visit":"C1D1"},{"seq":"6","testcd":"SAXIS","test":"Short Axis","cat":"TUMOR ASSESSMENT","orres":"7.5","stresc":"7.5","stresn":"7.5","dtc":"2024-04-30","visit":"C1D1"},{"seq":"7","testcd":"LDIAM","test":"Longest Diameter","cat":"TUMOR ASSESSMENT","orres":"51.3","stresc":"51.3","stresn":"51.3","dtc":"2024-04-30","visit":"C1D1"},{"seq":"8","testcd":"SAXIS","test":"Short Axis","cat":"TUMOR ASSESSMENT","orres":"11.8","stresc":"11.8","stresn":"11.8","dtc":"2024-04-30","visit":"C1D1"},{"seq":"9","testcd":"LDIAM","test":"Longest Diameter","cat":"TUMOR ASSESSMENT","orres":"64.0","stresc":"64.0","stresn":"64.0","dtc":"2024-05-14","visit":"C1D15"},{"seq":"10","testcd":"SAXIS","test":"Short Axis","cat":"TUMOR ASSESSMENT","orres":"6.4","stresc":"6.4","stresn":"6.4","dtc":"2024-05-14","visit":"C1D15"},{"seq":"11","testcd":"LDIAM","test":"Longest Diameter","cat":"TUMOR ASSESSMENT","orres":"51.6","stresc":"51.6","stresn":"51.6","dtc":"2024-05-14","visit":"C1D15"},{"seq":"12","testcd":"SAXIS","test":"Short Axis","cat":"TUMOR ASSESSMENT","orres":"11.9","stresc":"11.9","stresn":"11.9","dtc":"2024-05-14","visit":"C1D15"},{"seq":"13","testcd":"LDIAM","test":"Longest Diameter","cat":"TUMOR ASSESSMENT","orres":"64.2","stresc":"64.2","stresn":"64.2","dtc":"2024-05-28","visit":"C2D1"},{"seq":"14","testcd":"SAXIS","test":"Short Axis","cat":"TUMOR ASSESSMENT","orres":"7.2","stresc":"7.2","stresn":"7.2","dtc":"2024-05-28","visit":"C2D1"},{"seq":"15","testcd":"LDIAM","test":"Longest Diameter","cat":"TUMOR ASSESSMENT","orres":"49.0","stresc":"49.0","stresn":"49.0","dtc":"2024-05-28","visit":"C2D1"},{"seq":"16","testcd":"SAXIS","test":"Short Axis","cat":"TUMOR ASSESSMENT","orres":"11.5","stresc":"11.5","stresn":"11.5","dtc":"2024-05-28","visit":"C2D1"},{"seq":"17","testcd":"LDIAM","test":"Longest Diameter","cat":"TUMOR ASSESSMENT","orres":"63.8","stresc":"63.8","stresn":"63.8","dtc":"2024-06-25","visit":"C3D1"},{"seq":"18","testcd":"SAXIS","test":"Short Axis","cat":"TUMOR ASSESSMENT","orres":"6.9","stresc":"6.9","stresn":"6.9","dtc":"2024-06-25","visit":"C3D1"},{"seq":"19","testcd":"LDIAM","test":"Longest Diameter","cat":"TUMOR ASSESSMENT","orres":"49.3","stresc":"49.3","stresn":"49.3","dtc":"2024-06-25","visit":"C3D1"},{"seq":"20","testcd":"SAXIS","test":"Short Axis","cat":"TUMOR ASSESSMENT","orres":"11.4","stresc":"11.4","stresn":"11.4","dtc":"2024-06-25","visit":"C3D1"},{"seq":"21","testcd":"LDIAM","test":"Longest Diameter","cat":"TUMOR ASSESSMENT","orres":"64.5","stresc":"64.5","stresn":"64.5","dtc":"2024-07-23","visit":"C4D1"},{"seq":"22","testcd":"SAXIS","test":"Short Axis","cat":"TUMOR ASSESSMENT","orres":"6.8","stresc":"6.8","stresn":"6.8","dtc":"2024-07-23","visit":"C4D1"},{"seq":"23","testcd":"LDIAM","test":"Longest Diameter","cat":"TUMOR ASSESSMENT","orres":"51.9","stresc":"51.9","stresn":"51.9","dtc":"2024-07-23","visit":"C4D1"},{"seq":"24","testcd":"SAXIS","test":"Short Axis","cat":"TUMOR ASSESSMENT","orres":"11.7","stresc":"11.7","stresn":"11.7","dtc":"2024-07-23","visit":"C4D1"}]},"section_11_protocol_deviations":{"deviations":[{"seq":"1","term":"Missed TEPOTINIB dose on 2024-05-06","decod":"MISSED DOSE","cat":"MINOR","scat":"DOSING","start_dtc":"2024-05-06","end_dtc":null,"visit":null},{"seq":"2","term":"Missed TEPOTINIB dose on 2024-05-22","decod":"MISSED DOSE","cat":"MINOR","scat":"DOSING","start_dtc":"2024-05-22","end_dtc":null,"visit":null},{"seq":"3","term":"Visit C2D1 occurred 0 days late (Day 29 vs planned Day 29)","decod":"VISIT OCCURRED OUTSIDE VISIT WINDOW","cat":"MINOR","scat":"VISIT WINDOW","start_dtc":"2024-05-28","end_dtc":null,"visit":null},{"seq":"4","term":"Missed TEPOTINIB dose on 2024-05-29","decod":"MISSED DOSE","cat":"MINOR","scat":"DOSING","start_dtc":"2024-05-29","end_dtc":null,"visit":null},{"seq":"5","term":"Missed TEPOTINIB dose on 2024-05-30","decod":"MISSED DOSE","cat":"MINOR","scat":"DOSING","start_dtc":"2024-05-30","end_dtc":null,"visit":null},{"seq":"6","term":"Missed TEPOTINIB dose on 2024-06-03","decod":"MISSED DOSE","cat":"MINOR","scat":"DOSING","start_dtc":"2024-06-03","end_dtc":null,"visit":null}],"total":6},"section_12_disposition":{"completion_status":"INFORMED CONSENT OBTAINED","disposition_records":[{"seq":"1","term":"INFORMED CONSENT OBTAINED","decod":"INFORMED CONSENT OBTAINED","cat":"PROTOCOL MILESTONE","scat":null,"dtc":"2024-03-30","dy":null,"visit":null,"epoch":"SCREENING"},{"seq":"2","term":"RANDOMIZED","decod":"RANDOMIZED","cat":"PROTOCOL MILESTONE","scat":null,"dtc":"2024-04-30","dy":null,"visit":null,"epoch":"TREATMENT"},{"seq":"3","term":"ADVERSE EVENT","decod":"ADVERSE EVENT","cat":"DISPOSITION EVENT","scat":null,"dtc":"2024-08-18","dy":null,"visit":null,"epoch":"TREATMENT"}],"death":null},"section_13_hospitalizations":{"items":[{"seq":"1","term":"Oedema peripheral","decod":"Oedema peripheral","cat":"HOSPITALIZATION","start_dtc":"2024-06-14","end_dtc":"2024-06-23","epoch":"TREATMENT"},{"seq":"2","term":"Myocardial infarction","decod":"Myocardial infarction","cat":"HOSPITALIZATION","start_dtc":"2024-06-30","end_dtc":"2024-07-04","epoch":"TREATMENT"},{"seq":"3","term":"Vomiting","decod":"Vomiting","cat":"HOSPITALIZATION","start_dtc":"2024-08-18","end_dtc":"2024-08-18","epoch":"TREATMENT"}],"total":3},"section_14_substance_use":{"items":[{"seq":"1","substance":"ALCOHOL","decod":"ALCOHOL","cat":"ALCOHOL","scat":null,"usage":"Y","dose":null,"dosu":null,"freq":null,"start_dtc":"2019-04-01","end_dtc":"2020-03-31"},{"seq":"2","substance":"COFFEE","decod":"COFFEE","cat":"CAFFEINE","scat":null,"usage":"Y","dose":"2.0","dosu":"CUPS/DAY","freq":"QD","start_dtc":"2007-04-04","end_dtc":null},{"seq":"3","substance":"CIGARETTES","decod":"CIGARETTES","cat":"TOBACCO","scat":"CIGARETTES","usage":"Y","dose":"27.0","dosu":"CIGARETTES/DAY","freq":"QD","start_dtc":"2012-04-02","end_dtc":null}],"total":3},"section_15_subject_status":{"items":[],"total":0}}