{"subject_id":"VISION-NSCLC-SITE003-0009","study_id":"VISION-NSCLC","generated_at":"2026-06-16T10:08:26.806837+00:00","sdtmig_version":"3.4","flags":{"has_serious_ae":true,"has_fatal_ae":false,"has_protocol_deviation":true,"n_protocol_deviations":11,"n_adverse_events":10,"n_concomitant_meds":4,"max_ae_severity":"SEVERE","screen_failure":false,"discontinued_early":false,"discontinuation_reason":null,"death":false,"exposure_days":96},"timeline":[{"dtc":"2024-03-28","dy":"-12","event":"INFORMED CONSENT OBTAINED","domain":"DS","category":"milestone"},{"dtc":"2024-03-31","dy":"-9","event":"VISIT: SCREENING","domain":"SV","category":"visit"},{"dtc":"2024-04-09","dy":"1","event":"RANDOMIZED","domain":"DS","category":"milestone"},{"dtc":"2024-04-09","dy":"1","event":"FIRST DOSE: TEPOTINIB","domain":"EX","category":"exposure"},{"dtc":"2024-04-09","dy":"1","event":"VISIT: C1D1","domain":"SV","category":"visit"},{"dtc":"2024-04-11","dy":"3","event":"DEVIATION: MISSED DOSE","domain":"DV","category":"deviation"},{"dtc":"2024-04-20","dy":"12","event":"AE: Blood creatinine increased (MILD)","domain":"AE","category":"adverse_event"},{"dtc":"2024-04-25","dy":"17","event":"DEVIATION: MISSED DOSE","domain":"DV","category":"deviation"},{"dtc":"2024-04-25","dy":"17","event":"VISIT: C1D15","domain":"SV","category":"visit"},{"dtc":"2024-05-10","dy":"32","event":"VISIT: C2D1","domain":"SV","category":"visit"},{"dtc":"2024-05-12","dy":"34","event":"DEVIATION: MISSED DOSE","domain":"DV","category":"deviation"},{"dtc":"2024-05-13","dy":"35","event":"DEVIATION: MISSED DOSE","domain":"DV","category":"deviation"},{"dtc":"2024-05-20","dy":"42","event":"DEVIATION: MISSED DOSE","domain":"DV","category":"deviation"},{"dtc":"2024-05-22","dy":"44","event":"AE: Oedema peripheral (MILD)","domain":"AE","category":"adverse_event"},{"dtc":"2024-05-24","dy":"46","event":"DEVIATION: MISSED DOSE","domain":"DV","category":"deviation"},{"dtc":"2024-05-27","dy":"49","event":"DEVIATION: MISSED DOSE","domain":"DV","category":"deviation"},{"dtc":"2024-06-06","dy":"59","event":"DEVIATION: MISSED DOSE","domain":"DV","category":"deviation"},{"dtc":"2024-06-07","dy":"60","event":"VISIT: C3D1","domain":"SV","category":"visit"},{"dtc":"2024-06-17","dy":"70","event":"AE: Nausea (MILD)","domain":"AE","category":"adverse_event"},{"dtc":"2024-06-28","dy":"81","event":"DEVIATION: MISSED DOSE","domain":"DV","category":"deviation"},{"dtc":"2024-06-29","dy":"82","event":"DEVIATION: MISSED DOSE","domain":"DV","category":"deviation"},{"dtc":"2024-06-29","dy":"82","event":"VISIT: C4D1","domain":"SV","category":"visit"},{"dtc":"2024-06-30","dy":"83","event":"AE: Fatigue (SEVERE) [SERIOUS]","domain":"AE","category":"adverse_event"},{"dtc":"2024-06-30","dy":"83","event":"CM START: PARACETAMOL","domain":"CM","category":"concomitant_med"},{"dtc":"2024-07-13","dy":"96","event":"AE: Oedema peripheral (MODERATE)","domain":"AE","category":"adverse_event"},{"dtc":"2024-07-14","dy":"97","event":"LAST DOSE: TEPOTINIB","domain":"EX","category":"exposure"},{"dtc":"2024-08-08","dy":"122","event":"AE: Blood creatinine increased (MODERATE)","domain":"AE","category":"adverse_event"},{"dtc":"2024-08-08","dy":"122","event":"CM START: PARACETAMOL","domain":"CM","category":"concomitant_med"},{"dtc":"2024-08-25","dy":"139","event":"AE: Vomiting (MODERATE)","domain":"AE","category":"adverse_event"},{"dtc":"2024-08-31","dy":"145","event":"VISIT: C6D1","domain":"SV","category":"visit"},{"dtc":"2024-09-01","dy":"146","event":"AE: Nausea (MODERATE)","domain":"AE","category":"adverse_event"},{"dtc":"2024-09-01","dy":"146","event":"CM START: ONDANSETRON","domain":"CM","category":"concomitant_med"},{"dtc":"2024-09-02","dy":"147","event":"AE: Vomiting (SEVERE) [SERIOUS]","domain":"AE","category":"adverse_event"},{"dtc":"2024-09-02","dy":"147","event":"CM START: ONDANSETRON","domain":"CM","category":"concomitant_med"},{"dtc":"2024-09-15","dy":"160","event":"AE: Dyspnoea (MODERATE)","domain":"AE","category":"adverse_event"},{"dtc":"2024-09-21","dy":"166","event":"VISIT: EOT","domain":"SV","category":"visit"},{"dtc":"2024-10-22","dy":"197","event":"DEVIATION: VISIT OCCURRED OUTSIDE VISIT WINDOW","domain":"DV","category":"deviation"},{"dtc":"2024-10-22","dy":"197","event":"VISIT: FOLLOW-UP","domain":"SV","category":"visit"},{"dtc":"2024-11-20","dy":"226","event":"COMPLETED","domain":"DS","category":"milestone"}],"section_1_demographics":{"usubjid":"VISION-NSCLC-SITE003-0009","subjid":"0009","siteid":"SITE003","age":"44","ageu":"YEARS","sex":"F","race":"ASIAN","ethnicity":"NOT HISPANIC OR LATINO","country":"USA","arm":"Tepotinib 500mg QD","armcd":"TEP500","actarm":"Tepotinib 500mg QD","actarmcd":"TEP500","randomization_date":null,"informed_consent_date":"2024-03-28","reference_start_date":"2024-04-09","reference_end_date":"2024-11-20","screen_failure":false,"death_flag":null,"death_date":null,"subject_characteristics":[{"testcd":"ALCUSE","test":"Alcohol Use","orres":"CURRENT DRINKER","stresc":"CURRENT DRINKER","visit":null,"dtc":"2024-03-28"},{"testcd":"BMI","test":"Body Mass Index","orres":"20.4","stresc":"20.4","visit":null,"dtc":"2024-03-28"},{"testcd":"DURDIS","test":"Duration of Disease","orres":"121 months","stresc":"121","visit":null,"dtc":"2024-03-28"},{"testcd":"TOBPKYR","test":"Tobacco Pack-Years","orres":"15","stresc":"15","visit":null,"dtc":"2024-03-28"},{"testcd":"TOBUSE","test":"Tobacco Use","orres":"FORMER SMOKER","stresc":"FORMER SMOKER","visit":null,"dtc":"2024-03-28"}]},"section_2_medical_history":{"items":[{"seq":"1","term":"DEPRESSION","decod":"DEPRESSION","cat":"PSYCHIATRIC","scat":null,"presp":null,"occur":null,"status":null,"onset_dtc":"2018-03-30","end_dtc":"2020-02-08","visit":null},{"seq":"2","term":"GASTROESOPHAGEAL REFLUX DISEASE","decod":"GASTROESOPHAGEAL REFLUX DISEASE","cat":"GASTROINTESTINAL","scat":null,"presp":null,"occur":null,"status":null,"onset_dtc":"2014-03-31","end_dtc":"2016-01-21","visit":null},{"seq":"3","term":"HYPERLIPIDEMIA","decod":"HYPERLIPIDEMIA","cat":"METABOLIC","scat":null,"presp":null,"occur":null,"status":null,"onset_dtc":"2023-03","end_dtc":"2023-07-03","visit":null}]},"section_3_inclusion_exclusion":{"criteria":[]},"section_4_trial_participation":{"visits":[{"visitnum":"1.0","visit":"SCREENING","start_dtc":"2024-03-31","end_dtc":"2024-03-31","updes":null},{"visitnum":"2.0","visit":"C1D1","start_dtc":"2024-04-09","end_dtc":"2024-04-09","updes":null},{"visitnum":"3.0","visit":"C1D15","start_dtc":"2024-04-25","end_dtc":"2024-04-25","updes":null},{"visitnum":"4.0","visit":"C2D1","start_dtc":"2024-05-10","end_dtc":"2024-05-10","updes":null},{"visitnum":"5.0","visit":"C3D1","start_dtc":"2024-06-07","end_dtc":"2024-06-07","updes":null},{"visitnum":"6.0","visit":"C4D1","start_dtc":"2024-06-29","end_dtc":"2024-06-29","updes":null},{"visitnum":"7.0","visit":"C6D1","start_dtc":"2024-08-31","end_dtc":"2024-08-31","updes":null},{"visitnum":"8.0","visit":"EOT","start_dtc":"2024-09-21","end_dtc":"2024-09-21","updes":null},{"visitnum":"9.0","visit":"FOLLOW-UP","start_dtc":"2024-10-22","end_dtc":"2024-10-22","updes":null}],"epochs":[{"seq":"1","etcd":"SCRN","element":"Screening","start_dtc":"2024-03-12","end_dtc":"2024-04-09","updes":null},{"seq":"2","etcd":"TRT","element":"Treatment","start_dtc":"2024-04-09","end_dtc":"2024-09-24","updes":null},{"seq":"3","etcd":"FU","element":"Follow-up","start_dtc":"2024-09-24","end_dtc":"2024-10-23","updes":null}],"visit_count":9},"section_5_concomitant_medications":{"medications":[{"seq":"1","trt":"PARACETAMOL","decod":"PARACETAMOL","cat":"CONCOMITANT","dose":null,"doseu":null,"dosef":"PRN","route":"ORAL","indication":null,"start_dtc":"2024-06-30","end_dtc":"2024-08-06","ongoing":null,"visit":null},{"seq":"2","trt":"PARACETAMOL","decod":"PARACETAMOL","cat":"CONCOMITANT","dose":"500","doseu":null,"dosef":"PRN","route":"ORAL","indication":"BLOOD CREATININE INCREASED","start_dtc":"2024-08-08","end_dtc":"2024-08-11","ongoing":null,"visit":null},{"seq":"3","trt":"ONDANSETRON","decod":"ONDANSETRON","cat":"CONCOMITANT","dose":"4","doseu":null,"dosef":"PRN","route":"ORAL","indication":"NAUSEA","start_dtc":"2024-09-01","end_dtc":"2024-09-15","ongoing":null,"visit":null},{"seq":"4","trt":"ONDANSETRON","decod":"ONDANSETRON","cat":"CONCOMITANT","dose":"8","doseu":null,"dosef":"BID","route":"ORAL","indication":"VOMITING","start_dtc":"2024-09-02","end_dtc":"2024-09-26","ongoing":null,"visit":null}]},"section_6_exposure":{"exposure_as_administered":[{"seq":"1","trt":"TEPOTINIB","dose":"500.0","doseu":null,"dosef":"QD","route":"ORAL","lot":null,"start_dtc":"2024-04-09","end_dtc":"2024-06-29","start_dy":"1","end_dy":"82","epoch":"TREATMENT","visit":null},{"seq":"2","trt":"TEPOTINIB","dose":"500.0","doseu":null,"dosef":"QD","route":"ORAL","lot":null,"start_dtc":"2024-07-14","end_dtc":"2024-07-14","start_dy":"97","end_dy":"97","epoch":"TREATMENT","visit":null}],"exposure_as_collected":[{"seq":"1","trt":"TEPOTINIB","dose":"500.0","doseu":null,"dosef":"QD","route":"ORAL","start_dtc":"2024-04-09","end_dtc":"2024-04-09","visit":"C1D1"},{"seq":"2","trt":"TEPOTINIB","dose":"500.0","doseu":null,"dosef":"QD","route":"ORAL","start_dtc":"2024-04-10","end_dtc":"2024-04-10","visit":"C1D1"},{"seq":"3","trt":"TEPOTINIB","dose":null,"doseu":null,"dosef":"QD","route":"ORAL","start_dtc":"2024-04-11","end_dtc":"2024-04-11","visit":"C1D1"},{"seq":"4","trt":"TEPOTINIB","dose":"500.0","doseu":null,"dosef":"QD","route":"ORAL","start_dtc":"2024-04-12","end_dtc":"2024-04-12","visit":"C1D1"},{"seq":"5","trt":"TEPOTINIB","dose":"500.0","doseu":null,"dosef":"QD","route":"ORAL","start_dtc":"2024-04-13","end_dtc":"2024-04-13","visit":null},{"seq":"6","trt":"TEPOTINIB","dose":"500.0","doseu":null,"dosef":"QD","route":"ORAL","start_dtc":"2024-04-14","end_dtc":"2024-04-14","visit":null},{"seq":"7","trt":"TEPOTINIB","dose":"500.0","doseu":null,"dosef":"QD","route":"ORAL","start_dtc":"2024-04-15","end_dtc":"2024-04-15","visit":null},{"seq":"8","trt":"TEPOTINIB","dose":"500.0","doseu":null,"dosef":"QD","route":"ORAL","start_dtc":"2024-04-16","end_dtc":"2024-04-16","visit":null},{"seq":"9","trt":"TEPOTINIB","dose":"500.0","doseu":null,"dosef":"QD","route":"ORAL","start_dtc":"2024-04-17","end_dtc":"2024-04-17","visit":null},{"seq":"10","trt":"TEPOTINIB","dose":"500.0","doseu":null,"dosef":"QD","route":"ORAL","start_dtc":"2024-04-18","end_dtc":"2024-04-18","visit":null},{"seq":"11","trt":"TEPOTINIB","dose":"500.0","doseu":null,"dosef":"QD","route":"ORAL","start_dtc":"2024-04-19","end_dtc":"2024-04-19","visit":null},{"seq":"12","trt":"TEPOTINIB","dose":"500.0","doseu":null,"dosef":"QD","route":"ORAL","start_dtc":"2024-04-20","end_dtc":"2024-04-20","visit":"C1D15"},{"seq":"13","trt":"TEPOTINIB","dose":"500.0","doseu":null,"dosef":"QD","route":"ORAL","start_dtc":"2024-04-21","end_dtc":"2024-04-21","visit":"C1D15"},{"seq":"14","trt":"TEPOTINIB","dose":"500.0","doseu":null,"dosef":"QD","route":"ORAL","start_dtc":"2024-04-22","end_dtc":"2024-04-22","visit":"C1D15"},{"seq":"15","trt":"TEPOTINIB","dose":"500.0","doseu":null,"dosef":"QD","route":"ORAL","start_dtc":"2024-04-23","end_dtc":"2024-04-23","visit":"C1D15"},{"seq":"16","trt":"TEPOTINIB","dose":"500.0","doseu":null,"dosef":"QD","route":"ORAL","start_dtc":"2024-04-24","end_dtc":"2024-04-24","visit":"C1D15"},{"seq":"17","trt":"TEPOTINIB","dose":null,"doseu":null,"dosef":"QD","route":"ORAL","start_dtc":"2024-04-25","end_dtc":"2024-04-25","visit":"C1D15"},{"seq":"18","trt":"TEPOTINIB","dose":"500.0","doseu":null,"dosef":"QD","route":"ORAL","start_dtc":"2024-04-26","end_dtc":"2024-04-26","visit":"C1D15"},{"seq":"19","trt":"TEPOTINIB","dose":"500.0","doseu":null,"dosef":"QD","route":"ORAL","start_dtc":"2024-04-27","end_dtc":"2024-04-27","visit":null},{"seq":"20","trt":"TEPOTINIB","dose":"500.0","doseu":null,"dosef":"QD","route":"ORAL","start_dtc":"2024-04-28","end_dtc":"2024-04-28","visit":null},{"seq":"21","trt":"TEPOTINIB","dose":"500.0","doseu":null,"dosef":"QD","route":"ORAL","start_dtc":"2024-04-29","end_dtc":"2024-04-29","visit":null},{"seq":"22","trt":"TEPOTINIB","dose":"500.0","doseu":null,"dosef":"QD","route":"ORAL","start_dtc":"2024-04-30","end_dtc":"2024-04-30","visit":null},{"seq":"23","trt":"TEPOTINIB","dose":"500.0","doseu":null,"dosef":"QD","route":"ORAL","start_dtc":"2024-05-01","end_dtc":"2024-05-01","visit":null},{"seq":"24","trt":"TEPOTINIB","dose":"500.0","doseu":null,"dosef":"QD","route":"ORAL","start_dtc":"2024-05-02","end_dtc":"2024-05-02","visit":null},{"seq":"25","trt":"TEPOTINIB","dose":"500.0","doseu":null,"dosef":"QD","route":"ORAL","start_dtc":"2024-05-03","end_dtc":"2024-05-03","visit":null},{"seq":"26","trt":"TEPOTINIB","dose":"500.0","doseu":null,"dosef":"QD","route":"ORAL","start_dtc":"2024-05-04","end_dtc":"2024-05-04","visit":"C2D1"},{"seq":"27","trt":"TEPOTINIB","dose":"500.0","doseu":null,"dosef":"QD","route":"ORAL","start_dtc":"2024-05-05","end_dtc":"2024-05-05","visit":"C2D1"},{"seq":"28","trt":"TEPOTINIB","dose":"500.0","doseu":null,"dosef":"QD","route":"ORAL","start_dtc":"2024-05-06","end_dtc":"2024-05-06","visit":"C2D1"},{"seq":"29","trt":"TEPOTINIB","dose":"500.0","doseu":null,"dosef":"QD","route":"ORAL","start_dtc":"2024-05-07","end_dtc":"2024-05-07","visit":"C2D1"},{"seq":"30","trt":"TEPOTINIB","dose":"500.0","doseu":null,"dosef":"QD","route":"ORAL","start_dtc":"2024-05-08","end_dtc":"2024-05-08","visit":"C2D1"},{"seq":"31","trt":"TEPOTINIB","dose":"500.0","doseu":null,"dosef":"QD","route":"ORAL","start_dtc":"2024-05-09","end_dtc":"2024-05-09","visit":"C2D1"},{"seq":"32","trt":"TEPOTINIB","dose":"500.0","doseu":null,"dosef":"QD","route":"ORAL","start_dtc":"2024-05-10","end_dtc":"2024-05-10","visit":"C2D1"},{"seq":"33","trt":"TEPOTINIB","dose":"500.0","doseu":null,"dosef":"QD","route":"ORAL","start_dtc":"2024-05-11","end_dtc":"2024-05-11","visit":null},{"seq":"34","trt":"TEPOTINIB","dose":null,"doseu":null,"dosef":"QD","route":"ORAL","start_dtc":"2024-05-12","end_dtc":"2024-05-12","visit":null},{"seq":"35","trt":"TEPOTINIB","dose":null,"doseu":null,"dosef":"QD","route":"ORAL","start_dtc":"2024-05-13","end_dtc":"2024-05-13","visit":null},{"seq":"36","trt":"TEPOTINIB","dose":"500.0","doseu":null,"dosef":"QD","route":"ORAL","start_dtc":"2024-05-14","end_dtc":"2024-05-14","visit":null},{"seq":"37","trt":"TEPOTINIB","dose":"500.0","doseu":null,"dosef":"QD","route":"ORAL","start_dtc":"2024-05-15","end_dtc":"2024-05-15","visit":null},{"seq":"38","trt":"TEPOTINIB","dose":"500.0","doseu":null,"dosef":"QD","route":"ORAL","start_dtc":"2024-05-16","end_dtc":"2024-05-16","visit":null},{"seq":"39","trt":"TEPOTINIB","dose":"500.0","doseu":null,"dosef":"QD","route":"ORAL","start_dtc":"2024-05-17","end_dtc":"2024-05-17","visit":null},{"seq":"40","trt":"TEPOTINIB","dose":"500.0","doseu":null,"dosef":"QD","route":"ORAL","start_dtc":"2024-05-18","end_dtc":"2024-05-18","visit":null},{"seq":"41","trt":"TEPOTINIB","dose":"500.0","doseu":null,"dosef":"QD","route":"ORAL","start_dtc":"2024-05-19","end_dtc":"2024-05-19","visit":null},{"seq":"42","trt":"TEPOTINIB","dose":null,"doseu":null,"dosef":"QD","route":"ORAL","start_dtc":"2024-05-20","end_dtc":"2024-05-20","visit":null},{"seq":"43","trt":"TEPOTINIB","dose":"500.0","doseu":null,"dosef":"QD","route":"ORAL","start_dtc":"2024-05-21","end_dtc":"2024-05-21","visit":null},{"seq":"44","trt":"TEPOTINIB","dose":"500.0","doseu":null,"dosef":"QD","route":"ORAL","start_dtc":"2024-05-22","end_dtc":"2024-05-22","visit":null},{"seq":"45","trt":"TEPOTINIB","dose":"500.0","doseu":null,"dosef":"QD","route":"ORAL","start_dtc":"2024-05-23","end_dtc":"2024-05-23","visit":null},{"seq":"46","trt":"TEPOTINIB","dose":null,"doseu":null,"dosef":"QD","route":"ORAL","start_dtc":"2024-05-24","end_dtc":"2024-05-24","visit":null},{"seq":"47","trt":"TEPOTINIB","dose":"500.0","doseu":null,"dosef":"QD","route":"ORAL","start_dtc":"2024-05-25","end_dtc":"2024-05-25","visit":null},{"seq":"48","trt":"TEPOTINIB","dose":"500.0","doseu":null,"dosef":"QD","route":"ORAL","start_dtc":"2024-05-26","end_dtc":"2024-05-26","visit":null},{"seq":"49","trt":"TEPOTINIB","dose":null,"doseu":null,"dosef":"QD","route":"ORAL","start_dtc":"2024-05-27","end_dtc":"2024-05-27","visit":null},{"seq":"50","trt":"TEPOTINIB","dose":"500.0","doseu":null,"dosef":"QD","route":"ORAL","start_dtc":"2024-05-28","end_dtc":"2024-05-28","visit":null},{"seq":"51","trt":"TEPOTINIB","dose":"500.0","doseu":null,"dosef":"QD","route":"ORAL","start_dtc":"2024-05-29","end_dtc":"2024-05-29","visit":null},{"seq":"52","trt":"TEPOTINIB","dose":"500.0","doseu":null,"dosef":"QD","route":"ORAL","start_dtc":"2024-05-30","end_dtc":"2024-05-30","visit":null},{"seq":"53","trt":"TEPOTINIB","dose":null,"doseu":null,"dosef":"QD","route":"ORAL","start_dtc":"2024-05-31","end_dtc":"2024-05-31","visit":null},{"seq":"54","trt":"TEPOTINIB","dose":"500.0","doseu":null,"dosef":"QD","route":"ORAL","start_dtc":"2024-06-01","end_dtc":"2024-06-01","visit":"C3D1"},{"seq":"55","trt":"TEPOTINIB","dose":"500.0","doseu":null,"dosef":"QD","route":"ORAL","start_dtc":"2024-06-02","end_dtc":"2024-06-02","visit":"C3D1"},{"seq":"56","trt":"TEPOTINIB","dose":"500.0","doseu":null,"dosef":"QD","route":"ORAL","start_dtc":"2024-06-03","end_dtc":"2024-06-03","visit":"C3D1"},{"seq":"57","trt":"TEPOTINIB","dose":"500.0","doseu":null,"dosef":"QD","route":"ORAL","start_dtc":"2024-06-04","end_dtc":"2024-06-04","visit":"C3D1"},{"seq":"58","trt":"TEPOTINIB","dose":"500.0","doseu":null,"dosef":"QD","route":"ORAL","start_dtc":"2024-06-05","end_dtc":"2024-06-05","visit":"C3D1"},{"seq":"59","trt":"TEPOTINIB","dose":null,"doseu":null,"dosef":"QD","route":"ORAL","start_dtc":"2024-06-06","end_dtc":"2024-06-06","visit":"C3D1"},{"seq":"60","trt":"TEPOTINIB","dose":"500.0","doseu":null,"dosef":"QD","route":"ORAL","start_dtc":"2024-06-07","end_dtc":"2024-06-07","visit":"C3D1"},{"seq":"61","trt":"TEPOTINIB","dose":"500.0","doseu":null,"dosef":"QD","route":"ORAL","start_dtc":"2024-06-08","end_dtc":"2024-06-08","visit":null},{"seq":"62","trt":"TEPOTINIB","dose":"500.0","doseu":null,"dosef":"QD","route":"ORAL","start_dtc":"2024-06-09","end_dtc":"2024-06-09","visit":null},{"seq":"63","trt":"TEPOTINIB","dose":"500.0","doseu":null,"dosef":"QD","route":"ORAL","start_dtc":"2024-06-10","end_dtc":"2024-06-10","visit":null},{"seq":"64","trt":"TEPOTINIB","dose":"500.0","doseu":null,"dosef":"QD","route":"ORAL","start_dtc":"2024-06-11","end_dtc":"2024-06-11","visit":null},{"seq":"65","trt":"TEPOTINIB","dose":"500.0","doseu":null,"dosef":"QD","route":"ORAL","start_dtc":"2024-06-12","end_dtc":"2024-06-12","visit":null},{"seq":"66","trt":"TEPOTINIB","dose":"500.0","doseu":null,"dosef":"QD","route":"ORAL","start_dtc":"2024-06-13","end_dtc":"2024-06-13","visit":null},{"seq":"67","trt":"TEPOTINIB","dose":"500.0","doseu":null,"dosef":"QD","route":"ORAL","start_dtc":"2024-06-14","end_dtc":"2024-06-14","visit":null},{"seq":"68","trt":"TEPOTINIB","dose":"500.0","doseu":null,"dosef":"QD","route":"ORAL","start_dtc":"2024-06-15","end_dtc":"2024-06-15","visit":null},{"seq":"69","trt":"TEPOTINIB","dose":"500.0","doseu":null,"dosef":"QD","route":"ORAL","start_dtc":"2024-06-16","end_dtc":"2024-06-16","visit":null},{"seq":"70","trt":"TEPOTINIB","dose":"500.0","doseu":null,"dosef":"QD","route":"ORAL","start_dtc":"2024-06-17","end_dtc":"2024-06-17","visit":null},{"seq":"71","trt":"TEPOTINIB","dose":"500.0","doseu":null,"dosef":"QD","route":"ORAL","start_dtc":"2024-06-18","end_dtc":"2024-06-18","visit":null},{"seq":"72","trt":"TEPOTINIB","dose":"500.0","doseu":null,"dosef":"QD","route":"ORAL","start_dtc":"2024-06-19","end_dtc":"2024-06-19","visit":null},{"seq":"73","trt":"TEPOTINIB","dose":"500.0","doseu":null,"dosef":"QD","route":"ORAL","start_dtc":"2024-06-20","end_dtc":"2024-06-20","visit":null},{"seq":"74","trt":"TEPOTINIB","dose":"500.0","doseu":null,"dosef":"QD","route":"ORAL","start_dtc":"2024-06-21","end_dtc":"2024-06-21","visit":null},{"seq":"75","trt":"TEPOTINIB","dose":"500.0","doseu":null,"dosef":"QD","route":"ORAL","start_dtc":"2024-06-22","end_dtc":"2024-06-22","visit":null},{"seq":"76","trt":"TEPOTINIB","dose":"500.0","doseu":null,"dosef":"QD","route":"ORAL","start_dtc":"2024-06-23","end_dtc":"2024-06-23","visit":null},{"seq":"77","trt":"TEPOTINIB","dose":"500.0","doseu":null,"dosef":"QD","route":"ORAL","start_dtc":"2024-06-24","end_dtc":"2024-06-24","visit":null},{"seq":"78","trt":"TEPOTINIB","dose":"500.0","doseu":null,"dosef":"QD","route":"ORAL","start_dtc":"2024-06-25","end_dtc":"2024-06-25","visit":null},{"seq":"79","trt":"TEPOTINIB","dose":"500.0","doseu":null,"dosef":"QD","route":"ORAL","start_dtc":"2024-06-26","end_dtc":"2024-06-26","visit":null},{"seq":"80","trt":"TEPOTINIB","dose":"500.0","doseu":null,"dosef":"QD","route":"ORAL","start_dtc":"2024-06-27","end_dtc":"2024-06-27","visit":null},{"seq":"81","trt":"TEPOTINIB","dose":null,"doseu":null,"dosef":"QD","route":"ORAL","start_dtc":"2024-06-28","end_dtc":"2024-06-28","visit":null},{"seq":"82","trt":"TEPOTINIB","dose":null,"doseu":null,"dosef":"QD","route":"ORAL","start_dtc":"2024-06-29","end_dtc":"2024-06-29","visit":"C4D1"},{"seq":"83","trt":"TEPOTINIB","dose":"500.0","doseu":null,"dosef":"QD","route":"ORAL","start_dtc":"2024-07-14","end_dtc":"2024-07-14","visit":null}]},"section_7_adverse_events":{"summary":{"total_aes":10,"serious_aes":2,"fatal_aes":0,"by_severity":{"MILD":3,"SEVERE":2,"MODERATE":5},"by_soc":{"Investigations":2,"General disorders and administration site conditions":3,"Gastrointestinal disorders":4,"Respiratory, thoracic and mediastinal disorders":1}},"events":[{"seq":"1","term":"BLOOD CREATININE INCREASED","decod":"Blood creatinine increased","llt":"Blood creatinine increased","hlt":"Renal function analyses","hlgt":"Renal and urinary tract investigations and urinalyses","soc":"Investigations","bodsys":"Investigations","severity":"MILD","serious":"N","causality":"UNLIKELY RELATED","action_taken":"DOSE NOT CHANGED","outcome":"RECOVERED/RESOLVED","fatal":"N","hospitalization":"N","life_threatening":"N","onset_dtc":"2024-04-20","end_dtc":"2024-04-29","onset_dy":"12","end_dy":"21","duration":null,"epoch":"TREATMENT","visit":null,"supplemental":{}},{"seq":"2","term":"OEDEMA PERIPHERAL","decod":"Oedema peripheral","llt":"Oedema peripheral","hlt":"Oedema NEC","hlgt":"Oedema NEC","soc":"General disorders and administration site conditions","bodsys":"General disorders and administration site conditions","severity":"MILD","serious":"N","causality":"NOT RELATED","action_taken":"DOSE NOT CHANGED","outcome":"RECOVERED/RESOLVED","fatal":"N","hospitalization":"N","life_threatening":"N","onset_dtc":"2024-05-22","end_dtc":"2024-06-04","onset_dy":"44","end_dy":"57","duration":null,"epoch":"TREATMENT","visit":null,"supplemental":{}},{"seq":"3","term":"NAUSEA","decod":"Nausea","llt":"Nausea","hlt":"Nausea and vomiting symptoms","hlgt":"Gastrointestinal signs and symptoms","soc":"Gastrointestinal disorders","bodsys":"Gastrointestinal disorders","severity":"MILD","serious":"N","causality":"POSSIBLY RELATED","action_taken":"DOSE NOT CHANGED","outcome":"RECOVERED/RESOLVED","fatal":"N","hospitalization":"N","life_threatening":"N","onset_dtc":"2024-06-17","end_dtc":"2024-06-19","onset_dy":"70","end_dy":"72","duration":null,"epoch":"TREATMENT","visit":null,"supplemental":{}},{"seq":"4","term":"FATIGUE","decod":"Fatigue","llt":"Fatigue","hlt":"Asthenic conditions","hlgt":"General system disorders NEC","soc":"General disorders and administration site conditions","bodsys":"General disorders and administration site conditions","severity":"SEVERE","serious":"Y","causality":"PROBABLY RELATED","action_taken":"DRUG INTERRUPTED","outcome":"RECOVERED/RESOLVED","fatal":"N","hospitalization":"Y","life_threatening":"N","onset_dtc":"2024-06-30","end_dtc":"2024-07-19","onset_dy":"83","end_dy":"102","duration":null,"epoch":"TREATMENT","visit":null,"supplemental":{}},{"seq":"5","term":"OEDEMA PERIPHERAL","decod":"Oedema peripheral","llt":"Oedema peripheral","hlt":"Oedema NEC","hlgt":"Oedema NEC","soc":"General disorders and administration site conditions","bodsys":"General disorders and administration site conditions","severity":"MODERATE","serious":"N","causality":"UNLIKELY RELATED","action_taken":"DOSE NOT CHANGED","outcome":"RECOVERED/RESOLVED","fatal":"N","hospitalization":"N","life_threatening":"N","onset_dtc":"2024-07-13","end_dtc":"2024-08-07","onset_dy":"96","end_dy":"121","duration":null,"epoch":"TREATMENT","visit":null,"supplemental":{}},{"seq":"6","term":"BLOOD CREATININE INCREASED","decod":"Blood creatinine increased","llt":"Blood creatinine increased","hlt":"Renal function analyses","hlgt":"Renal and urinary tract investigations and urinalyses","soc":"Investigations","bodsys":"Investigations","severity":"MODERATE","serious":"N","causality":"NOT RELATED","action_taken":"DOSE NOT CHANGED","outcome":"RECOVERED/RESOLVED","fatal":"N","hospitalization":"N","life_threatening":"N","onset_dtc":"2024-08-08","end_dtc":"2024-08-09","onset_dy":"122","end_dy":"123","duration":null,"epoch":"TREATMENT","visit":null,"supplemental":{}},{"seq":"7","term":"VOMITING","decod":"Vomiting","llt":"Vomiting","hlt":"Nausea and vomiting symptoms","hlgt":"Gastrointestinal signs and symptoms","soc":"Gastrointestinal disorders","bodsys":"Gastrointestinal disorders","severity":"MODERATE","serious":"N","causality":"POSSIBLY RELATED","action_taken":"DOSE REDUCED","outcome":"RECOVERED/RESOLVED","fatal":"N","hospitalization":"N","life_threatening":"N","onset_dtc":"2024-08-25","end_dtc":"2024-08-30","onset_dy":"139","end_dy":"144","duration":null,"epoch":"TREATMENT","visit":null,"supplemental":{}},{"seq":"8","term":"NAUSEA","decod":"Nausea","llt":"Nausea","hlt":"Nausea and vomiting symptoms","hlgt":"Gastrointestinal signs and symptoms","soc":"Gastrointestinal disorders","bodsys":"Gastrointestinal disorders","severity":"MODERATE","serious":"N","causality":"NOT RELATED","action_taken":"DOSE NOT CHANGED","outcome":"RECOVERED/RESOLVED","fatal":"N","hospitalization":"N","life_threatening":"N","onset_dtc":"2024-09-01","end_dtc":"2024-09-07","onset_dy":"146","end_dy":"152","duration":null,"epoch":"TREATMENT","visit":null,"supplemental":{}},{"seq":"9","term":"VOMITING","decod":"Vomiting","llt":"Vomiting","hlt":"Nausea and vomiting symptoms","hlgt":"Gastrointestinal signs and symptoms","soc":"Gastrointestinal disorders","bodsys":"Gastrointestinal disorders","severity":"SEVERE","serious":"Y","causality":"NOT RELATED","action_taken":"DOSE NOT CHANGED","outcome":"RECOVERED/RESOLVED","fatal":"N","hospitalization":"N","life_threatening":"N","onset_dtc":"2024-09-02","end_dtc":"2024-09-12","onset_dy":"147","end_dy":"157","duration":null,"epoch":"TREATMENT","visit":null,"supplemental":{}},{"seq":"10","term":"DYSPNOEA","decod":"Dyspnoea","llt":"Dyspnoea","hlt":"Breathing abnormalities","hlgt":"Respiratory tract signs and symptoms","soc":"Respiratory, thoracic and mediastinal disorders","bodsys":"Respiratory, thoracic and mediastinal disorders","severity":"MODERATE","serious":"N","causality":"NOT RELATED","action_taken":"DOSE NOT CHANGED","outcome":"NOT RECOVERED/NOT RESOLVED","fatal":"N","hospitalization":"N","life_threatening":"N","onset_dtc":"2024-09-15","end_dtc":null,"onset_dy":"160","end_dy":null,"duration":null,"epoch":"TREATMENT","visit":null,"supplemental":{}}]},"section_8_laboratory_results":{"summary":{"total_records":42,"abnormal_count":0,"abnormal_pct":0.0},"shift_summary":[{"testcd":"ALT","baseline_value":20.13,"baseline_nrind":"NORMAL","worst_post_baseline_value":23.17,"worst_post_baseline_nrind":"NORMAL","worst_visit":"C2D1"},{"testcd":"AST","baseline_value":28.35,"baseline_nrind":"NORMAL","worst_post_baseline_value":27.26,"worst_post_baseline_nrind":"NORMAL","worst_visit":"C2D1"},{"testcd":"CREAT","baseline_value":68.8,"baseline_nrind":"NORMAL","worst_post_baseline_value":70.34,"worst_post_baseline_nrind":"NORMAL","worst_visit":"FOLLOW-UP"},{"testcd":"GLUC","baseline_value":5.19,"baseline_nrind":"NORMAL","worst_post_baseline_value":5.28,"worst_post_baseline_nrind":"NORMAL","worst_visit":"C3D1"},{"testcd":"HGB","baseline_value":125.07,"baseline_nrind":"NORMAL","worst_post_baseline_value":124.31,"worst_post_baseline_nrind":"NORMAL","worst_visit":"C1D1"},{"testcd":"PLAT","baseline_value":194.06,"baseline_nrind":"NORMAL","worst_post_baseline_value":224.81,"worst_post_baseline_nrind":"NORMAL","worst_visit":"FOLLOW-UP"},{"testcd":"WBC","baseline_value":6.6,"baseline_nrind":"NORMAL","worst_post_baseline_value":6.87,"worst_post_baseline_nrind":"NORMAL","worst_visit":"C3D1"}],"results":[{"seq":"1","testcd":"ALT","test":"Alanine Aminotransferase","cat":"CHEMISTRY","orres":"20.13","orresu":"U/L","stresc":"20.13","stresn":"20.13","stresu":"U/L","stnrlo":"7","stnrhi":"56","nrind":"NORMAL","fast":null,"dtc":"2024-03-31","dy":"-9","visit":"SCREENING","visitnum":"1.0","epoch":"SCREENING","spec":null,"method":null},{"seq":"2","testcd":"AST","test":"Aspartate Aminotransferase","cat":"CHEMISTRY","orres":"28.35","orresu":"U/L","stresc":"28.35","stresn":"28.35","stresu":"U/L","stnrlo":"10","stnrhi":"40","nrind":"NORMAL","fast":null,"dtc":"2024-03-31","dy":"-9","visit":"SCREENING","visitnum":"1.0","epoch":"SCREENING","spec":null,"method":null},{"seq":"3","testcd":"CREAT","test":"Creatinine","cat":"CHEMISTRY","orres":"68.8","orresu":"umol/L","stresc":"68.8","stresn":"68.8","stresu":"umol/L","stnrlo":"44","stnrhi":"80","nrind":"NORMAL","fast":null,"dtc":"2024-03-31","dy":"-9","visit":"SCREENING","visitnum":"1.0","epoch":"SCREENING","spec":null,"method":null},{"seq":"4","testcd":"GLUC","test":"Glucose","cat":"CHEMISTRY","orres":null,"orresu":null,"stresc":null,"stresn":null,"stresu":null,"stnrlo":null,"stnrhi":null,"nrind":null,"fast":null,"dtc":"2024-03-31","dy":"-9","visit":"SCREENING","visitnum":"1.0","epoch":"SCREENING","spec":null,"method":null},{"seq":"5","testcd":"HGB","test":"Hemoglobin","cat":"HEMATOLOGY","orres":"125.07","orresu":"g/L","stresc":"125.07","stresn":"125.07","stresu":"g/L","stnrlo":"120","stnrhi":"155","nrind":"NORMAL","fast":null,"dtc":"2024-03-31","dy":"-9","visit":"SCREENING","visitnum":"1.0","epoch":"SCREENING","spec":null,"method":null},{"seq":"6","testcd":"PLAT","test":"Platelets","cat":"HEMATOLOGY","orres":"194.06","orresu":"10^9/L","stresc":"194.06","stresn":"194.06","stresu":"10^9/L","stnrlo":"150","stnrhi":"400","nrind":"NORMAL","fast":null,"dtc":"2024-03-31","dy":"-9","visit":"SCREENING","visitnum":"1.0","epoch":"SCREENING","spec":null,"method":null},{"seq":"7","testcd":"WBC","test":"Leukocytes","cat":"HEMATOLOGY","orres":"6.6","orresu":"10^9/L","stresc":"6.6","stresn":"6.6","stresu":"10^9/L","stnrlo":"4.0","stnrhi":"11.0","nrind":"NORMAL","fast":null,"dtc":"2024-03-31","dy":"-9","visit":"SCREENING","visitnum":"1.0","epoch":"SCREENING","spec":null,"method":null},{"seq":"8","testcd":"ALT","test":"Alanine Aminotransferase","cat":"CHEMISTRY","orres":"21.38","orresu":"U/L","stresc":"21.38","stresn":"21.38","stresu":"U/L","stnrlo":"7","stnrhi":"56","nrind":"NORMAL","fast":null,"dtc":"2024-04-09","dy":"1","visit":"C1D1","visitnum":"2.0","epoch":"TREATMENT","spec":null,"method":null},{"seq":"9","testcd":"AST","test":"Aspartate Aminotransferase","cat":"CHEMISTRY","orres":"26.56","orresu":"U/L","stresc":"26.56","stresn":"26.56","stresu":"U/L","stnrlo":"10","stnrhi":"40","nrind":"NORMAL","fast":null,"dtc":"2024-04-09","dy":"1","visit":"C1D1","visitnum":"2.0","epoch":"TREATMENT","spec":null,"method":null},{"seq":"10","testcd":"CREAT","test":"Creatinine","cat":"CHEMISTRY","orres":"69.37","orresu":"umol/L","stresc":"69.37","stresn":"69.37","stresu":"umol/L","stnrlo":"44","stnrhi":"80","nrind":"NORMAL","fast":null,"dtc":"2024-04-09","dy":"1","visit":"C1D1","visitnum":"2.0","epoch":"TREATMENT","spec":null,"method":null},{"seq":"11","testcd":"GLUC","test":"Glucose","cat":"CHEMISTRY","orres":"5.19","orresu":"mmol/L","stresc":"5.19","stresn":"5.19","stresu":"mmol/L","stnrlo":"3.9","stnrhi":"5.6","nrind":"NORMAL","fast":null,"dtc":"2024-04-09","dy":"1","visit":"C1D1","visitnum":"2.0","epoch":"TREATMENT","spec":null,"method":null},{"seq":"12","testcd":"HGB","test":"Hemoglobin","cat":"HEMATOLOGY","orres":"124.31","orresu":"g/L","stresc":"124.31","stresn":"124.31","stresu":"g/L","stnrlo":"120","stnrhi":"155","nrind":"NORMAL","fast":null,"dtc":"2024-04-09","dy":"1","visit":"C1D1","visitnum":"2.0","epoch":"TREATMENT","spec":null,"method":null},{"seq":"13","testcd":"PLAT","test":"Platelets","cat":"HEMATOLOGY","orres":"216.3","orresu":"10^9/L","stresc":"216.3","stresn":"216.3","stresu":"10^9/L","stnrlo":"150","stnrhi":"400","nrind":"NORMAL","fast":null,"dtc":"2024-04-09","dy":"1","visit":"C1D1","visitnum":"2.0","epoch":"TREATMENT","spec":null,"method":null},{"seq":"14","testcd":"WBC","test":"Leukocytes","cat":"HEMATOLOGY","orres":"6.48","orresu":"10^9/L","stresc":"6.48","stresn":"6.48","stresu":"10^9/L","stnrlo":"4.0","stnrhi":"11.0","nrind":"NORMAL","fast":null,"dtc":"2024-04-09","dy":"1","visit":"C1D1","visitnum":"2.0","epoch":"TREATMENT","spec":null,"method":null},{"seq":"15","testcd":"ALT","test":"Alanine Aminotransferase","cat":"CHEMISTRY","orres":"23.17","orresu":"U/L","stresc":"23.17","stresn":"23.17","stresu":"U/L","stnrlo":"7","stnrhi":"56","nrind":"NORMAL","fast":null,"dtc":"2024-05-10","dy":"32","visit":"C2D1","visitnum":"4.0","epoch":"TREATMENT","spec":null,"method":null},{"seq":"16","testcd":"AST","test":"Aspartate Aminotransferase","cat":"CHEMISTRY","orres":"27.26","orresu":"U/L","stresc":"27.26","stresn":"27.26","stresu":"U/L","stnrlo":"10","stnrhi":"40","nrind":"NORMAL","fast":null,"dtc":"2024-05-10","dy":"32","visit":"C2D1","visitnum":"4.0","epoch":"TREATMENT","spec":null,"method":null},{"seq":"17","testcd":"CREAT","test":"Creatinine","cat":"CHEMISTRY","orres":"65.65","orresu":"umol/L","stresc":"65.65","stresn":"65.65","stresu":"umol/L","stnrlo":"44","stnrhi":"80","nrind":"NORMAL","fast":null,"dtc":"2024-05-10","dy":"32","visit":"C2D1","visitnum":"4.0","epoch":"TREATMENT","spec":null,"method":null},{"seq":"18","testcd":"GLUC","test":"Glucose","cat":"CHEMISTRY","orres":"5.25","orresu":"mmol/L","stresc":"5.25","stresn":"5.25","stresu":"mmol/L","stnrlo":"3.9","stnrhi":"5.6","nrind":"NORMAL","fast":null,"dtc":"2024-05-10","dy":"32","visit":"C2D1","visitnum":"4.0","epoch":"TREATMENT","spec":null,"method":null},{"seq":"19","testcd":"HGB","test":"Hemoglobin","cat":"HEMATOLOGY","orres":"127.21","orresu":"g/L","stresc":"127.21","stresn":"127.21","stresu":"g/L","stnrlo":"120","stnrhi":"155","nrind":"NORMAL","fast":null,"dtc":"2024-05-10","dy":"32","visit":"C2D1","visitnum":"4.0","epoch":"TREATMENT","spec":null,"method":null},{"seq":"20","testcd":"PLAT","test":"Platelets","cat":"HEMATOLOGY","orres":"207.41","orresu":"10^9/L","stresc":"207.41","stresn":"207.41","stresu":"10^9/L","stnrlo":"150","stnrhi":"400","nrind":"NORMAL","fast":null,"dtc":"2024-05-10","dy":"32","visit":"C2D1","visitnum":"4.0","epoch":"TREATMENT","spec":null,"method":null},{"seq":"21","testcd":"WBC","test":"Leukocytes","cat":"HEMATOLOGY","orres":"6.64","orresu":"10^9/L","stresc":"6.64","stresn":"6.64","stresu":"10^9/L","stnrlo":"4.0","stnrhi":"11.0","nrind":"NORMAL","fast":null,"dtc":"2024-05-10","dy":"32","visit":"C2D1","visitnum":"4.0","epoch":"TREATMENT","spec":null,"method":null},{"seq":"22","testcd":"ALT","test":"Alanine Aminotransferase","cat":"CHEMISTRY","orres":null,"orresu":null,"stresc":null,"stresn":null,"stresu":null,"stnrlo":null,"stnrhi":null,"nrind":null,"fast":null,"dtc":"2024-06-07","dy":"60","visit":"C3D1","visitnum":"5.0","epoch":"TREATMENT","spec":null,"method":null},{"seq":"23","testcd":"AST","test":"Aspartate Aminotransferase","cat":"CHEMISTRY","orres":"26.67","orresu":"U/L","stresc":"26.67","stresn":"26.67","stresu":"U/L","stnrlo":"10","stnrhi":"40","nrind":"NORMAL","fast":null,"dtc":"2024-06-07","dy":"60","visit":"C3D1","visitnum":"5.0","epoch":"TREATMENT","spec":null,"method":null},{"seq":"24","testcd":"CREAT","test":"Creatinine","cat":"CHEMISTRY","orres":"68.24","orresu":"umol/L","stresc":"68.24","stresn":"68.24","stresu":"umol/L","stnrlo":"44","stnrhi":"80","nrind":"NORMAL","fast":null,"dtc":"2024-06-07","dy":"60","visit":"C3D1","visitnum":"5.0","epoch":"TREATMENT","spec":null,"method":null},{"seq":"25","testcd":"GLUC","test":"Glucose","cat":"CHEMISTRY","orres":"5.28","orresu":"mmol/L","stresc":"5.28","stresn":"5.28","stresu":"mmol/L","stnrlo":"3.9","stnrhi":"5.6","nrind":"NORMAL","fast":null,"dtc":"2024-06-07","dy":"60","visit":"C3D1","visitnum":"5.0","epoch":"TREATMENT","spec":null,"method":null},{"seq":"26","testcd":"HGB","test":"Hemoglobin","cat":"HEMATOLOGY","orres":"127.58","orresu":"g/L","stresc":"127.58","stresn":"127.58","stresu":"g/L","stnrlo":"120","stnrhi":"155","nrind":"NORMAL","fast":null,"dtc":"2024-06-07","dy":"60","visit":"C3D1","visitnum":"5.0","epoch":"TREATMENT","spec":null,"method":null},{"seq":"27","testcd":"PLAT","test":"Platelets","cat":"HEMATOLOGY","orres":null,"orresu":null,"stresc":null,"stresn":null,"stresu":null,"stnrlo":null,"stnrhi":null,"nrind":null,"fast":null,"dtc":"2024-06-07","dy":"60","visit":"C3D1","visitnum":"5.0","epoch":"TREATMENT","spec":null,"method":null},{"seq":"28","testcd":"WBC","test":"Leukocytes","cat":"HEMATOLOGY","orres":"6.87","orresu":"10^9/L","stresc":"6.87","stresn":"6.87","stresu":"10^9/L","stnrlo":"4.0","stnrhi":"11.0","nrind":"NORMAL","fast":null,"dtc":"2024-06-07","dy":"60","visit":"C3D1","visitnum":"5.0","epoch":"TREATMENT","spec":null,"method":null},{"seq":"29","testcd":"ALT","test":"Alanine Aminotransferase","cat":"CHEMISTRY","orres":"23.04","orresu":"U/L","stresc":"23.04","stresn":"23.04","stresu":"U/L","stnrlo":"7","stnrhi":"56","nrind":"NORMAL","fast":null,"dtc":"2024-08-31","dy":"145","visit":"C6D1","visitnum":"7.0","epoch":"TREATMENT","spec":null,"method":null},{"seq":"30","testcd":"AST","test":"Aspartate Aminotransferase","cat":"CHEMISTRY","orres":"25.7","orresu":"U/L","stresc":"25.7","stresn":"25.7","stresu":"U/L","stnrlo":"10","stnrhi":"40","nrind":"NORMAL","fast":null,"dtc":"2024-08-31","dy":"145","visit":"C6D1","visitnum":"7.0","epoch":"TREATMENT","spec":null,"method":null},{"seq":"31","testcd":"CREAT","test":"Creatinine","cat":"CHEMISTRY","orres":"66.38","orresu":"umol/L","stresc":"66.38","stresn":"66.38","stresu":"umol/L","stnrlo":"44","stnrhi":"80","nrind":"NORMAL","fast":null,"dtc":"2024-08-31","dy":"145","visit":"C6D1","visitnum":"7.0","epoch":"TREATMENT","spec":null,"method":null},{"seq":"32","testcd":"GLUC","test":"Glucose","cat":"CHEMISTRY","orres":"5.23","orresu":"mmol/L","stresc":"5.23","stresn":"5.23","stresu":"mmol/L","stnrlo":"3.9","stnrhi":"5.6","nrind":"NORMAL","fast":null,"dtc":"2024-08-31","dy":"145","visit":"C6D1","visitnum":"7.0","epoch":"TREATMENT","spec":null,"method":null},{"seq":"33","testcd":"HGB","test":"Hemoglobin","cat":"HEMATOLOGY","orres":"125.61","orresu":"g/L","stresc":"125.61","stresn":"125.61","stresu":"g/L","stnrlo":"120","stnrhi":"155","nrind":"NORMAL","fast":null,"dtc":"2024-08-31","dy":"145","visit":"C6D1","visitnum":"7.0","epoch":"TREATMENT","spec":null,"method":null},{"seq":"34","testcd":"PLAT","test":"Platelets","cat":"HEMATOLOGY","orres":"220.83","orresu":"10^9/L","stresc":"220.83","stresn":"220.83","stresu":"10^9/L","stnrlo":"150","stnrhi":"400","nrind":"NORMAL","fast":null,"dtc":"2024-08-31","dy":"145","visit":"C6D1","visitnum":"7.0","epoch":"TREATMENT","spec":null,"method":null},{"seq":"35","testcd":"WBC","test":"Leukocytes","cat":"HEMATOLOGY","orres":"6.7","orresu":"10^9/L","stresc":"6.7","stresn":"6.7","stresu":"10^9/L","stnrlo":"4.0","stnrhi":"11.0","nrind":"NORMAL","fast":null,"dtc":"2024-08-31","dy":"145","visit":"C6D1","visitnum":"7.0","epoch":"TREATMENT","spec":null,"method":null},{"seq":"36","testcd":"ALT","test":"Alanine Aminotransferase","cat":"CHEMISTRY","orres":"23.11","orresu":"U/L","stresc":"23.11","stresn":"23.11","stresu":"U/L","stnrlo":"7","stnrhi":"56","nrind":"NORMAL","fast":null,"dtc":"2024-10-22","dy":"197","visit":"FOLLOW-UP","visitnum":"9.0","epoch":"FOLLOW-UP","spec":null,"method":null},{"seq":"37","testcd":"AST","test":"Aspartate Aminotransferase","cat":"CHEMISTRY","orres":"25.49","orresu":"U/L","stresc":"25.49","stresn":"25.49","stresu":"U/L","stnrlo":"10","stnrhi":"40","nrind":"NORMAL","fast":null,"dtc":"2024-10-22","dy":"197","visit":"FOLLOW-UP","visitnum":"9.0","epoch":"FOLLOW-UP","spec":null,"method":null},{"seq":"38","testcd":"CREAT","test":"Creatinine","cat":"CHEMISTRY","orres":"70.34","orresu":"umol/L","stresc":"70.34","stresn":"70.34","stresu":"umol/L","stnrlo":"44","stnrhi":"80","nrind":"NORMAL","fast":null,"dtc":"2024-10-22","dy":"197","visit":"FOLLOW-UP","visitnum":"9.0","epoch":"FOLLOW-UP","spec":null,"method":null},{"seq":"39","testcd":"GLUC","test":"Glucose","cat":"CHEMISTRY","orres":"5.28","orresu":"mmol/L","stresc":"5.28","stresn":"5.28","stresu":"mmol/L","stnrlo":"3.9","stnrhi":"5.6","nrind":"NORMAL","fast":null,"dtc":"2024-10-22","dy":"197","visit":"FOLLOW-UP","visitnum":"9.0","epoch":"FOLLOW-UP","spec":null,"method":null},{"seq":"40","testcd":"HGB","test":"Hemoglobin","cat":"HEMATOLOGY","orres":"124.64","orresu":"g/L","stresc":"124.64","stresn":"124.64","stresu":"g/L","stnrlo":"120","stnrhi":"155","nrind":"NORMAL","fast":null,"dtc":"2024-10-22","dy":"197","visit":"FOLLOW-UP","visitnum":"9.0","epoch":"FOLLOW-UP","spec":null,"method":null},{"seq":"41","testcd":"PLAT","test":"Platelets","cat":"HEMATOLOGY","orres":"224.81","orresu":"10^9/L","stresc":"224.81","stresn":"224.81","stresu":"10^9/L","stnrlo":"150","stnrhi":"400","nrind":"NORMAL","fast":null,"dtc":"2024-10-22","dy":"197","visit":"FOLLOW-UP","visitnum":"9.0","epoch":"FOLLOW-UP","spec":null,"method":null},{"seq":"42","testcd":"WBC","test":"Leukocytes","cat":"HEMATOLOGY","orres":"5.67","orresu":"10^9/L","stresc":"5.67","stresn":"5.67","stresu":"10^9/L","stnrlo":"4.0","stnrhi":"11.0","nrind":"NORMAL","fast":null,"dtc":"2024-10-22","dy":"197","visit":"FOLLOW-UP","visitnum":"9.0","epoch":"FOLLOW-UP","spec":null,"method":null}]},"section_9_vital_signs":{"summary":{"total_records":63},"trends":{"BMI":[{"visit":"SCREENING","visitnum":"1.0","dtc":"2024-03-31","value":"20.4","unit":"kg/m2"},{"visit":"C1D1","visitnum":"2.0","dtc":"2024-04-09","value":"21.6","unit":"kg/m2"},{"visit":"C2D1","visitnum":"4.0","dtc":"2024-05-10","value":"20.9","unit":"kg/m2"},{"visit":"C3D1","visitnum":"5.0","dtc":"2024-06-07","value":"21.4","unit":"kg/m2"},{"visit":"C4D1","visitnum":"6.0","dtc":"2024-06-29","value":"21.1","unit":"kg/m2"},{"visit":"C6D1","visitnum":"7.0","dtc":"2024-08-31","value":"20.1","unit":"kg/m2"},{"visit":"FOLLOW-UP","visitnum":"9.0","dtc":"2024-10-22","value":"22.8","unit":"kg/m2"}],"DIABP":[{"visit":"SCREENING","visitnum":"1.0","dtc":"2024-03-31","value":"78.7","unit":"mmHg"},{"visit":"C1D1","visitnum":"2.0","dtc":"2024-04-09","value":"80.1","unit":"mmHg"},{"visit":"C2D1","visitnum":"4.0","dtc":"2024-05-10","value":"78.6","unit":"mmHg"},{"visit":"C3D1","visitnum":"5.0","dtc":"2024-06-07","value":"78.4","unit":"mmHg"},{"visit":"C4D1","visitnum":"6.0","dtc":"2024-06-29","value":"79.7","unit":"mmHg"},{"visit":"C6D1","visitnum":"7.0","dtc":"2024-08-31","value":"79.8","unit":"mmHg"},{"visit":"EOT","visitnum":"8.0","dtc":"2024-09-21","value":"81.7","unit":"mmHg"},{"visit":"FOLLOW-UP","visitnum":"9.0","dtc":"2024-10-22","value":"81.2","unit":"mmHg"}],"HEIGHT":[{"visit":"SCREENING","visitnum":"1.0","dtc":"2024-03-31","value":"140.4","unit":"cm"},{"visit":"C1D1","visitnum":"2.0","dtc":"2024-04-09","value":"140.8","unit":"cm"},{"visit":"C2D1","visitnum":"4.0","dtc":"2024-05-10","value":"140.9","unit":"cm"},{"visit":"C3D1","visitnum":"5.0","dtc":"2024-06-07","value":"140.9","unit":"cm"},{"visit":"C4D1","visitnum":"6.0","dtc":"2024-06-29","value":"141.0","unit":"cm"},{"visit":"C6D1","visitnum":"7.0","dtc":"2024-08-31","value":"140.9","unit":"cm"},{"visit":"EOT","visitnum":"8.0","dtc":"2024-09-21","value":"141.1","unit":"cm"},{"visit":"FOLLOW-UP","visitnum":"9.0","dtc":"2024-10-22","value":"140.4","unit":"cm"}],"PULSE":[{"visit":"SCREENING","visitnum":"1.0","dtc":"2024-03-31","value":"64.4","unit":"beats/min"},{"visit":"C1D1","visitnum":"2.0","dtc":"2024-04-09","value":"62.3","unit":"beats/min"},{"visit":"C2D1","visitnum":"4.0","dtc":"2024-05-10","value":"62.8","unit":"beats/min"},{"visit":"C3D1","visitnum":"5.0","dtc":"2024-06-07","value":"67.3","unit":"beats/min"},{"visit":"C4D1","visitnum":"6.0","dtc":"2024-06-29","value":"63.4","unit":"beats/min"},{"visit":"C6D1","visitnum":"7.0","dtc":"2024-08-31","value":"56.6","unit":"beats/min"},{"visit":"EOT","visitnum":"8.0","dtc":"2024-09-21","value":"58.4","unit":"beats/min"},{"visit":"FOLLOW-UP","visitnum":"9.0","dtc":"2024-10-22","value":"59.9","unit":"beats/min"}],"RESP":[{"visit":"SCREENING","visitnum":"1.0","dtc":"2024-03-31","value":"17.7","unit":"breaths/min"},{"visit":"C1D1","visitnum":"2.0","dtc":"2024-04-09","value":"17.1","unit":"breaths/min"},{"visit":"C2D1","visitnum":"4.0","dtc":"2024-05-10","value":"18.4","unit":"breaths/min"},{"visit":"C3D1","visitnum":"5.0","dtc":"2024-06-07","value":"19.5","unit":"breaths/min"},{"visit":"C4D1","visitnum":"6.0","dtc":"2024-06-29","value":"18.6","unit":"breaths/min"},{"visit":"C6D1","visitnum":"7.0","dtc":"2024-08-31","value":"18.4","unit":"breaths/min"},{"visit":"EOT","visitnum":"8.0","dtc":"2024-09-21","value":"18.9","unit":"breaths/min"},{"visit":"FOLLOW-UP","visitnum":"9.0","dtc":"2024-10-22","value":"17.8","unit":"breaths/min"}],"SYSBP":[{"visit":"SCREENING","visitnum":"1.0","dtc":"2024-03-31","value":"108.5","unit":"mmHg"},{"visit":"C1D1","visitnum":"2.0","dtc":"2024-04-09","value":"111.3","unit":"mmHg"},{"visit":"C2D1","visitnum":"4.0","dtc":"2024-05-10","value":"105.1","unit":"mmHg"},{"visit":"C3D1","visitnum":"5.0","dtc":"2024-06-07","value":"111.7","unit":"mmHg"},{"visit":"C4D1","visitnum":"6.0","dtc":"2024-06-29","value":"113.4","unit":"mmHg"},{"visit":"C6D1","visitnum":"7.0","dtc":"2024-08-31","value":"113.7","unit":"mmHg"},{"visit":"EOT","visitnum":"8.0","dtc":"2024-09-21","value":"115.2","unit":"mmHg"},{"visit":"FOLLOW-UP","visitnum":"9.0","dtc":"2024-10-22","value":"111.2","unit":"mmHg"}],"TEMP":[{"visit":"SCREENING","visitnum":"1.0","dtc":"2024-03-31","value":"36.8","unit":"C"},{"visit":"C1D1","visitnum":"2.0","dtc":"2024-04-09","value":"37.0","unit":"C"},{"visit":"C2D1","visitnum":"4.0","dtc":"2024-05-10","value":"36.8","unit":"C"},{"visit":"C3D1","visitnum":"5.0","dtc":"2024-06-07","value":"36.6","unit":"C"},{"visit":"C4D1","visitnum":"6.0","dtc":"2024-06-29","value":"36.9","unit":"C"},{"visit":"C6D1","visitnum":"7.0","dtc":"2024-08-31","value":"36.8","unit":"C"},{"visit":"EOT","visitnum":"8.0","dtc":"2024-09-21","value":"36.8","unit":"C"},{"visit":"FOLLOW-UP","visitnum":"9.0","dtc":"2024-10-22","value":"36.9","unit":"C"}],"WEIGHT":[{"visit":"SCREENING","visitnum":"1.0","dtc":"2024-03-31","value":"40.3","unit":"kg"},{"visit":"C1D1","visitnum":"2.0","dtc":"2024-04-09","value":"42.8","unit":"kg"},{"visit":"C2D1","visitnum":"4.0","dtc":"2024-05-10","value":"41.5","unit":"kg"},{"visit":"C3D1","visitnum":"5.0","dtc":"2024-06-07","value":"42.5","unit":"kg"},{"visit":"C4D1","visitnum":"6.0","dtc":"2024-06-29","value":"41.9","unit":"kg"},{"visit":"C6D1","visitnum":"7.0","dtc":"2024-08-31","value":"40.0","unit":"kg"},{"visit":"FOLLOW-UP","visitnum":"9.0","dtc":"2024-10-22","value":"44.9","unit":"kg"}]},"results":[{"seq":"1","testcd":"BMI","test":"BMI","cat":null,"orres":"20.4","orresu":"kg/m2","stresc":"20.4","stresn":"20.4","stresu":"kg/m2","stnrlo":null,"stnrhi":null,"nrind":null,"pos":null,"loc":null,"dtc":"2024-03-31","dy":"-9","visit":"SCREENING","visitnum":"1.0","epoch":"SCREENING"},{"seq":"2","testcd":"DIABP","test":"Diastolic Blood Pressure","cat":null,"orres":"78.7","orresu":"mmHg","stresc":"78.7","stresn":"78.7","stresu":"mmHg","stnrlo":null,"stnrhi":null,"nrind":null,"pos":null,"loc":null,"dtc":"2024-03-31","dy":"-9","visit":"SCREENING","visitnum":"1.0","epoch":"SCREENING"},{"seq":"3","testcd":"HEIGHT","test":"Height","cat":null,"orres":"140.4","orresu":"cm","stresc":"140.4","stresn":"140.4","stresu":"cm","stnrlo":null,"stnrhi":null,"nrind":null,"pos":null,"loc":null,"dtc":"2024-03-31","dy":"-9","visit":"SCREENING","visitnum":"1.0","epoch":"SCREENING"},{"seq":"4","testcd":"PULSE","test":"Pulse Rate","cat":null,"orres":"64.4","orresu":"beats/min","stresc":"64.4","stresn":"64.4","stresu":"beats/min","stnrlo":null,"stnrhi":null,"nrind":null,"pos":null,"loc":null,"dtc":"2024-03-31","dy":"-9","visit":"SCREENING","visitnum":"1.0","epoch":"SCREENING"},{"seq":"5","testcd":"RESP","test":"Respiratory Rate","cat":null,"orres":"17.7","orresu":"breaths/min","stresc":"17.7","stresn":"17.7","stresu":"breaths/min","stnrlo":null,"stnrhi":null,"nrind":null,"pos":null,"loc":null,"dtc":"2024-03-31","dy":"-9","visit":"SCREENING","visitnum":"1.0","epoch":"SCREENING"},{"seq":"6","testcd":"SYSBP","test":"Systolic Blood Pressure","cat":null,"orres":"108.5","orresu":"mmHg","stresc":"108.5","stresn":"108.5","stresu":"mmHg","stnrlo":null,"stnrhi":null,"nrind":null,"pos":null,"loc":null,"dtc":"2024-03-31","dy":"-9","visit":"SCREENING","visitnum":"1.0","epoch":"SCREENING"},{"seq":"7","testcd":"TEMP","test":"Temperature","cat":null,"orres":"36.8","orresu":"C","stresc":"36.8","stresn":"36.8","stresu":"C","stnrlo":null,"stnrhi":null,"nrind":null,"pos":null,"loc":null,"dtc":"2024-03-31","dy":"-9","visit":"SCREENING","visitnum":"1.0","epoch":"SCREENING"},{"seq":"8","testcd":"WEIGHT","test":"Weight","cat":null,"orres":"40.3","orresu":"kg","stresc":"40.3","stresn":"40.3","stresu":"kg","stnrlo":null,"stnrhi":null,"nrind":null,"pos":null,"loc":null,"dtc":"2024-03-31","dy":"-9","visit":"SCREENING","visitnum":"1.0","epoch":"SCREENING"},{"seq":"9","testcd":"BMI","test":"BMI","cat":null,"orres":"21.6","orresu":"kg/m2","stresc":"21.6","stresn":"21.6","stresu":"kg/m2","stnrlo":null,"stnrhi":null,"nrind":null,"pos":null,"loc":null,"dtc":"2024-04-09","dy":"1","visit":"C1D1","visitnum":"2.0","epoch":"TREATMENT"},{"seq":"10","testcd":"DIABP","test":"Diastolic Blood Pressure","cat":null,"orres":"80.1","orresu":"mmHg","stresc":"80.1","stresn":"80.1","stresu":"mmHg","stnrlo":null,"stnrhi":null,"nrind":null,"pos":null,"loc":null,"dtc":"2024-04-09","dy":"1","visit":"C1D1","visitnum":"2.0","epoch":"TREATMENT"},{"seq":"11","testcd":"HEIGHT","test":"Height","cat":null,"orres":"140.8","orresu":"cm","stresc":"140.8","stresn":"140.8","stresu":"cm","stnrlo":null,"stnrhi":null,"nrind":null,"pos":null,"loc":null,"dtc":"2024-04-09","dy":"1","visit":"C1D1","visitnum":"2.0","epoch":"TREATMENT"},{"seq":"12","testcd":"PULSE","test":"Pulse Rate","cat":null,"orres":"62.3","orresu":"beats/min","stresc":"62.3","stresn":"62.3","stresu":"beats/min","stnrlo":null,"stnrhi":null,"nrind":null,"pos":null,"loc":null,"dtc":"2024-04-09","dy":"1","visit":"C1D1","visitnum":"2.0","epoch":"TREATMENT"},{"seq":"13","testcd":"RESP","test":"Respiratory Rate","cat":null,"orres":"17.1","orresu":"breaths/min","stresc":"17.1","stresn":"17.1","stresu":"breaths/min","stnrlo":null,"stnrhi":null,"nrind":null,"pos":null,"loc":null,"dtc":"2024-04-09","dy":"1","visit":"C1D1","visitnum":"2.0","epoch":"TREATMENT"},{"seq":"14","testcd":"SYSBP","test":"Systolic Blood Pressure","cat":null,"orres":"111.3","orresu":"mmHg","stresc":"111.3","stresn":"111.3","stresu":"mmHg","stnrlo":null,"stnrhi":null,"nrind":null,"pos":null,"loc":null,"dtc":"2024-04-09","dy":"1","visit":"C1D1","visitnum":"2.0","epoch":"TREATMENT"},{"seq":"15","testcd":"TEMP","test":"Temperature","cat":null,"orres":"37.0","orresu":"C","stresc":"37.0","stresn":"37.0","stresu":"C","stnrlo":null,"stnrhi":null,"nrind":null,"pos":null,"loc":null,"dtc":"2024-04-09","dy":"1","visit":"C1D1","visitnum":"2.0","epoch":"TREATMENT"},{"seq":"16","testcd":"WEIGHT","test":"Weight","cat":null,"orres":"42.8","orresu":"kg","stresc":"42.8","stresn":"42.8","stresu":"kg","stnrlo":null,"stnrhi":null,"nrind":null,"pos":null,"loc":null,"dtc":"2024-04-09","dy":"1","visit":"C1D1","visitnum":"2.0","epoch":"TREATMENT"},{"seq":"17","testcd":"BMI","test":"BMI","cat":null,"orres":"20.9","orresu":"kg/m2","stresc":"20.9","stresn":"20.9","stresu":"kg/m2","stnrlo":null,"stnrhi":null,"nrind":null,"pos":null,"loc":null,"dtc":"2024-05-10","dy":"32","visit":"C2D1","visitnum":"4.0","epoch":"TREATMENT"},{"seq":"18","testcd":"DIABP","test":"Diastolic Blood Pressure","cat":null,"orres":"78.6","orresu":"mmHg","stresc":"78.6","stresn":"78.6","stresu":"mmHg","stnrlo":null,"stnrhi":null,"nrind":null,"pos":null,"loc":null,"dtc":"2024-05-10","dy":"32","visit":"C2D1","visitnum":"4.0","epoch":"TREATMENT"},{"seq":"19","testcd":"HEIGHT","test":"Height","cat":null,"orres":"140.9","orresu":"cm","stresc":"140.9","stresn":"140.9","stresu":"cm","stnrlo":null,"stnrhi":null,"nrind":null,"pos":null,"loc":null,"dtc":"2024-05-10","dy":"32","visit":"C2D1","visitnum":"4.0","epoch":"TREATMENT"},{"seq":"20","testcd":"PULSE","test":"Pulse Rate","cat":null,"orres":"62.8","orresu":"beats/min","stresc":"62.8","stresn":"62.8","stresu":"beats/min","stnrlo":null,"stnrhi":null,"nrind":null,"pos":null,"loc":null,"dtc":"2024-05-10","dy":"32","visit":"C2D1","visitnum":"4.0","epoch":"TREATMENT"},{"seq":"21","testcd":"RESP","test":"Respiratory Rate","cat":null,"orres":"18.4","orresu":"breaths/min","stresc":"18.4","stresn":"18.4","stresu":"breaths/min","stnrlo":null,"stnrhi":null,"nrind":null,"pos":null,"loc":null,"dtc":"2024-05-10","dy":"32","visit":"C2D1","visitnum":"4.0","epoch":"TREATMENT"},{"seq":"22","testcd":"SYSBP","test":"Systolic Blood Pressure","cat":null,"orres":"105.1","orresu":"mmHg","stresc":"105.1","stresn":"105.1","stresu":"mmHg","stnrlo":null,"stnrhi":null,"nrind":null,"pos":null,"loc":null,"dtc":"2024-05-10","dy":"32","visit":"C2D1","visitnum":"4.0","epoch":"TREATMENT"},{"seq":"23","testcd":"TEMP","test":"Temperature","cat":null,"orres":"36.8","orresu":"C","stresc":"36.8","stresn":"36.8","stresu":"C","stnrlo":null,"stnrhi":null,"nrind":null,"pos":null,"loc":null,"dtc":"2024-05-10","dy":"32","visit":"C2D1","visitnum":"4.0","epoch":"TREATMENT"},{"seq":"24","testcd":"WEIGHT","test":"Weight","cat":null,"orres":"41.5","orresu":"kg","stresc":"41.5","stresn":"41.5","stresu":"kg","stnrlo":null,"stnrhi":null,"nrind":null,"pos":null,"loc":null,"dtc":"2024-05-10","dy":"32","visit":"C2D1","visitnum":"4.0","epoch":"TREATMENT"},{"seq":"25","testcd":"BMI","test":"BMI","cat":null,"orres":"21.4","orresu":"kg/m2","stresc":"21.4","stresn":"21.4","stresu":"kg/m2","stnrlo":null,"stnrhi":null,"nrind":null,"pos":null,"loc":null,"dtc":"2024-06-07","dy":"60","visit":"C3D1","visitnum":"5.0","epoch":"TREATMENT"},{"seq":"26","testcd":"DIABP","test":"Diastolic Blood Pressure","cat":null,"orres":"78.4","orresu":"mmHg","stresc":"78.4","stresn":"78.4","stresu":"mmHg","stnrlo":null,"stnrhi":null,"nrind":null,"pos":null,"loc":null,"dtc":"2024-06-07","dy":"60","visit":"C3D1","visitnum":"5.0","epoch":"TREATMENT"},{"seq":"27","testcd":"HEIGHT","test":"Height","cat":null,"orres":"140.9","orresu":"cm","stresc":"140.9","stresn":"140.9","stresu":"cm","stnrlo":null,"stnrhi":null,"nrind":null,"pos":null,"loc":null,"dtc":"2024-06-07","dy":"60","visit":"C3D1","visitnum":"5.0","epoch":"TREATMENT"},{"seq":"28","testcd":"PULSE","test":"Pulse Rate","cat":null,"orres":"67.3","orresu":"beats/min","stresc":"67.3","stresn":"67.3","stresu":"beats/min","stnrlo":null,"stnrhi":null,"nrind":null,"pos":null,"loc":null,"dtc":"2024-06-07","dy":"60","visit":"C3D1","visitnum":"5.0","epoch":"TREATMENT"},{"seq":"29","testcd":"RESP","test":"Respiratory Rate","cat":null,"orres":"19.5","orresu":"breaths/min","stresc":"19.5","stresn":"19.5","stresu":"breaths/min","stnrlo":null,"stnrhi":null,"nrind":null,"pos":null,"loc":null,"dtc":"2024-06-07","dy":"60","visit":"C3D1","visitnum":"5.0","epoch":"TREATMENT"},{"seq":"30","testcd":"SYSBP","test":"Systolic Blood Pressure","cat":null,"orres":"111.7","orresu":"mmHg","stresc":"111.7","stresn":"111.7","stresu":"mmHg","stnrlo":null,"stnrhi":null,"nrind":null,"pos":null,"loc":null,"dtc":"2024-06-07","dy":"60","visit":"C3D1","visitnum":"5.0","epoch":"TREATMENT"},{"seq":"31","testcd":"TEMP","test":"Temperature","cat":null,"orres":"36.6","orresu":"C","stresc":"36.6","stresn":"36.6","stresu":"C","stnrlo":null,"stnrhi":null,"nrind":null,"pos":null,"loc":null,"dtc":"2024-06-07","dy":"60","visit":"C3D1","visitnum":"5.0","epoch":"TREATMENT"},{"seq":"32","testcd":"WEIGHT","test":"Weight","cat":null,"orres":"42.5","orresu":"kg","stresc":"42.5","stresn":"42.5","stresu":"kg","stnrlo":null,"stnrhi":null,"nrind":null,"pos":null,"loc":null,"dtc":"2024-06-07","dy":"60","visit":"C3D1","visitnum":"5.0","epoch":"TREATMENT"},{"seq":"33","testcd":"BMI","test":"BMI","cat":null,"orres":"21.1","orresu":"kg/m2","stresc":"21.1","stresn":"21.1","stresu":"kg/m2","stnrlo":null,"stnrhi":null,"nrind":null,"pos":null,"loc":null,"dtc":"2024-06-29","dy":"82","visit":"C4D1","visitnum":"6.0","epoch":"TREATMENT"},{"seq":"34","testcd":"DIABP","test":"Diastolic Blood Pressure","cat":null,"orres":"79.7","orresu":"mmHg","stresc":"79.7","stresn":"79.7","stresu":"mmHg","stnrlo":null,"stnrhi":null,"nrind":null,"pos":null,"loc":null,"dtc":"2024-06-29","dy":"82","visit":"C4D1","visitnum":"6.0","epoch":"TREATMENT"},{"seq":"35","testcd":"HEIGHT","test":"Height","cat":null,"orres":"141.0","orresu":"cm","stresc":"141.0","stresn":"141.0","stresu":"cm","stnrlo":null,"stnrhi":null,"nrind":null,"pos":null,"loc":null,"dtc":"2024-06-29","dy":"82","visit":"C4D1","visitnum":"6.0","epoch":"TREATMENT"},{"seq":"36","testcd":"PULSE","test":"Pulse Rate","cat":null,"orres":"63.4","orresu":"beats/min","stresc":"63.4","stresn":"63.4","stresu":"beats/min","stnrlo":null,"stnrhi":null,"nrind":null,"pos":null,"loc":null,"dtc":"2024-06-29","dy":"82","visit":"C4D1","visitnum":"6.0","epoch":"TREATMENT"},{"seq":"37","testcd":"RESP","test":"Respiratory Rate","cat":null,"orres":"18.6","orresu":"breaths/min","stresc":"18.6","stresn":"18.6","stresu":"breaths/min","stnrlo":null,"stnrhi":null,"nrind":null,"pos":null,"loc":null,"dtc":"2024-06-29","dy":"82","visit":"C4D1","visitnum":"6.0","epoch":"TREATMENT"},{"seq":"38","testcd":"SYSBP","test":"Systolic Blood Pressure","cat":null,"orres":"113.4","orresu":"mmHg","stresc":"113.4","stresn":"113.4","stresu":"mmHg","stnrlo":null,"stnrhi":null,"nrind":null,"pos":null,"loc":null,"dtc":"2024-06-29","dy":"82","visit":"C4D1","visitnum":"6.0","epoch":"TREATMENT"},{"seq":"39","testcd":"TEMP","test":"Temperature","cat":null,"orres":"36.9","orresu":"C","stresc":"36.9","stresn":"36.9","stresu":"C","stnrlo":null,"stnrhi":null,"nrind":null,"pos":null,"loc":null,"dtc":"2024-06-29","dy":"82","visit":"C4D1","visitnum":"6.0","epoch":"TREATMENT"},{"seq":"40","testcd":"WEIGHT","test":"Weight","cat":null,"orres":"41.9","orresu":"kg","stresc":"41.9","stresn":"41.9","stresu":"kg","stnrlo":null,"stnrhi":null,"nrind":null,"pos":null,"loc":null,"dtc":"2024-06-29","dy":"82","visit":"C4D1","visitnum":"6.0","epoch":"TREATMENT"},{"seq":"41","testcd":"BMI","test":"BMI","cat":null,"orres":"20.1","orresu":"kg/m2","stresc":"20.1","stresn":"20.1","stresu":"kg/m2","stnrlo":null,"stnrhi":null,"nrind":null,"pos":null,"loc":null,"dtc":"2024-08-31","dy":"145","visit":"C6D1","visitnum":"7.0","epoch":"TREATMENT"},{"seq":"42","testcd":"DIABP","test":"Diastolic Blood Pressure","cat":null,"orres":"79.8","orresu":"mmHg","stresc":"79.8","stresn":"79.8","stresu":"mmHg","stnrlo":null,"stnrhi":null,"nrind":null,"pos":null,"loc":null,"dtc":"2024-08-31","dy":"145","visit":"C6D1","visitnum":"7.0","epoch":"TREATMENT"},{"seq":"43","testcd":"HEIGHT","test":"Height","cat":null,"orres":"140.9","orresu":"cm","stresc":"140.9","stresn":"140.9","stresu":"cm","stnrlo":null,"stnrhi":null,"nrind":null,"pos":null,"loc":null,"dtc":"2024-08-31","dy":"145","visit":"C6D1","visitnum":"7.0","epoch":"TREATMENT"},{"seq":"44","testcd":"PULSE","test":"Pulse Rate","cat":null,"orres":"56.6","orresu":"beats/min","stresc":"56.6","stresn":"56.6","stresu":"beats/min","stnrlo":null,"stnrhi":null,"nrind":null,"pos":null,"loc":null,"dtc":"2024-08-31","dy":"145","visit":"C6D1","visitnum":"7.0","epoch":"TREATMENT"},{"seq":"45","testcd":"RESP","test":"Respiratory Rate","cat":null,"orres":"18.4","orresu":"breaths/min","stresc":"18.4","stresn":"18.4","stresu":"breaths/min","stnrlo":null,"stnrhi":null,"nrind":null,"pos":null,"loc":null,"dtc":"2024-08-31","dy":"145","visit":"C6D1","visitnum":"7.0","epoch":"TREATMENT"},{"seq":"46","testcd":"SYSBP","test":"Systolic Blood Pressure","cat":null,"orres":"113.7","orresu":"mmHg","stresc":"113.7","stresn":"113.7","stresu":"mmHg","stnrlo":null,"stnrhi":null,"nrind":null,"pos":null,"loc":null,"dtc":"2024-08-31","dy":"145","visit":"C6D1","visitnum":"7.0","epoch":"TREATMENT"},{"seq":"47","testcd":"TEMP","test":"Temperature","cat":null,"orres":"36.8","orresu":"C","stresc":"36.8","stresn":"36.8","stresu":"C","stnrlo":null,"stnrhi":null,"nrind":null,"pos":null,"loc":null,"dtc":"2024-08-31","dy":"145","visit":"C6D1","visitnum":"7.0","epoch":"TREATMENT"},{"seq":"48","testcd":"WEIGHT","test":"Weight","cat":null,"orres":"40.0","orresu":"kg","stresc":"40.0","stresn":"40.0","stresu":"kg","stnrlo":null,"stnrhi":null,"nrind":null,"pos":null,"loc":null,"dtc":"2024-08-31","dy":"145","visit":"C6D1","visitnum":"7.0","epoch":"TREATMENT"},{"seq":"49","testcd":"DIABP","test":"Diastolic Blood Pressure","cat":null,"orres":"81.7","orresu":"mmHg","stresc":"81.7","stresn":"81.7","stresu":"mmHg","stnrlo":null,"stnrhi":null,"nrind":null,"pos":null,"loc":null,"dtc":"2024-09-21","dy":"166","visit":"EOT","visitnum":"8.0","epoch":"TREATMENT"},{"seq":"50","testcd":"HEIGHT","test":"Height","cat":null,"orres":"141.1","orresu":"cm","stresc":"141.1","stresn":"141.1","stresu":"cm","stnrlo":null,"stnrhi":null,"nrind":null,"pos":null,"loc":null,"dtc":"2024-09-21","dy":"166","visit":"EOT","visitnum":"8.0","epoch":"TREATMENT"},{"seq":"51","testcd":"PULSE","test":"Pulse Rate","cat":null,"orres":"58.4","orresu":"beats/min","stresc":"58.4","stresn":"58.4","stresu":"beats/min","stnrlo":null,"stnrhi":null,"nrind":null,"pos":null,"loc":null,"dtc":"2024-09-21","dy":"166","visit":"EOT","visitnum":"8.0","epoch":"TREATMENT"},{"seq":"52","testcd":"RESP","test":"Respiratory Rate","cat":null,"orres":"18.9","orresu":"breaths/min","stresc":"18.9","stresn":"18.9","stresu":"breaths/min","stnrlo":null,"stnrhi":null,"nrind":null,"pos":null,"loc":null,"dtc":"2024-09-21","dy":"166","visit":"EOT","visitnum":"8.0","epoch":"TREATMENT"},{"seq":"53","testcd":"SYSBP","test":"Systolic Blood Pressure","cat":null,"orres":"115.2","orresu":"mmHg","stresc":"115.2","stresn":"115.2","stresu":"mmHg","stnrlo":null,"stnrhi":null,"nrind":null,"pos":null,"loc":null,"dtc":"2024-09-21","dy":"166","visit":"EOT","visitnum":"8.0","epoch":"TREATMENT"},{"seq":"54","testcd":"TEMP","test":"Temperature","cat":null,"orres":"36.8","orresu":"C","stresc":"36.8","stresn":"36.8","stresu":"C","stnrlo":null,"stnrhi":null,"nrind":null,"pos":null,"loc":null,"dtc":"2024-09-21","dy":"166","visit":"EOT","visitnum":"8.0","epoch":"TREATMENT"},{"seq":"55","testcd":"WEIGHT","test":"Weight","cat":null,"orres":null,"orresu":null,"stresc":null,"stresn":null,"stresu":null,"stnrlo":null,"stnrhi":null,"nrind":null,"pos":null,"loc":null,"dtc":"2024-09-21","dy":"166","visit":"EOT","visitnum":"8.0","epoch":"TREATMENT"},{"seq":"56","testcd":"BMI","test":"BMI","cat":null,"orres":"22.8","orresu":"kg/m2","stresc":"22.8","stresn":"22.8","stresu":"kg/m2","stnrlo":null,"stnrhi":null,"nrind":null,"pos":null,"loc":null,"dtc":"2024-10-22","dy":"197","visit":"FOLLOW-UP","visitnum":"9.0","epoch":"FOLLOW-UP"},{"seq":"57","testcd":"DIABP","test":"Diastolic Blood Pressure","cat":null,"orres":"81.2","orresu":"mmHg","stresc":"81.2","stresn":"81.2","stresu":"mmHg","stnrlo":null,"stnrhi":null,"nrind":null,"pos":null,"loc":null,"dtc":"2024-10-22","dy":"197","visit":"FOLLOW-UP","visitnum":"9.0","epoch":"FOLLOW-UP"},{"seq":"58","testcd":"HEIGHT","test":"Height","cat":null,"orres":"140.4","orresu":"cm","stresc":"140.4","stresn":"140.4","stresu":"cm","stnrlo":null,"stnrhi":null,"nrind":null,"pos":null,"loc":null,"dtc":"2024-10-22","dy":"197","visit":"FOLLOW-UP","visitnum":"9.0","epoch":"FOLLOW-UP"},{"seq":"59","testcd":"PULSE","test":"Pulse Rate","cat":null,"orres":"59.9","orresu":"beats/min","stresc":"59.9","stresn":"59.9","stresu":"beats/min","stnrlo":null,"stnrhi":null,"nrind":null,"pos":null,"loc":null,"dtc":"2024-10-22","dy":"197","visit":"FOLLOW-UP","visitnum":"9.0","epoch":"FOLLOW-UP"},{"seq":"60","testcd":"RESP","test":"Respiratory Rate","cat":null,"orres":"17.8","orresu":"breaths/min","stresc":"17.8","stresn":"17.8","stresu":"breaths/min","stnrlo":null,"stnrhi":null,"nrind":null,"pos":null,"loc":null,"dtc":"2024-10-22","dy":"197","visit":"FOLLOW-UP","visitnum":"9.0","epoch":"FOLLOW-UP"},{"seq":"61","testcd":"SYSBP","test":"Systolic Blood Pressure","cat":null,"orres":"111.2","orresu":"mmHg","stresc":"111.2","stresn":"111.2","stresu":"mmHg","stnrlo":null,"stnrhi":null,"nrind":null,"pos":null,"loc":null,"dtc":"2024-10-22","dy":"197","visit":"FOLLOW-UP","visitnum":"9.0","epoch":"FOLLOW-UP"},{"seq":"62","testcd":"TEMP","test":"Temperature","cat":null,"orres":"36.9","orresu":"C","stresc":"36.9","stresn":"36.9","stresu":"C","stnrlo":null,"stnrhi":null,"nrind":null,"pos":null,"loc":null,"dtc":"2024-10-22","dy":"197","visit":"FOLLOW-UP","visitnum":"9.0","epoch":"FOLLOW-UP"},{"seq":"63","testcd":"WEIGHT","test":"Weight","cat":null,"orres":"44.9","orresu":"kg","stresc":"44.9","stresn":"44.9","stresu":"kg","stnrlo":null,"stnrhi":null,"nrind":null,"pos":null,"loc":null,"dtc":"2024-10-22","dy":"197","visit":"FOLLOW-UP","visitnum":"9.0","epoch":"FOLLOW-UP"}]},"section_10_questionnaires_and_scores":{"questionnaires":[],"findings_about":[{"seq":"1","testcd":"LDIAM","test":"Longest Diameter","cat":"TUMOR ASSESSMENT","orres":"57.5","stresc":"57.5","stresn":"57.5","dtc":"2024-03-28","visit":"SCREENING"},{"seq":"2","testcd":"SAXIS","test":"Short Axis","cat":"TUMOR ASSESSMENT","orres":"12.9","stresc":"12.9","stresn":"12.9","dtc":"2024-03-28","visit":"SCREENING"},{"seq":"3","testcd":"LDIAM","test":"Longest Diameter","cat":"TUMOR ASSESSMENT","orres":"17.8","stresc":"17.8","stresn":"17.8","dtc":"2024-03-28","visit":"SCREENING"},{"seq":"4","testcd":"SAXIS","test":"Short Axis","cat":"TUMOR ASSESSMENT","orres":"6.2","stresc":"6.2","stresn":"6.2","dtc":"2024-03-28","visit":"SCREENING"},{"seq":"5","testcd":"LDIAM","test":"Longest Diameter","cat":"TUMOR ASSESSMENT","orres":"32.0","stresc":"32.0","stresn":"32.0","dtc":"2024-03-28","visit":"SCREENING"},{"seq":"6","testcd":"SAXIS","test":"Short Axis","cat":"TUMOR ASSESSMENT","orres":"4.7","stresc":"4.7","stresn":"4.7","dtc":"2024-03-28","visit":"SCREENING"},{"seq":"7","testcd":"LDIAM","test":"Longest Diameter","cat":"TUMOR ASSESSMENT","orres":"19.6","stresc":"19.6","stresn":"19.6","dtc":"2024-03-28","visit":"SCREENING"},{"seq":"8","testcd":"SAXIS","test":"Short Axis","cat":"TUMOR ASSESSMENT","orres":"4.6","stresc":"4.6","stresn":"4.6","dtc":"2024-03-28","visit":"SCREENING"},{"seq":"9","testcd":"LDIAM","test":"Longest Diameter","cat":"TUMOR ASSESSMENT","orres":"34.9","stresc":"34.9","stresn":"34.9","dtc":"2024-03-28","visit":"SCREENING"},{"seq":"10","testcd":"SAXIS","test":"Short Axis","cat":"TUMOR ASSESSMENT","orres":"16.3","stresc":"16.3","stresn":"16.3","dtc":"2024-03-28","visit":"SCREENING"},{"seq":"11","testcd":"LDIAM","test":"Longest Diameter","cat":"TUMOR ASSESSMENT","orres":"56.5","stresc":"56.5","stresn":"56.5","dtc":"2024-04-09","visit":"C1D1"},{"seq":"12","testcd":"SAXIS","test":"Short Axis","cat":"TUMOR ASSESSMENT","orres":"12.2","stresc":"12.2","stresn":"12.2","dtc":"2024-04-09","visit":"C1D1"},{"seq":"13","testcd":"LDIAM","test":"Longest Diameter","cat":"TUMOR ASSESSMENT","orres":"15.4","stresc":"15.4","stresn":"15.4","dtc":"2024-04-09","visit":"C1D1"},{"seq":"14","testcd":"SAXIS","test":"Short Axis","cat":"TUMOR ASSESSMENT","orres":"5.7","stresc":"5.7","stresn":"5.7","dtc":"2024-04-09","visit":"C1D1"},{"seq":"15","testcd":"LDIAM","test":"Longest Diameter","cat":"TUMOR ASSESSMENT","orres":"31.7","stresc":"31.7","stresn":"31.7","dtc":"2024-04-09","visit":"C1D1"},{"seq":"16","testcd":"SAXIS","test":"Short Axis","cat":"TUMOR ASSESSMENT","orres":"5.1","stresc":"5.1","stresn":"5.1","dtc":"2024-04-09","visit":"C1D1"},{"seq":"17","testcd":"LDIAM","test":"Longest Diameter","cat":"TUMOR ASSESSMENT","orres":"17.5","stresc":"17.5","stresn":"17.5","dtc":"2024-04-09","visit":"C1D1"},{"seq":"18","testcd":"SAXIS","test":"Short Axis","cat":"TUMOR ASSESSMENT","orres":"5.6","stresc":"5.6","stresn":"5.6","dtc":"2024-04-09","visit":"C1D1"},{"seq":"19","testcd":"LDIAM","test":"Longest Diameter","cat":"TUMOR ASSESSMENT","orres":"30.4","stresc":"30.4","stresn":"30.4","dtc":"2024-04-09","visit":"C1D1"},{"seq":"20","testcd":"SAXIS","test":"Short Axis","cat":"TUMOR ASSESSMENT","orres":"15.6","stresc":"15.6","stresn":"15.6","dtc":"2024-04-09","visit":"C1D1"},{"seq":"21","testcd":"LDIAM","test":"Longest Diameter","cat":"TUMOR ASSESSMENT","orres":"51.1","stresc":"51.1","stresn":"51.1","dtc":"2024-04-23","visit":"C1D15"},{"seq":"22","testcd":"SAXIS","test":"Short Axis","cat":"TUMOR ASSESSMENT","orres":"11.3","stresc":"11.3","stresn":"11.3","dtc":"2024-04-23","visit":"C1D15"},{"seq":"23","testcd":"LDIAM","test":"Longest Diameter","cat":"TUMOR ASSESSMENT","orres":"17.5","stresc":"17.5","stresn":"17.5","dtc":"2024-04-23","visit":"C1D15"},{"seq":"24","testcd":"SAXIS","test":"Short Axis","cat":"TUMOR ASSESSMENT","orres":"6.1","stresc":"6.1","stresn":"6.1","dtc":"2024-04-23","visit":"C1D15"},{"seq":"25","testcd":"LDIAM","test":"Longest Diameter","cat":"TUMOR ASSESSMENT","orres":"29.5","stresc":"29.5","stresn":"29.5","dtc":"2024-04-23","visit":"C1D15"},{"seq":"26","testcd":"SAXIS","test":"Short Axis","cat":"TUMOR ASSESSMENT","orres":"4.6","stresc":"4.6","stresn":"4.6","dtc":"2024-04-23","visit":"C1D15"},{"seq":"27","testcd":"LDIAM","test":"Longest Diameter","cat":"TUMOR ASSESSMENT","orres":"16.6","stresc":"16.6","stresn":"16.6","dtc":"2024-04-23","visit":"C1D15"},{"seq":"28","testcd":"SAXIS","test":"Short Axis","cat":"TUMOR ASSESSMENT","orres":"4.7","stresc":"4.7","stresn":"4.7","dtc":"2024-04-23","visit":"C1D15"},{"seq":"29","testcd":"LDIAM","test":"Longest Diameter","cat":"TUMOR ASSESSMENT","orres":"31.9","stresc":"31.9","stresn":"31.9","dtc":"2024-04-23","visit":"C1D15"},{"seq":"30","testcd":"SAXIS","test":"Short Axis","cat":"TUMOR ASSESSMENT","orres":"14.3","stresc":"14.3","stresn":"14.3","dtc":"2024-04-23","visit":"C1D15"},{"seq":"31","testcd":"LDIAM","test":"Longest Diameter","cat":"TUMOR ASSESSMENT","orres":"45.1","stresc":"45.1","stresn":"45.1","dtc":"2024-05-07","visit":"C2D1"},{"seq":"32","testcd":"SAXIS","test":"Short Axis","cat":"TUMOR ASSESSMENT","orres":"10.6","stresc":"10.6","stresn":"10.6","dtc":"2024-05-07","visit":"C2D1"},{"seq":"33","testcd":"LDIAM","test":"Longest Diameter","cat":"TUMOR ASSESSMENT","orres":"13.4","stresc":"13.4","stresn":"13.4","dtc":"2024-05-07","visit":"C2D1"},{"seq":"34","testcd":"SAXIS","test":"Short Axis","cat":"TUMOR ASSESSMENT","orres":"5.6","stresc":"5.6","stresn":"5.6","dtc":"2024-05-07","visit":"C2D1"},{"seq":"35","testcd":"LDIAM","test":"Longest Diameter","cat":"TUMOR ASSESSMENT","orres":"27.9","stresc":"27.9","stresn":"27.9","dtc":"2024-05-07","visit":"C2D1"},{"seq":"36","testcd":"SAXIS","test":"Short Axis","cat":"TUMOR ASSESSMENT","orres":"4.2","stresc":"4.2","stresn":"4.2","dtc":"2024-05-07","visit":"C2D1"},{"seq":"37","testcd":"LDIAM","test":"Longest Diameter","cat":"TUMOR ASSESSMENT","orres":"15.4","stresc":"15.4","stresn":"15.4","dtc":"2024-05-07","visit":"C2D1"},{"seq":"38","testcd":"SAXIS","test":"Short Axis","cat":"TUMOR ASSESSMENT","orres":"3.5","stresc":"3.5","stresn":"3.5","dtc":"2024-05-07","visit":"C2D1"},{"seq":"39","testcd":"LDIAM","test":"Longest Diameter","cat":"TUMOR ASSESSMENT","orres":"28.7","stresc":"28.7","stresn":"28.7","dtc":"2024-05-07","visit":"C2D1"},{"seq":"40","testcd":"SAXIS","test":"Short Axis","cat":"TUMOR ASSESSMENT","orres":"13.1","stresc":"13.1","stresn":"13.1","dtc":"2024-05-07","visit":"C2D1"},{"seq":"41","testcd":"LDIAM","test":"Longest Diameter","cat":"TUMOR ASSESSMENT","orres":"46.2","stresc":"46.2","stresn":"46.2","dtc":"2024-06-04","visit":"C3D1"},{"seq":"42","testcd":"SAXIS","test":"Short Axis","cat":"TUMOR ASSESSMENT","orres":"9.3","stresc":"9.3","stresn":"9.3","dtc":"2024-06-04","visit":"C3D1"},{"seq":"43","testcd":"LDIAM","test":"Longest Diameter","cat":"TUMOR ASSESSMENT","orres":"12.6","stresc":"12.6","stresn":"12.6","dtc":"2024-06-04","visit":"C3D1"},{"seq":"44","testcd":"SAXIS","test":"Short Axis","cat":"TUMOR ASSESSMENT","orres":"4.9","stresc":"4.9","stresn":"4.9","dtc":"2024-06-04","visit":"C3D1"},{"seq":"45","testcd":"LDIAM","test":"Longest Diameter","cat":"TUMOR ASSESSMENT","orres":"25.4","stresc":"25.4","stresn":"25.4","dtc":"2024-06-04","visit":"C3D1"},{"seq":"46","testcd":"SAXIS","test":"Short Axis","cat":"TUMOR ASSESSMENT","orres":"3.4","stresc":"3.4","stresn":"3.4","dtc":"2024-06-04","visit":"C3D1"},{"seq":"47","testcd":"LDIAM","test":"Longest Diameter","cat":"TUMOR ASSESSMENT","orres":"13.8","stresc":"13.8","stresn":"13.8","dtc":"2024-06-04","visit":"C3D1"},{"seq":"48","testcd":"SAXIS","test":"Short Axis","cat":"TUMOR ASSESSMENT","orres":"3","stresc":"3","stresn":"3.0","dtc":"2024-06-04","visit":"C3D1"},{"seq":"49","testcd":"LDIAM","test":"Longest Diameter","cat":"TUMOR ASSESSMENT","orres":"24.9","stresc":"24.9","stresn":"24.9","dtc":"2024-06-04","visit":"C3D1"},{"seq":"50","testcd":"SAXIS","test":"Short Axis","cat":"TUMOR ASSESSMENT","orres":"13.0","stresc":"13.0","stresn":"13.0","dtc":"2024-06-04","visit":"C3D1"},{"seq":"51","testcd":"LDIAM","test":"Longest Diameter","cat":"TUMOR ASSESSMENT","orres":"41.4","stresc":"41.4","stresn":"41.4","dtc":"2024-07-02","visit":"C4D1"},{"seq":"52","testcd":"SAXIS","test":"Short Axis","cat":"TUMOR ASSESSMENT","orres":"9.5","stresc":"9.5","stresn":"9.5","dtc":"2024-07-02","visit":"C4D1"},{"seq":"53","testcd":"LDIAM","test":"Longest Diameter","cat":"TUMOR ASSESSMENT","orres":"13.4","stresc":"13.4","stresn":"13.4","dtc":"2024-07-02","visit":"C4D1"},{"seq":"54","testcd":"SAXIS","test":"Short Axis","cat":"TUMOR ASSESSMENT","orres":"4.6","stresc":"4.6","stresn":"4.6","dtc":"2024-07-02","visit":"C4D1"},{"seq":"55","testcd":"LDIAM","test":"Longest Diameter","cat":"TUMOR ASSESSMENT","orres":"20.6","stresc":"20.6","stresn":"20.6","dtc":"2024-07-02","visit":"C4D1"},{"seq":"56","testcd":"SAXIS","test":"Short Axis","cat":"TUMOR ASSESSMENT","orres":"3.4","stresc":"3.4","stresn":"3.4","dtc":"2024-07-02","visit":"C4D1"},{"seq":"57","testcd":"LDIAM","test":"Longest Diameter","cat":"TUMOR ASSESSMENT","orres":"16.3","stresc":"16.3","stresn":"16.3","dtc":"2024-07-02","visit":"C4D1"},{"seq":"58","testcd":"SAXIS","test":"Short Axis","cat":"TUMOR ASSESSMENT","orres":"3.5","stresc":"3.5","stresn":"3.5","dtc":"2024-07-02","visit":"C4D1"},{"seq":"59","testcd":"LDIAM","test":"Longest Diameter","cat":"TUMOR ASSESSMENT","orres":"23.4","stresc":"23.4","stresn":"23.4","dtc":"2024-07-02","visit":"C4D1"},{"seq":"60","testcd":"SAXIS","test":"Short Axis","cat":"TUMOR ASSESSMENT","orres":"11.0","stresc":"11.0","stresn":"11.0","dtc":"2024-07-02","visit":"C4D1"},{"seq":"61","testcd":"LDIAM","test":"Longest Diameter","cat":"TUMOR ASSESSMENT","orres":"36.5","stresc":"36.5","stresn":"36.5","dtc":"2024-08-27","visit":"C6D1"},{"seq":"62","testcd":"SAXIS","test":"Short Axis","cat":"TUMOR ASSESSMENT","orres":"8.3","stresc":"8.3","stresn":"8.3","dtc":"2024-08-27","visit":"C6D1"},{"seq":"63","testcd":"LDIAM","test":"Longest Diameter","cat":"TUMOR ASSESSMENT","orres":"14.2","stresc":"14.2","stresn":"14.2","dtc":"2024-08-27","visit":"C6D1"},{"seq":"64","testcd":"SAXIS","test":"Short Axis","cat":"TUMOR ASSESSMENT","orres":"4.1","stresc":"4.1","stresn":"4.1","dtc":"2024-08-27","visit":"C6D1"},{"seq":"65","testcd":"LDIAM","test":"Longest Diameter","cat":"TUMOR ASSESSMENT","orres":"21.7","stresc":"21.7","stresn":"21.7","dtc":"2024-08-27","visit":"C6D1"},{"seq":"66","testcd":"SAXIS","test":"Short Axis","cat":"TUMOR ASSESSMENT","orres":"3.1","stresc":"3.1","stresn":"3.1","dtc":"2024-08-27","visit":"C6D1"},{"seq":"67","testcd":"LDIAM","test":"Longest Diameter","cat":"TUMOR ASSESSMENT","orres":"12.5","stresc":"12.5","stresn":"12.5","dtc":"2024-08-27","visit":"C6D1"},{"seq":"68","testcd":"SAXIS","test":"Short Axis","cat":"TUMOR ASSESSMENT","orres":"3","stresc":"3","stresn":"3.0","dtc":"2024-08-27","visit":"C6D1"},{"seq":"69","testcd":"LDIAM","test":"Longest Diameter","cat":"TUMOR ASSESSMENT","orres":"22.2","stresc":"22.2","stresn":"22.2","dtc":"2024-08-27","visit":"C6D1"},{"seq":"70","testcd":"SAXIS","test":"Short Axis","cat":"TUMOR ASSESSMENT","orres":"11.3","stresc":"11.3","stresn":"11.3","dtc":"2024-08-27","visit":"C6D1"},{"seq":"71","testcd":"LDIAM","test":"Longest Diameter","cat":"TUMOR ASSESSMENT","orres":"38.6","stresc":"38.6","stresn":"38.6","dtc":"2024-09-24","visit":"EOT"},{"seq":"72","testcd":"SAXIS","test":"Short Axis","cat":"TUMOR ASSESSMENT","orres":"8.3","stresc":"8.3","stresn":"8.3","dtc":"2024-09-24","visit":"EOT"},{"seq":"73","testcd":"LDIAM","test":"Longest Diameter","cat":"TUMOR ASSESSMENT","orres":"10.3","stresc":"10.3","stresn":"10.3","dtc":"2024-09-24","visit":"EOT"},{"seq":"74","testcd":"SAXIS","test":"Short Axis","cat":"TUMOR ASSESSMENT","orres":"3.7","stresc":"3.7","stresn":"3.7","dtc":"2024-09-24","visit":"EOT"},{"seq":"75","testcd":"LDIAM","test":"Longest Diameter","cat":"TUMOR ASSESSMENT","orres":"19.8","stresc":"19.8","stresn":"19.8","dtc":"2024-09-24","visit":"EOT"},{"seq":"76","testcd":"SAXIS","test":"Short Axis","cat":"TUMOR ASSESSMENT","orres":"3","stresc":"3","stresn":"3.0","dtc":"2024-09-24","visit":"EOT"},{"seq":"77","testcd":"LDIAM","test":"Longest Diameter","cat":"TUMOR ASSESSMENT","orres":"9.5","stresc":"9.5","stresn":"9.5","dtc":"2024-09-24","visit":"EOT"},{"seq":"78","testcd":"SAXIS","test":"Short Axis","cat":"TUMOR ASSESSMENT","orres":"3","stresc":"3","stresn":"3.0","dtc":"2024-09-24","visit":"EOT"},{"seq":"79","testcd":"LDIAM","test":"Longest Diameter","cat":"TUMOR ASSESSMENT","orres":"21.2","stresc":"21.2","stresn":"21.2","dtc":"2024-09-24","visit":"EOT"},{"seq":"80","testcd":"SAXIS","test":"Short Axis","cat":"TUMOR ASSESSMENT","orres":"10.2","stresc":"10.2","stresn":"10.2","dtc":"2024-09-24","visit":"EOT"}]},"section_11_protocol_deviations":{"deviations":[{"seq":"1","term":"Missed TEPOTINIB dose on 2024-04-11","decod":"MISSED DOSE","cat":"MINOR","scat":"DOSING","start_dtc":"2024-04-11","end_dtc":null,"visit":null},{"seq":"2","term":"Missed TEPOTINIB dose on 2024-04-25","decod":"MISSED DOSE","cat":"MINOR","scat":"DOSING","start_dtc":"2024-04-25","end_dtc":null,"visit":null},{"seq":"3","term":"Missed TEPOTINIB dose on 2024-05-12","decod":"MISSED DOSE","cat":"MINOR","scat":"DOSING","start_dtc":"2024-05-12","end_dtc":null,"visit":null},{"seq":"4","term":"Missed TEPOTINIB dose on 2024-05-13","decod":"MISSED DOSE","cat":"MINOR","scat":"DOSING","start_dtc":"2024-05-13","end_dtc":null,"visit":null},{"seq":"5","term":"Missed TEPOTINIB dose on 2024-05-20","decod":"MISSED DOSE","cat":"MINOR","scat":"DOSING","start_dtc":"2024-05-20","end_dtc":null,"visit":null},{"seq":"6","term":"Missed TEPOTINIB dose on 2024-05-24","decod":"MISSED DOSE","cat":"MINOR","scat":"DOSING","start_dtc":"2024-05-24","end_dtc":null,"visit":null},{"seq":"7","term":"Missed TEPOTINIB dose on 2024-05-27","decod":"MISSED DOSE","cat":"MINOR","scat":"DOSING","start_dtc":"2024-05-27","end_dtc":null,"visit":null},{"seq":"8","term":"Missed TEPOTINIB dose on 2024-06-06","decod":"MISSED DOSE","cat":"MINOR","scat":"DOSING","start_dtc":"2024-06-06","end_dtc":null,"visit":null},{"seq":"9","term":"Missed TEPOTINIB dose on 2024-06-28","decod":"MISSED DOSE","cat":"MINOR","scat":"DOSING","start_dtc":"2024-06-28","end_dtc":null,"visit":null},{"seq":"10","term":"Missed TEPOTINIB dose on 2024-06-29","decod":"MISSED DOSE","cat":"MINOR","scat":"DOSING","start_dtc":"2024-06-29","end_dtc":null,"visit":null},{"seq":"11","term":"Visit FOLLOW-UP occurred 2 days early (Day 197 vs planned Day 199)","decod":"VISIT OCCURRED OUTSIDE VISIT WINDOW","cat":"MINOR","scat":"VISIT WINDOW","start_dtc":"2024-10-22","end_dtc":null,"visit":null}],"total":11},"section_12_disposition":{"completion_status":"COMPLETED","disposition_records":[{"seq":"1","term":"INFORMED CONSENT OBTAINED","decod":"INFORMED CONSENT OBTAINED","cat":"PROTOCOL MILESTONE","scat":null,"dtc":"2024-03-28","dy":null,"visit":null,"epoch":"SCREENING"},{"seq":"2","term":"RANDOMIZED","decod":"RANDOMIZED","cat":"PROTOCOL MILESTONE","scat":null,"dtc":"2024-04-09","dy":null,"visit":null,"epoch":"TREATMENT"},{"seq":"3","term":"COMPLETED","decod":"COMPLETED","cat":"DISPOSITION EVENT","scat":null,"dtc":"2024-11-20","dy":null,"visit":null,"epoch":"FOLLOW-UP"}],"death":null},"section_13_hospitalizations":{"items":[{"seq":"1","term":"Fatigue","decod":"Fatigue","cat":"HOSPITALIZATION","start_dtc":"2024-06-30","end_dtc":"2024-07-03","epoch":"TREATMENT"}],"total":1},"section_14_substance_use":{"items":[{"seq":"1","substance":"ALCOHOL","decod":"ALCOHOL","cat":"ALCOHOL","scat":null,"usage":"Y","dose":"2.0","dosu":"DRINKS/WEEK","freq":"QW","start_dtc":"2021-03-29","end_dtc":null},{"seq":"2","substance":"COFFEE","decod":"COFFEE","cat":"CAFFEINE","scat":null,"usage":"N","dose":null,"dosu":null,"freq":null,"start_dtc":null,"end_dtc":null},{"seq":"3","substance":"CIGARETTES","decod":"CIGARETTES","cat":"TOBACCO","scat":"CIGARETTES","usage":"Y","dose":null,"dosu":null,"freq":null,"start_dtc":"1996-04-04","end_dtc":"2019-03-30"}],"total":3},"section_15_subject_status":{"items":[{"seq":"1","testcd":"SURVSTAT","test":"Survival Status","orres":"ALIVE","stresc":"ALIVE","dtc":"2024-10-24","visit":"FOLLOW-UP","epoch":"FOLLOW-UP"}],"total":1}}