STUDYID,DOMAIN,USUBJID,FASEQ,FATESTCD,FATEST,FACAT,FASCAT,FAOBJ,FAORRES,FAORRESU,FASTRESC,FASTRESN,FASTRESU,FASTAT,FABLFL,VISITNUM,VISIT,EPOCH,FADTC,FADY
VISION-NSCLC,FA,VISION-NSCLC-SITE001-0001,1,LDIAM,Longest Diameter,TUMOR ASSESSMENT,,TARGET LESION 1,19.5,mm,19.5,19.5,mm,,Y,1.0,SCREENING,SCREENING,2024-03-07,-20
VISION-NSCLC,FA,VISION-NSCLC-SITE001-0001,2,SAXIS,Short Axis,TUMOR ASSESSMENT,,TARGET LESION 1,8.8,mm,8.8,8.8,mm,,Y,1.0,SCREENING,SCREENING,2024-03-07,-20
VISION-NSCLC,FA,VISION-NSCLC-SITE001-0001,3,LDIAM,Longest Diameter,TUMOR ASSESSMENT,,TARGET LESION 2,35.3,mm,35.3,35.3,mm,,Y,1.0,SCREENING,SCREENING,2024-03-07,-20
VISION-NSCLC,FA,VISION-NSCLC-SITE001-0001,4,SAXIS,Short Axis,TUMOR ASSESSMENT,,TARGET LESION 2,15.3,mm,15.3,15.3,mm,,Y,1.0,SCREENING,SCREENING,2024-03-07,-20
VISION-NSCLC,FA,VISION-NSCLC-SITE001-0001,5,LDIAM,Longest Diameter,TUMOR ASSESSMENT,,TARGET LESION 1,16.1,mm,16.1,16.1,mm,,,2.0,C1D1,TREATMENT,2024-03-27,1
VISION-NSCLC,FA,VISION-NSCLC-SITE001-0001,6,SAXIS,Short Axis,TUMOR ASSESSMENT,,TARGET LESION 1,6.8,mm,6.8,6.8,mm,,,2.0,C1D1,TREATMENT,2024-03-27,1
VISION-NSCLC,FA,VISION-NSCLC-SITE001-0001,7,LDIAM,Longest Diameter,TUMOR ASSESSMENT,,TARGET LESION 2,28.2,mm,28.2,28.2,mm,,,2.0,C1D1,TREATMENT,2024-03-27,1
VISION-NSCLC,FA,VISION-NSCLC-SITE001-0001,8,SAXIS,Short Axis,TUMOR ASSESSMENT,,TARGET LESION 2,12.4,mm,12.4,12.4,mm,,,2.0,C1D1,TREATMENT,2024-03-27,1
VISION-NSCLC,FA,VISION-NSCLC-SITE001-0001,9,LDIAM,Longest Diameter,TUMOR ASSESSMENT,,TARGET LESION 1,12.9,mm,12.9,12.9,mm,,,3.0,C1D15,TREATMENT,2024-04-10,15
VISION-NSCLC,FA,VISION-NSCLC-SITE001-0001,10,SAXIS,Short Axis,TUMOR ASSESSMENT,,TARGET LESION 1,5.5,mm,5.5,5.5,mm,,,3.0,C1D15,TREATMENT,2024-04-10,15
VISION-NSCLC,FA,VISION-NSCLC-SITE001-0001,11,LDIAM,Longest Diameter,TUMOR ASSESSMENT,,TARGET LESION 2,23.5,mm,23.5,23.5,mm,,,3.0,C1D15,TREATMENT,2024-04-10,15
VISION-NSCLC,FA,VISION-NSCLC-SITE001-0001,12,SAXIS,Short Axis,TUMOR ASSESSMENT,,TARGET LESION 2,8.4,mm,8.4,8.4,mm,,,3.0,C1D15,TREATMENT,2024-04-10,15
VISION-NSCLC,FA,VISION-NSCLC-SITE001-0007,1,LDIAM,Longest Diameter,TUMOR ASSESSMENT,,TARGET LESION 1,49.3,mm,49.3,49.3,mm,,Y,1.0,SCREENING,SCREENING,2024-01-15,-29
VISION-NSCLC,FA,VISION-NSCLC-SITE001-0007,2,SAXIS,Short Axis,TUMOR ASSESSMENT,,TARGET LESION 1,8.7,mm,8.7,8.7,mm,,Y,1.0,SCREENING,SCREENING,2024-01-15,-29
VISION-NSCLC,FA,VISION-NSCLC-SITE001-0007,3,LDIAM,Longest Diameter,TUMOR ASSESSMENT,,TARGET LESION 2,48.1,mm,48.1,48.1,mm,,Y,1.0,SCREENING,SCREENING,2024-01-15,-29
VISION-NSCLC,FA,VISION-NSCLC-SITE001-0007,4,SAXIS,Short Axis,TUMOR ASSESSMENT,,TARGET LESION 2,3,mm,3,3.0,mm,,Y,1.0,SCREENING,SCREENING,2024-01-15,-29
VISION-NSCLC,FA,VISION-NSCLC-SITE001-0007,5,LDIAM,Longest Diameter,TUMOR ASSESSMENT,,TARGET LESION 3,40.2,mm,40.2,40.2,mm,,Y,1.0,SCREENING,SCREENING,2024-01-15,-29
VISION-NSCLC,FA,VISION-NSCLC-SITE001-0007,6,SAXIS,Short Axis,TUMOR ASSESSMENT,,TARGET LESION 3,10.8,mm,10.8,10.8,mm,,Y,1.0,SCREENING,SCREENING,2024-01-15,-29
VISION-NSCLC,FA,VISION-NSCLC-SITE001-0007,7,LDIAM,Longest Diameter,TUMOR ASSESSMENT,,TARGET LESION 4,43.5,mm,43.5,43.5,mm,,Y,1.0,SCREENING,SCREENING,2024-01-15,-29
VISION-NSCLC,FA,VISION-NSCLC-SITE001-0007,8,SAXIS,Short Axis,TUMOR ASSESSMENT,,TARGET LESION 4,10.0,mm,10.0,10.0,mm,,Y,1.0,SCREENING,SCREENING,2024-01-15,-29
VISION-NSCLC,FA,VISION-NSCLC-SITE001-0007,9,LDIAM,Longest Diameter,TUMOR ASSESSMENT,,TARGET LESION 5,24.7,mm,24.7,24.7,mm,,Y,1.0,SCREENING,SCREENING,2024-01-15,-29
VISION-NSCLC,FA,VISION-NSCLC-SITE001-0007,10,SAXIS,Short Axis,TUMOR ASSESSMENT,,TARGET LESION 5,12.9,mm,12.9,12.9,mm,,Y,1.0,SCREENING,SCREENING,2024-01-15,-29
VISION-NSCLC,FA,VISION-NSCLC-SITE001-0007,11,LDIAM,Longest Diameter,TUMOR ASSESSMENT,,TARGET LESION 1,47.8,mm,47.8,47.8,mm,,,2.0,C1D1,TREATMENT,2024-02-13,1
VISION-NSCLC,FA,VISION-NSCLC-SITE001-0007,12,SAXIS,Short Axis,TUMOR ASSESSMENT,,TARGET LESION 1,8.5,mm,8.5,8.5,mm,,,2.0,C1D1,TREATMENT,2024-02-13,1
VISION-NSCLC,FA,VISION-NSCLC-SITE001-0007,13,LDIAM,Longest Diameter,TUMOR ASSESSMENT,,TARGET LESION 2,47.4,mm,47.4,47.4,mm,,,2.0,C1D1,TREATMENT,2024-02-13,1
VISION-NSCLC,FA,VISION-NSCLC-SITE001-0007,14,SAXIS,Short Axis,TUMOR ASSESSMENT,,TARGET LESION 2,3.1,mm,3.1,3.1,mm,,,2.0,C1D1,TREATMENT,2024-02-13,1
VISION-NSCLC,FA,VISION-NSCLC-SITE001-0007,15,LDIAM,Longest Diameter,TUMOR ASSESSMENT,,TARGET LESION 3,40.6,mm,40.6,40.6,mm,,,2.0,C1D1,TREATMENT,2024-02-13,1
VISION-NSCLC,FA,VISION-NSCLC-SITE001-0007,16,SAXIS,Short Axis,TUMOR ASSESSMENT,,TARGET LESION 3,10.2,mm,10.2,10.2,mm,,,2.0,C1D1,TREATMENT,2024-02-13,1
VISION-NSCLC,FA,VISION-NSCLC-SITE001-0007,17,LDIAM,Longest Diameter,TUMOR ASSESSMENT,,TARGET LESION 4,46.2,mm,46.2,46.2,mm,,,2.0,C1D1,TREATMENT,2024-02-13,1
VISION-NSCLC,FA,VISION-NSCLC-SITE001-0007,18,SAXIS,Short Axis,TUMOR ASSESSMENT,,TARGET LESION 4,9.6,mm,9.6,9.6,mm,,,2.0,C1D1,TREATMENT,2024-02-13,1
VISION-NSCLC,FA,VISION-NSCLC-SITE001-0007,19,LDIAM,Longest Diameter,TUMOR ASSESSMENT,,TARGET LESION 5,22.8,mm,22.8,22.8,mm,,,2.0,C1D1,TREATMENT,2024-02-13,1
VISION-NSCLC,FA,VISION-NSCLC-SITE001-0007,20,SAXIS,Short Axis,TUMOR ASSESSMENT,,TARGET LESION 5,12.6,mm,12.6,12.6,mm,,,2.0,C1D1,TREATMENT,2024-02-13,1
VISION-NSCLC,FA,VISION-NSCLC-SITE001-0007,21,LDIAM,Longest Diameter,TUMOR ASSESSMENT,,TARGET LESION 1,48.7,mm,48.7,48.7,mm,,,3.0,C1D15,TREATMENT,2024-02-27,15
VISION-NSCLC,FA,VISION-NSCLC-SITE001-0007,22,SAXIS,Short Axis,TUMOR ASSESSMENT,,TARGET LESION 1,7.5,mm,7.5,7.5,mm,,,3.0,C1D15,TREATMENT,2024-02-27,15
VISION-NSCLC,FA,VISION-NSCLC-SITE001-0007,23,LDIAM,Longest Diameter,TUMOR ASSESSMENT,,TARGET LESION 2,46.7,mm,46.7,46.7,mm,,,3.0,C1D15,TREATMENT,2024-02-27,15
VISION-NSCLC,FA,VISION-NSCLC-SITE001-0007,24,SAXIS,Short Axis,TUMOR ASSESSMENT,,TARGET LESION 2,3,mm,3,3.0,mm,,,3.0,C1D15,TREATMENT,2024-02-27,15
VISION-NSCLC,FA,VISION-NSCLC-SITE001-0007,25,LDIAM,Longest Diameter,TUMOR ASSESSMENT,,TARGET LESION 3,38.9,mm,38.9,38.9,mm,,,3.0,C1D15,TREATMENT,2024-02-27,15
VISION-NSCLC,FA,VISION-NSCLC-SITE001-0007,26,SAXIS,Short Axis,TUMOR ASSESSMENT,,TARGET LESION 3,10.8,mm,10.8,10.8,mm,,,3.0,C1D15,TREATMENT,2024-02-27,15
VISION-NSCLC,FA,VISION-NSCLC-SITE001-0007,27,LDIAM,Longest Diameter,TUMOR ASSESSMENT,,TARGET LESION 4,41.7,mm,41.7,41.7,mm,,,3.0,C1D15,TREATMENT,2024-02-27,15
VISION-NSCLC,FA,VISION-NSCLC-SITE001-0007,28,SAXIS,Short Axis,TUMOR ASSESSMENT,,TARGET LESION 4,9.7,mm,9.7,9.7,mm,,,3.0,C1D15,TREATMENT,2024-02-27,15
VISION-NSCLC,FA,VISION-NSCLC-SITE001-0007,29,LDIAM,Longest Diameter,TUMOR ASSESSMENT,,TARGET LESION 5,23.3,mm,23.3,23.3,mm,,,3.0,C1D15,TREATMENT,2024-02-27,15
VISION-NSCLC,FA,VISION-NSCLC-SITE001-0007,30,SAXIS,Short Axis,TUMOR ASSESSMENT,,TARGET LESION 5,13.3,mm,13.3,13.3,mm,,,3.0,C1D15,TREATMENT,2024-02-27,15
VISION-NSCLC,FA,VISION-NSCLC-SITE001-0007,31,LDIAM,Longest Diameter,TUMOR ASSESSMENT,,TARGET LESION 1,50.1,mm,50.1,50.1,mm,,,4.0,C2D1,TREATMENT,2024-03-12,29
VISION-NSCLC,FA,VISION-NSCLC-SITE001-0007,32,SAXIS,Short Axis,TUMOR ASSESSMENT,,TARGET LESION 1,8.6,mm,8.6,8.6,mm,,,4.0,C2D1,TREATMENT,2024-03-12,29
VISION-NSCLC,FA,VISION-NSCLC-SITE001-0007,33,LDIAM,Longest Diameter,TUMOR ASSESSMENT,,TARGET LESION 2,47.2,mm,47.2,47.2,mm,,,4.0,C2D1,TREATMENT,2024-03-12,29
VISION-NSCLC,FA,VISION-NSCLC-SITE001-0007,34,SAXIS,Short Axis,TUMOR ASSESSMENT,,TARGET LESION 2,3,mm,3,3.0,mm,,,4.0,C2D1,TREATMENT,2024-03-12,29
VISION-NSCLC,FA,VISION-NSCLC-SITE001-0007,35,LDIAM,Longest Diameter,TUMOR ASSESSMENT,,TARGET LESION 3,40.2,mm,40.2,40.2,mm,,,4.0,C2D1,TREATMENT,2024-03-12,29
VISION-NSCLC,FA,VISION-NSCLC-SITE001-0007,36,SAXIS,Short Axis,TUMOR ASSESSMENT,,TARGET LESION 3,9.8,mm,9.8,9.8,mm,,,4.0,C2D1,TREATMENT,2024-03-12,29
VISION-NSCLC,FA,VISION-NSCLC-SITE001-0007,37,LDIAM,Longest Diameter,TUMOR ASSESSMENT,,TARGET LESION 4,41.9,mm,41.9,41.9,mm,,,4.0,C2D1,TREATMENT,2024-03-12,29
VISION-NSCLC,FA,VISION-NSCLC-SITE001-0007,38,SAXIS,Short Axis,TUMOR ASSESSMENT,,TARGET LESION 4,9.7,mm,9.7,9.7,mm,,,4.0,C2D1,TREATMENT,2024-03-12,29
VISION-NSCLC,FA,VISION-NSCLC-SITE001-0007,39,LDIAM,Longest Diameter,TUMOR ASSESSMENT,,TARGET LESION 5,22.7,mm,22.7,22.7,mm,,,4.0,C2D1,TREATMENT,2024-03-12,29
VISION-NSCLC,FA,VISION-NSCLC-SITE001-0007,40,SAXIS,Short Axis,TUMOR ASSESSMENT,,TARGET LESION 5,13.0,mm,13.0,13.0,mm,,,4.0,C2D1,TREATMENT,2024-03-12,29
VISION-NSCLC,FA,VISION-NSCLC-SITE001-0007,41,LDIAM,Longest Diameter,TUMOR ASSESSMENT,,TARGET LESION 1,45.9,mm,45.9,45.9,mm,,,5.0,C3D1,TREATMENT,2024-04-09,57
VISION-NSCLC,FA,VISION-NSCLC-SITE001-0007,42,SAXIS,Short Axis,TUMOR ASSESSMENT,,TARGET LESION 1,9.3,mm,9.3,9.3,mm,,,5.0,C3D1,TREATMENT,2024-04-09,57
VISION-NSCLC,FA,VISION-NSCLC-SITE001-0007,43,LDIAM,Longest Diameter,TUMOR ASSESSMENT,,TARGET LESION 2,47.2,mm,47.2,47.2,mm,,,5.0,C3D1,TREATMENT,2024-04-09,57
VISION-NSCLC,FA,VISION-NSCLC-SITE001-0007,44,SAXIS,Short Axis,TUMOR ASSESSMENT,,TARGET LESION 2,3,mm,3,3.0,mm,,,5.0,C3D1,TREATMENT,2024-04-09,57
VISION-NSCLC,FA,VISION-NSCLC-SITE001-0007,45,LDIAM,Longest Diameter,TUMOR ASSESSMENT,,TARGET LESION 3,40.0,mm,40.0,40.0,mm,,,5.0,C3D1,TREATMENT,2024-04-09,57
VISION-NSCLC,FA,VISION-NSCLC-SITE001-0007,46,SAXIS,Short Axis,TUMOR ASSESSMENT,,TARGET LESION 3,10.5,mm,10.5,10.5,mm,,,5.0,C3D1,TREATMENT,2024-04-09,57
VISION-NSCLC,FA,VISION-NSCLC-SITE001-0007,47,LDIAM,Longest Diameter,TUMOR ASSESSMENT,,TARGET LESION 4,39.6,mm,39.6,39.6,mm,,,5.0,C3D1,TREATMENT,2024-04-09,57
VISION-NSCLC,FA,VISION-NSCLC-SITE001-0007,48,SAXIS,Short Axis,TUMOR ASSESSMENT,,TARGET LESION 4,9.8,mm,9.8,9.8,mm,,,5.0,C3D1,TREATMENT,2024-04-09,57
VISION-NSCLC,FA,VISION-NSCLC-SITE001-0007,49,LDIAM,Longest Diameter,TUMOR ASSESSMENT,,TARGET LESION 5,23.9,mm,23.9,23.9,mm,,,5.0,C3D1,TREATMENT,2024-04-09,57
VISION-NSCLC,FA,VISION-NSCLC-SITE001-0007,50,SAXIS,Short Axis,TUMOR ASSESSMENT,,TARGET LESION 5,13.4,mm,13.4,13.4,mm,,,5.0,C3D1,TREATMENT,2024-04-09,57
VISION-NSCLC,FA,VISION-NSCLC-SITE001-0007,51,LDIAM,Longest Diameter,TUMOR ASSESSMENT,,TARGET LESION 1,46.8,mm,46.8,46.8,mm,,,6.0,C4D1,TREATMENT,2024-05-07,85
VISION-NSCLC,FA,VISION-NSCLC-SITE001-0007,52,SAXIS,Short Axis,TUMOR ASSESSMENT,,TARGET LESION 1,8.5,mm,8.5,8.5,mm,,,6.0,C4D1,TREATMENT,2024-05-07,85
VISION-NSCLC,FA,VISION-NSCLC-SITE001-0007,53,LDIAM,Longest Diameter,TUMOR ASSESSMENT,,TARGET LESION 2,45.6,mm,45.6,45.6,mm,,,6.0,C4D1,TREATMENT,2024-05-07,85
VISION-NSCLC,FA,VISION-NSCLC-SITE001-0007,54,SAXIS,Short Axis,TUMOR ASSESSMENT,,TARGET LESION 2,3.3,mm,3.3,3.3,mm,,,6.0,C4D1,TREATMENT,2024-05-07,85
VISION-NSCLC,FA,VISION-NSCLC-SITE001-0007,55,LDIAM,Longest Diameter,TUMOR ASSESSMENT,,TARGET LESION 3,40.8,mm,40.8,40.8,mm,,,6.0,C4D1,TREATMENT,2024-05-07,85
VISION-NSCLC,FA,VISION-NSCLC-SITE001-0007,56,SAXIS,Short Axis,TUMOR ASSESSMENT,,TARGET LESION 3,10.8,mm,10.8,10.8,mm,,,6.0,C4D1,TREATMENT,2024-05-07,85
VISION-NSCLC,FA,VISION-NSCLC-SITE001-0007,57,LDIAM,Longest Diameter,TUMOR ASSESSMENT,,TARGET LESION 4,40.3,mm,40.3,40.3,mm,,,6.0,C4D1,TREATMENT,2024-05-07,85
VISION-NSCLC,FA,VISION-NSCLC-SITE001-0007,58,SAXIS,Short Axis,TUMOR ASSESSMENT,,TARGET LESION 4,8.7,mm,8.7,8.7,mm,,,6.0,C4D1,TREATMENT,2024-05-07,85
VISION-NSCLC,FA,VISION-NSCLC-SITE001-0007,59,LDIAM,Longest Diameter,TUMOR ASSESSMENT,,TARGET LESION 5,23.7,mm,23.7,23.7,mm,,,6.0,C4D1,TREATMENT,2024-05-07,85
VISION-NSCLC,FA,VISION-NSCLC-SITE001-0007,60,SAXIS,Short Axis,TUMOR ASSESSMENT,,TARGET LESION 5,11.7,mm,11.7,11.7,mm,,,6.0,C4D1,TREATMENT,2024-05-07,85
VISION-NSCLC,FA,VISION-NSCLC-SITE001-0007,61,LDIAM,Longest Diameter,TUMOR ASSESSMENT,,TARGET LESION 1,47.2,mm,47.2,47.2,mm,,,7.0,C6D1,TREATMENT,2024-07-02,141
VISION-NSCLC,FA,VISION-NSCLC-SITE001-0007,62,SAXIS,Short Axis,TUMOR ASSESSMENT,,TARGET LESION 1,7.8,mm,7.8,7.8,mm,,,7.0,C6D1,TREATMENT,2024-07-02,141
VISION-NSCLC,FA,VISION-NSCLC-SITE001-0007,63,LDIAM,Longest Diameter,TUMOR ASSESSMENT,,TARGET LESION 2,45.6,mm,45.6,45.6,mm,,,7.0,C6D1,TREATMENT,2024-07-02,141
VISION-NSCLC,FA,VISION-NSCLC-SITE001-0007,64,SAXIS,Short Axis,TUMOR ASSESSMENT,,TARGET LESION 2,3,mm,3,3.0,mm,,,7.0,C6D1,TREATMENT,2024-07-02,141
VISION-NSCLC,FA,VISION-NSCLC-SITE001-0007,65,LDIAM,Longest Diameter,TUMOR ASSESSMENT,,TARGET LESION 3,39.1,mm,39.1,39.1,mm,,,7.0,C6D1,TREATMENT,2024-07-02,141
VISION-NSCLC,FA,VISION-NSCLC-SITE001-0007,66,SAXIS,Short Axis,TUMOR ASSESSMENT,,TARGET LESION 3,10.0,mm,10.0,10.0,mm,,,7.0,C6D1,TREATMENT,2024-07-02,141
VISION-NSCLC,FA,VISION-NSCLC-SITE001-0007,67,LDIAM,Longest Diameter,TUMOR ASSESSMENT,,TARGET LESION 4,40.5,mm,40.5,40.5,mm,,,7.0,C6D1,TREATMENT,2024-07-02,141
VISION-NSCLC,FA,VISION-NSCLC-SITE001-0007,68,SAXIS,Short Axis,TUMOR ASSESSMENT,,TARGET LESION 4,9.7,mm,9.7,9.7,mm,,,7.0,C6D1,TREATMENT,2024-07-02,141
VISION-NSCLC,FA,VISION-NSCLC-SITE001-0007,69,LDIAM,Longest Diameter,TUMOR ASSESSMENT,,TARGET LESION 5,23.7,mm,23.7,23.7,mm,,,7.0,C6D1,TREATMENT,2024-07-02,141
VISION-NSCLC,FA,VISION-NSCLC-SITE001-0007,70,SAXIS,Short Axis,TUMOR ASSESSMENT,,TARGET LESION 5,12.7,mm,12.7,12.7,mm,,,7.0,C6D1,TREATMENT,2024-07-02,141
VISION-NSCLC,FA,VISION-NSCLC-SITE001-0007,71,LDIAM,Longest Diameter,TUMOR ASSESSMENT,,TARGET LESION 1,44.9,mm,44.9,44.9,mm,,,8.0,EOT,FOLLOW-UP,2024-07-30,169
VISION-NSCLC,FA,VISION-NSCLC-SITE001-0007,72,SAXIS,Short Axis,TUMOR ASSESSMENT,,TARGET LESION 1,8.4,mm,8.4,8.4,mm,,,8.0,EOT,FOLLOW-UP,2024-07-30,169
VISION-NSCLC,FA,VISION-NSCLC-SITE001-0007,73,LDIAM,Longest Diameter,TUMOR ASSESSMENT,,TARGET LESION 2,47.1,mm,47.1,47.1,mm,,,8.0,EOT,FOLLOW-UP,2024-07-30,169
VISION-NSCLC,FA,VISION-NSCLC-SITE001-0007,74,SAXIS,Short Axis,TUMOR ASSESSMENT,,TARGET LESION 2,3.3,mm,3.3,3.3,mm,,,8.0,EOT,FOLLOW-UP,2024-07-30,169
VISION-NSCLC,FA,VISION-NSCLC-SITE001-0007,75,LDIAM,Longest Diameter,TUMOR ASSESSMENT,,TARGET LESION 3,39.1,mm,39.1,39.1,mm,,,8.0,EOT,FOLLOW-UP,2024-07-30,169
VISION-NSCLC,FA,VISION-NSCLC-SITE001-0007,76,SAXIS,Short Axis,TUMOR ASSESSMENT,,TARGET LESION 3,10.6,mm,10.6,10.6,mm,,,8.0,EOT,FOLLOW-UP,2024-07-30,169
VISION-NSCLC,FA,VISION-NSCLC-SITE001-0007,77,LDIAM,Longest Diameter,TUMOR ASSESSMENT,,TARGET LESION 4,42.1,mm,42.1,42.1,mm,,,8.0,EOT,FOLLOW-UP,2024-07-30,169
VISION-NSCLC,FA,VISION-NSCLC-SITE001-0007,78,SAXIS,Short Axis,TUMOR ASSESSMENT,,TARGET LESION 4,10.0,mm,10.0,10.0,mm,,,8.0,EOT,FOLLOW-UP,2024-07-30,169
VISION-NSCLC,FA,VISION-NSCLC-SITE001-0007,79,LDIAM,Longest Diameter,TUMOR ASSESSMENT,,TARGET LESION 5,25.6,mm,25.6,25.6,mm,,,8.0,EOT,FOLLOW-UP,2024-07-30,169
VISION-NSCLC,FA,VISION-NSCLC-SITE001-0007,80,SAXIS,Short Axis,TUMOR ASSESSMENT,,TARGET LESION 5,12.4,mm,12.4,12.4,mm,,,8.0,EOT,FOLLOW-UP,2024-07-30,169
VISION-NSCLC,FA,VISION-NSCLC-SITE001-0010,1,LDIAM,Longest Diameter,TUMOR ASSESSMENT,,TARGET LESION 1,29.2,mm,29.2,29.2,mm,,Y,1.0,SCREENING,SCREENING,2024-01-28,-8
VISION-NSCLC,FA,VISION-NSCLC-SITE001-0010,2,SAXIS,Short Axis,TUMOR ASSESSMENT,,TARGET LESION 1,13.4,mm,13.4,13.4,mm,,Y,1.0,SCREENING,SCREENING,2024-01-28,-8
VISION-NSCLC,FA,VISION-NSCLC-SITE001-0010,3,LDIAM,Longest Diameter,TUMOR ASSESSMENT,,TARGET LESION 2,37.8,mm,37.8,37.8,mm,,Y,1.0,SCREENING,SCREENING,2024-01-28,-8
VISION-NSCLC,FA,VISION-NSCLC-SITE001-0010,4,SAXIS,Short Axis,TUMOR ASSESSMENT,,TARGET LESION 2,22.8,mm,22.8,22.8,mm,,Y,1.0,SCREENING,SCREENING,2024-01-28,-8
VISION-NSCLC,FA,VISION-NSCLC-SITE001-0010,5,LDIAM,Longest Diameter,TUMOR ASSESSMENT,,TARGET LESION 3,29.4,mm,29.4,29.4,mm,,Y,1.0,SCREENING,SCREENING,2024-01-28,-8
VISION-NSCLC,FA,VISION-NSCLC-SITE001-0010,6,SAXIS,Short Axis,TUMOR ASSESSMENT,,TARGET LESION 3,7.9,mm,7.9,7.9,mm,,Y,1.0,SCREENING,SCREENING,2024-01-28,-8
VISION-NSCLC,FA,VISION-NSCLC-SITE001-0010,7,LDIAM,Longest Diameter,TUMOR ASSESSMENT,,TARGET LESION 1,29.1,mm,29.1,29.1,mm,,,2.0,C1D1,TREATMENT,2024-02-05,1
VISION-NSCLC,FA,VISION-NSCLC-SITE001-0010,8,SAXIS,Short Axis,TUMOR ASSESSMENT,,TARGET LESION 1,12.6,mm,12.6,12.6,mm,,,2.0,C1D1,TREATMENT,2024-02-05,1
VISION-NSCLC,FA,VISION-NSCLC-SITE001-0010,9,LDIAM,Longest Diameter,TUMOR ASSESSMENT,,TARGET LESION 2,37.8,mm,37.8,37.8,mm,,,2.0,C1D1,TREATMENT,2024-02-05,1
VISION-NSCLC,FA,VISION-NSCLC-SITE001-0010,10,SAXIS,Short Axis,TUMOR ASSESSMENT,,TARGET LESION 2,23.2,mm,23.2,23.2,mm,,,2.0,C1D1,TREATMENT,2024-02-05,1
VISION-NSCLC,FA,VISION-NSCLC-SITE001-0010,11,LDIAM,Longest Diameter,TUMOR ASSESSMENT,,TARGET LESION 3,28.7,mm,28.7,28.7,mm,,,2.0,C1D1,TREATMENT,2024-02-05,1
VISION-NSCLC,FA,VISION-NSCLC-SITE001-0010,12,SAXIS,Short Axis,TUMOR ASSESSMENT,,TARGET LESION 3,7.7,mm,7.7,7.7,mm,,,2.0,C1D1,TREATMENT,2024-02-05,1
VISION-NSCLC,FA,VISION-NSCLC-SITE001-0010,13,LDIAM,Longest Diameter,TUMOR ASSESSMENT,,TARGET LESION 1,30.3,mm,30.3,30.3,mm,,,3.0,C1D15,TREATMENT,2024-02-19,15
VISION-NSCLC,FA,VISION-NSCLC-SITE001-0010,14,SAXIS,Short Axis,TUMOR ASSESSMENT,,TARGET LESION 1,12.8,mm,12.8,12.8,mm,,,3.0,C1D15,TREATMENT,2024-02-19,15
VISION-NSCLC,FA,VISION-NSCLC-SITE001-0010,15,LDIAM,Longest Diameter,TUMOR ASSESSMENT,,TARGET LESION 2,37.5,mm,37.5,37.5,mm,,,3.0,C1D15,TREATMENT,2024-02-19,15
VISION-NSCLC,FA,VISION-NSCLC-SITE001-0010,16,SAXIS,Short Axis,TUMOR ASSESSMENT,,TARGET LESION 2,22.6,mm,22.6,22.6,mm,,,3.0,C1D15,TREATMENT,2024-02-19,15
VISION-NSCLC,FA,VISION-NSCLC-SITE001-0010,17,LDIAM,Longest Diameter,TUMOR ASSESSMENT,,TARGET LESION 3,27.5,mm,27.5,27.5,mm,,,3.0,C1D15,TREATMENT,2024-02-19,15
VISION-NSCLC,FA,VISION-NSCLC-SITE001-0010,18,SAXIS,Short Axis,TUMOR ASSESSMENT,,TARGET LESION 3,7.7,mm,7.7,7.7,mm,,,3.0,C1D15,TREATMENT,2024-02-19,15
VISION-NSCLC,FA,VISION-NSCLC-SITE001-0010,19,LDIAM,Longest Diameter,TUMOR ASSESSMENT,,TARGET LESION 1,28.4,mm,28.4,28.4,mm,,,4.0,C2D1,TREATMENT,2024-03-04,29
VISION-NSCLC,FA,VISION-NSCLC-SITE001-0010,20,SAXIS,Short Axis,TUMOR ASSESSMENT,,TARGET LESION 1,12.5,mm,12.5,12.5,mm,,,4.0,C2D1,TREATMENT,2024-03-04,29
VISION-NSCLC,FA,VISION-NSCLC-SITE001-0010,21,LDIAM,Longest Diameter,TUMOR ASSESSMENT,,TARGET LESION 2,36.2,mm,36.2,36.2,mm,,,4.0,C2D1,TREATMENT,2024-03-04,29
VISION-NSCLC,FA,VISION-NSCLC-SITE001-0010,22,SAXIS,Short Axis,TUMOR ASSESSMENT,,TARGET LESION 2,21.5,mm,21.5,21.5,mm,,,4.0,C2D1,TREATMENT,2024-03-04,29
VISION-NSCLC,FA,VISION-NSCLC-SITE001-0010,23,LDIAM,Longest Diameter,TUMOR ASSESSMENT,,TARGET LESION 3,28.9,mm,28.9,28.9,mm,,,4.0,C2D1,TREATMENT,2024-03-04,29
VISION-NSCLC,FA,VISION-NSCLC-SITE001-0010,24,SAXIS,Short Axis,TUMOR ASSESSMENT,,TARGET LESION 3,7.8,mm,7.8,7.8,mm,,,4.0,C2D1,TREATMENT,2024-03-04,29
VISION-NSCLC,FA,VISION-NSCLC-SITE001-0010,25,LDIAM,Longest Diameter,TUMOR ASSESSMENT,,TARGET LESION 1,27.7,mm,27.7,27.7,mm,,,5.0,C3D1,TREATMENT,2024-04-01,57
VISION-NSCLC,FA,VISION-NSCLC-SITE001-0010,26,SAXIS,Short Axis,TUMOR ASSESSMENT,,TARGET LESION 1,13.2,mm,13.2,13.2,mm,,,5.0,C3D1,TREATMENT,2024-04-01,57
VISION-NSCLC,FA,VISION-NSCLC-SITE001-0010,27,LDIAM,Longest Diameter,TUMOR ASSESSMENT,,TARGET LESION 2,39.7,mm,39.7,39.7,mm,,,5.0,C3D1,TREATMENT,2024-04-01,57
VISION-NSCLC,FA,VISION-NSCLC-SITE001-0010,28,SAXIS,Short Axis,TUMOR ASSESSMENT,,TARGET LESION 2,23.1,mm,23.1,23.1,mm,,,5.0,C3D1,TREATMENT,2024-04-01,57
VISION-NSCLC,FA,VISION-NSCLC-SITE001-0010,29,LDIAM,Longest Diameter,TUMOR ASSESSMENT,,TARGET LESION 3,28.5,mm,28.5,28.5,mm,,,5.0,C3D1,TREATMENT,2024-04-01,57
VISION-NSCLC,FA,VISION-NSCLC-SITE001-0010,30,SAXIS,Short Axis,TUMOR ASSESSMENT,,TARGET LESION 3,7.7,mm,7.7,7.7,mm,,,5.0,C3D1,TREATMENT,2024-04-01,57
VISION-NSCLC,FA,VISION-NSCLC-SITE001-0010,31,LDIAM,Longest Diameter,TUMOR ASSESSMENT,,TARGET LESION 1,29.0,mm,29.0,29.0,mm,,,6.0,C4D1,TREATMENT,2024-04-29,85
VISION-NSCLC,FA,VISION-NSCLC-SITE001-0010,32,SAXIS,Short Axis,TUMOR ASSESSMENT,,TARGET LESION 1,13.1,mm,13.1,13.1,mm,,,6.0,C4D1,TREATMENT,2024-04-29,85
VISION-NSCLC,FA,VISION-NSCLC-SITE001-0010,33,LDIAM,Longest Diameter,TUMOR ASSESSMENT,,TARGET LESION 2,38.6,mm,38.6,38.6,mm,,,6.0,C4D1,TREATMENT,2024-04-29,85
VISION-NSCLC,FA,VISION-NSCLC-SITE001-0010,34,SAXIS,Short Axis,TUMOR ASSESSMENT,,TARGET LESION 2,22.9,mm,22.9,22.9,mm,,,6.0,C4D1,TREATMENT,2024-04-29,85
VISION-NSCLC,FA,VISION-NSCLC-SITE001-0010,35,LDIAM,Longest Diameter,TUMOR ASSESSMENT,,TARGET LESION 3,26.8,mm,26.8,26.8,mm,,,6.0,C4D1,TREATMENT,2024-04-29,85
VISION-NSCLC,FA,VISION-NSCLC-SITE001-0010,36,SAXIS,Short Axis,TUMOR ASSESSMENT,,TARGET LESION 3,7.6,mm,7.6,7.6,mm,,,6.0,C4D1,TREATMENT,2024-04-29,85
VISION-NSCLC,FA,VISION-NSCLC-SITE001-0010,37,LDIAM,Longest Diameter,TUMOR ASSESSMENT,,TARGET LESION 1,29.6,mm,29.6,29.6,mm,,,7.0,C6D1,TREATMENT,2024-06-24,141
VISION-NSCLC,FA,VISION-NSCLC-SITE001-0010,38,SAXIS,Short Axis,TUMOR ASSESSMENT,,TARGET LESION 1,13.4,mm,13.4,13.4,mm,,,7.0,C6D1,TREATMENT,2024-06-24,141
VISION-NSCLC,FA,VISION-NSCLC-SITE001-0010,39,LDIAM,Longest Diameter,TUMOR ASSESSMENT,,TARGET LESION 2,34.2,mm,34.2,34.2,mm,,,7.0,C6D1,TREATMENT,2024-06-24,141
VISION-NSCLC,FA,VISION-NSCLC-SITE001-0010,40,SAXIS,Short Axis,TUMOR ASSESSMENT,,TARGET LESION 2,22.6,mm,22.6,22.6,mm,,,7.0,C6D1,TREATMENT,2024-06-24,141
VISION-NSCLC,FA,VISION-NSCLC-SITE001-0010,41,LDIAM,Longest Diameter,TUMOR ASSESSMENT,,TARGET LESION 3,30.2,mm,30.2,30.2,mm,,,7.0,C6D1,TREATMENT,2024-06-24,141
VISION-NSCLC,FA,VISION-NSCLC-SITE001-0010,42,SAXIS,Short Axis,TUMOR ASSESSMENT,,TARGET LESION 3,7.5,mm,7.5,7.5,mm,,,7.0,C6D1,TREATMENT,2024-06-24,141
VISION-NSCLC,FA,VISION-NSCLC-SITE001-0010,43,LDIAM,Longest Diameter,TUMOR ASSESSMENT,,TARGET LESION 1,27.4,mm,27.4,27.4,mm,,,8.0,EOT,FOLLOW-UP,2024-07-22,169
VISION-NSCLC,FA,VISION-NSCLC-SITE001-0010,44,SAXIS,Short Axis,TUMOR ASSESSMENT,,TARGET LESION 1,12.4,mm,12.4,12.4,mm,,,8.0,EOT,FOLLOW-UP,2024-07-22,169
VISION-NSCLC,FA,VISION-NSCLC-SITE001-0010,45,LDIAM,Longest Diameter,TUMOR ASSESSMENT,,TARGET LESION 2,33.8,mm,33.8,33.8,mm,,,8.0,EOT,FOLLOW-UP,2024-07-22,169
VISION-NSCLC,FA,VISION-NSCLC-SITE001-0010,46,SAXIS,Short Axis,TUMOR ASSESSMENT,,TARGET LESION 2,22.5,mm,22.5,22.5,mm,,,8.0,EOT,FOLLOW-UP,2024-07-22,169
VISION-NSCLC,FA,VISION-NSCLC-SITE001-0010,47,LDIAM,Longest Diameter,TUMOR ASSESSMENT,,TARGET LESION 3,26.9,mm,26.9,26.9,mm,,,8.0,EOT,FOLLOW-UP,2024-07-22,169
VISION-NSCLC,FA,VISION-NSCLC-SITE001-0010,48,SAXIS,Short Axis,TUMOR ASSESSMENT,,TARGET LESION 3,8.0,mm,8.0,8.0,mm,,,8.0,EOT,FOLLOW-UP,2024-07-22,169
VISION-NSCLC,FA,VISION-NSCLC-SITE001-0016,1,LDIAM,Longest Diameter,TUMOR ASSESSMENT,,TARGET LESION 1,53.7,mm,53.7,53.7,mm,,Y,1.0,SCREENING,SCREENING,2024-03-31,-11
VISION-NSCLC,FA,VISION-NSCLC-SITE001-0016,2,SAXIS,Short Axis,TUMOR ASSESSMENT,,TARGET LESION 1,11.2,mm,11.2,11.2,mm,,Y,1.0,SCREENING,SCREENING,2024-03-31,-11
VISION-NSCLC,FA,VISION-NSCLC-SITE001-0016,3,LDIAM,Longest Diameter,TUMOR ASSESSMENT,,TARGET LESION 2,40.8,mm,40.8,40.8,mm,,Y,1.0,SCREENING,SCREENING,2024-03-31,-11
VISION-NSCLC,FA,VISION-NSCLC-SITE001-0016,4,SAXIS,Short Axis,TUMOR ASSESSMENT,,TARGET LESION 2,16.9,mm,16.9,16.9,mm,,Y,1.0,SCREENING,SCREENING,2024-03-31,-11
VISION-NSCLC,FA,VISION-NSCLC-SITE001-0016,5,LDIAM,Longest Diameter,TUMOR ASSESSMENT,,TARGET LESION 3,40.6,mm,40.6,40.6,mm,,Y,1.0,SCREENING,SCREENING,2024-03-31,-11
VISION-NSCLC,FA,VISION-NSCLC-SITE001-0016,6,SAXIS,Short Axis,TUMOR ASSESSMENT,,TARGET LESION 3,14.6,mm,14.6,14.6,mm,,Y,1.0,SCREENING,SCREENING,2024-03-31,-11
VISION-NSCLC,FA,VISION-NSCLC-SITE001-0016,7,LDIAM,Longest Diameter,TUMOR ASSESSMENT,,TARGET LESION 4,41.4,mm,41.4,41.4,mm,,Y,1.0,SCREENING,SCREENING,2024-03-31,-11
VISION-NSCLC,FA,VISION-NSCLC-SITE001-0016,8,SAXIS,Short Axis,TUMOR ASSESSMENT,,TARGET LESION 4,10.8,mm,10.8,10.8,mm,,Y,1.0,SCREENING,SCREENING,2024-03-31,-11
VISION-NSCLC,FA,VISION-NSCLC-SITE001-0016,9,LDIAM,Longest Diameter,TUMOR ASSESSMENT,,TARGET LESION 5,26.8,mm,26.8,26.8,mm,,Y,1.0,SCREENING,SCREENING,2024-03-31,-11
VISION-NSCLC,FA,VISION-NSCLC-SITE001-0016,10,SAXIS,Short Axis,TUMOR ASSESSMENT,,TARGET LESION 5,10.8,mm,10.8,10.8,mm,,Y,1.0,SCREENING,SCREENING,2024-03-31,-11
VISION-NSCLC,FA,VISION-NSCLC-SITE001-0016,11,LDIAM,Longest Diameter,TUMOR ASSESSMENT,,TARGET LESION 1,52.7,mm,52.7,52.7,mm,,,2.0,C1D1,TREATMENT,2024-04-11,1
VISION-NSCLC,FA,VISION-NSCLC-SITE001-0016,12,SAXIS,Short Axis,TUMOR ASSESSMENT,,TARGET LESION 1,11.3,mm,11.3,11.3,mm,,,2.0,C1D1,TREATMENT,2024-04-11,1
VISION-NSCLC,FA,VISION-NSCLC-SITE001-0016,13,LDIAM,Longest Diameter,TUMOR ASSESSMENT,,TARGET LESION 2,40.7,mm,40.7,40.7,mm,,,2.0,C1D1,TREATMENT,2024-04-11,1
VISION-NSCLC,FA,VISION-NSCLC-SITE001-0016,14,SAXIS,Short Axis,TUMOR ASSESSMENT,,TARGET LESION 2,16.0,mm,16.0,16.0,mm,,,2.0,C1D1,TREATMENT,2024-04-11,1
VISION-NSCLC,FA,VISION-NSCLC-SITE001-0016,15,LDIAM,Longest Diameter,TUMOR ASSESSMENT,,TARGET LESION 3,41.8,mm,41.8,41.8,mm,,,2.0,C1D1,TREATMENT,2024-04-11,1
VISION-NSCLC,FA,VISION-NSCLC-SITE001-0016,16,SAXIS,Short Axis,TUMOR ASSESSMENT,,TARGET LESION 3,14.3,mm,14.3,14.3,mm,,,2.0,C1D1,TREATMENT,2024-04-11,1
VISION-NSCLC,FA,VISION-NSCLC-SITE001-0016,17,LDIAM,Longest Diameter,TUMOR ASSESSMENT,,TARGET LESION 4,40.5,mm,40.5,40.5,mm,,,2.0,C1D1,TREATMENT,2024-04-11,1
VISION-NSCLC,FA,VISION-NSCLC-SITE001-0016,18,SAXIS,Short Axis,TUMOR ASSESSMENT,,TARGET LESION 4,11.0,mm,11.0,11.0,mm,,,2.0,C1D1,TREATMENT,2024-04-11,1
VISION-NSCLC,FA,VISION-NSCLC-SITE001-0016,19,LDIAM,Longest Diameter,TUMOR ASSESSMENT,,TARGET LESION 5,25.8,mm,25.8,25.8,mm,,,2.0,C1D1,TREATMENT,2024-04-11,1
VISION-NSCLC,FA,VISION-NSCLC-SITE001-0016,20,SAXIS,Short Axis,TUMOR ASSESSMENT,,TARGET LESION 5,10.6,mm,10.6,10.6,mm,,,2.0,C1D1,TREATMENT,2024-04-11,1
VISION-NSCLC,FA,VISION-NSCLC-SITE001-0016,21,LDIAM,Longest Diameter,TUMOR ASSESSMENT,,TARGET LESION 1,52.5,mm,52.5,52.5,mm,,,3.0,C1D15,TREATMENT,2024-04-25,15
VISION-NSCLC,FA,VISION-NSCLC-SITE001-0016,22,SAXIS,Short Axis,TUMOR ASSESSMENT,,TARGET LESION 1,11.7,mm,11.7,11.7,mm,,,3.0,C1D15,TREATMENT,2024-04-25,15
VISION-NSCLC,FA,VISION-NSCLC-SITE001-0016,23,LDIAM,Longest Diameter,TUMOR ASSESSMENT,,TARGET LESION 2,38.4,mm,38.4,38.4,mm,,,3.0,C1D15,TREATMENT,2024-04-25,15
VISION-NSCLC,FA,VISION-NSCLC-SITE001-0016,24,SAXIS,Short Axis,TUMOR ASSESSMENT,,TARGET LESION 2,17.3,mm,17.3,17.3,mm,,,3.0,C1D15,TREATMENT,2024-04-25,15
VISION-NSCLC,FA,VISION-NSCLC-SITE001-0016,25,LDIAM,Longest Diameter,TUMOR ASSESSMENT,,TARGET LESION 3,41.1,mm,41.1,41.1,mm,,,3.0,C1D15,TREATMENT,2024-04-25,15
VISION-NSCLC,FA,VISION-NSCLC-SITE001-0016,26,SAXIS,Short Axis,TUMOR ASSESSMENT,,TARGET LESION 3,13.6,mm,13.6,13.6,mm,,,3.0,C1D15,TREATMENT,2024-04-25,15
VISION-NSCLC,FA,VISION-NSCLC-SITE001-0016,27,LDIAM,Longest Diameter,TUMOR ASSESSMENT,,TARGET LESION 4,40.9,mm,40.9,40.9,mm,,,3.0,C1D15,TREATMENT,2024-04-25,15
VISION-NSCLC,FA,VISION-NSCLC-SITE001-0016,28,SAXIS,Short Axis,TUMOR ASSESSMENT,,TARGET LESION 4,10.5,mm,10.5,10.5,mm,,,3.0,C1D15,TREATMENT,2024-04-25,15
VISION-NSCLC,FA,VISION-NSCLC-SITE001-0016,29,LDIAM,Longest Diameter,TUMOR ASSESSMENT,,TARGET LESION 5,25.9,mm,25.9,25.9,mm,,,3.0,C1D15,TREATMENT,2024-04-25,15
VISION-NSCLC,FA,VISION-NSCLC-SITE001-0016,30,SAXIS,Short Axis,TUMOR ASSESSMENT,,TARGET LESION 5,9.7,mm,9.7,9.7,mm,,,3.0,C1D15,TREATMENT,2024-04-25,15
VISION-NSCLC,FA,VISION-NSCLC-SITE001-0016,31,LDIAM,Longest Diameter,TUMOR ASSESSMENT,,TARGET LESION 1,50.8,mm,50.8,50.8,mm,,,4.0,C2D1,TREATMENT,2024-05-09,29
VISION-NSCLC,FA,VISION-NSCLC-SITE001-0016,32,SAXIS,Short Axis,TUMOR ASSESSMENT,,TARGET LESION 1,10.9,mm,10.9,10.9,mm,,,4.0,C2D1,TREATMENT,2024-05-09,29
VISION-NSCLC,FA,VISION-NSCLC-SITE001-0016,33,LDIAM,Longest Diameter,TUMOR ASSESSMENT,,TARGET LESION 2,40.4,mm,40.4,40.4,mm,,,4.0,C2D1,TREATMENT,2024-05-09,29
VISION-NSCLC,FA,VISION-NSCLC-SITE001-0016,34,SAXIS,Short Axis,TUMOR ASSESSMENT,,TARGET LESION 2,15.6,mm,15.6,15.6,mm,,,4.0,C2D1,TREATMENT,2024-05-09,29
VISION-NSCLC,FA,VISION-NSCLC-SITE001-0016,35,LDIAM,Longest Diameter,TUMOR ASSESSMENT,,TARGET LESION 3,38.2,mm,38.2,38.2,mm,,,4.0,C2D1,TREATMENT,2024-05-09,29
VISION-NSCLC,FA,VISION-NSCLC-SITE001-0016,36,SAXIS,Short Axis,TUMOR ASSESSMENT,,TARGET LESION 3,13.9,mm,13.9,13.9,mm,,,4.0,C2D1,TREATMENT,2024-05-09,29
VISION-NSCLC,FA,VISION-NSCLC-SITE001-0016,37,LDIAM,Longest Diameter,TUMOR ASSESSMENT,,TARGET LESION 4,38.0,mm,38.0,38.0,mm,,,4.0,C2D1,TREATMENT,2024-05-09,29
VISION-NSCLC,FA,VISION-NSCLC-SITE001-0016,38,SAXIS,Short Axis,TUMOR ASSESSMENT,,TARGET LESION 4,9.4,mm,9.4,9.4,mm,,,4.0,C2D1,TREATMENT,2024-05-09,29
VISION-NSCLC,FA,VISION-NSCLC-SITE001-0016,39,LDIAM,Longest Diameter,TUMOR ASSESSMENT,,TARGET LESION 5,24.0,mm,24.0,24.0,mm,,,4.0,C2D1,TREATMENT,2024-05-09,29
VISION-NSCLC,FA,VISION-NSCLC-SITE001-0016,40,SAXIS,Short Axis,TUMOR ASSESSMENT,,TARGET LESION 5,10.6,mm,10.6,10.6,mm,,,4.0,C2D1,TREATMENT,2024-05-09,29
VISION-NSCLC,FA,VISION-NSCLC-SITE001-0019,1,LDIAM,Longest Diameter,TUMOR ASSESSMENT,,TARGET LESION 1,42.1,mm,42.1,42.1,mm,,Y,1.0,SCREENING,SCREENING,2024-02-21,-34
VISION-NSCLC,FA,VISION-NSCLC-SITE001-0019,2,SAXIS,Short Axis,TUMOR ASSESSMENT,,TARGET LESION 1,8.5,mm,8.5,8.5,mm,,Y,1.0,SCREENING,SCREENING,2024-02-21,-34
VISION-NSCLC,FA,VISION-NSCLC-SITE001-0019,3,LDIAM,Longest Diameter,TUMOR ASSESSMENT,,TARGET LESION 2,31.9,mm,31.9,31.9,mm,,Y,1.0,SCREENING,SCREENING,2024-02-21,-34
VISION-NSCLC,FA,VISION-NSCLC-SITE001-0019,4,SAXIS,Short Axis,TUMOR ASSESSMENT,,TARGET LESION 2,12.0,mm,12.0,12.0,mm,,Y,1.0,SCREENING,SCREENING,2024-02-21,-34
VISION-NSCLC,FA,VISION-NSCLC-SITE001-0019,5,LDIAM,Longest Diameter,TUMOR ASSESSMENT,,TARGET LESION 3,48.7,mm,48.7,48.7,mm,,Y,1.0,SCREENING,SCREENING,2024-02-21,-34
VISION-NSCLC,FA,VISION-NSCLC-SITE001-0019,6,SAXIS,Short Axis,TUMOR ASSESSMENT,,TARGET LESION 3,10.2,mm,10.2,10.2,mm,,Y,1.0,SCREENING,SCREENING,2024-02-21,-34
VISION-NSCLC,FA,VISION-NSCLC-SITE001-0019,7,LDIAM,Longest Diameter,TUMOR ASSESSMENT,,TARGET LESION 4,56.3,mm,56.3,56.3,mm,,Y,1.0,SCREENING,SCREENING,2024-02-21,-34
VISION-NSCLC,FA,VISION-NSCLC-SITE001-0019,8,SAXIS,Short Axis,TUMOR ASSESSMENT,,TARGET LESION 4,13.0,mm,13.0,13.0,mm,,Y,1.0,SCREENING,SCREENING,2024-02-21,-34
VISION-NSCLC,FA,VISION-NSCLC-SITE001-0019,9,LDIAM,Longest Diameter,TUMOR ASSESSMENT,,TARGET LESION 5,31.4,mm,31.4,31.4,mm,,Y,1.0,SCREENING,SCREENING,2024-02-21,-34
VISION-NSCLC,FA,VISION-NSCLC-SITE001-0019,10,SAXIS,Short Axis,TUMOR ASSESSMENT,,TARGET LESION 5,17.7,mm,17.7,17.7,mm,,Y,1.0,SCREENING,SCREENING,2024-02-21,-34
VISION-NSCLC,FA,VISION-NSCLC-SITE001-0019,11,LDIAM,Longest Diameter,TUMOR ASSESSMENT,,TARGET LESION 1,42.5,mm,42.5,42.5,mm,,,2.0,C1D1,TREATMENT,2024-03-26,1
VISION-NSCLC,FA,VISION-NSCLC-SITE001-0019,12,SAXIS,Short Axis,TUMOR ASSESSMENT,,TARGET LESION 1,8.3,mm,8.3,8.3,mm,,,2.0,C1D1,TREATMENT,2024-03-26,1
VISION-NSCLC,FA,VISION-NSCLC-SITE001-0019,13,LDIAM,Longest Diameter,TUMOR ASSESSMENT,,TARGET LESION 2,35.0,mm,35.0,35.0,mm,,,2.0,C1D1,TREATMENT,2024-03-26,1
VISION-NSCLC,FA,VISION-NSCLC-SITE001-0019,14,SAXIS,Short Axis,TUMOR ASSESSMENT,,TARGET LESION 2,12.6,mm,12.6,12.6,mm,,,2.0,C1D1,TREATMENT,2024-03-26,1
VISION-NSCLC,FA,VISION-NSCLC-SITE001-0019,15,LDIAM,Longest Diameter,TUMOR ASSESSMENT,,TARGET LESION 3,49.3,mm,49.3,49.3,mm,,,2.0,C1D1,TREATMENT,2024-03-26,1
VISION-NSCLC,FA,VISION-NSCLC-SITE001-0019,16,SAXIS,Short Axis,TUMOR ASSESSMENT,,TARGET LESION 3,10.7,mm,10.7,10.7,mm,,,2.0,C1D1,TREATMENT,2024-03-26,1
VISION-NSCLC,FA,VISION-NSCLC-SITE001-0019,17,LDIAM,Longest Diameter,TUMOR ASSESSMENT,,TARGET LESION 4,56.3,mm,56.3,56.3,mm,,,2.0,C1D1,TREATMENT,2024-03-26,1
VISION-NSCLC,FA,VISION-NSCLC-SITE001-0019,18,SAXIS,Short Axis,TUMOR ASSESSMENT,,TARGET LESION 4,13.4,mm,13.4,13.4,mm,,,2.0,C1D1,TREATMENT,2024-03-26,1
VISION-NSCLC,FA,VISION-NSCLC-SITE001-0019,19,LDIAM,Longest Diameter,TUMOR ASSESSMENT,,TARGET LESION 5,30.9,mm,30.9,30.9,mm,,,2.0,C1D1,TREATMENT,2024-03-26,1
VISION-NSCLC,FA,VISION-NSCLC-SITE001-0019,20,SAXIS,Short Axis,TUMOR ASSESSMENT,,TARGET LESION 5,18.3,mm,18.3,18.3,mm,,,2.0,C1D1,TREATMENT,2024-03-26,1
VISION-NSCLC,FA,VISION-NSCLC-SITE001-0019,21,LDIAM,Longest Diameter,TUMOR ASSESSMENT,,TARGET LESION 1,42.8,mm,42.8,42.8,mm,,,3.0,C1D15,TREATMENT,2024-04-09,15
VISION-NSCLC,FA,VISION-NSCLC-SITE001-0019,22,SAXIS,Short Axis,TUMOR ASSESSMENT,,TARGET LESION 1,7.9,mm,7.9,7.9,mm,,,3.0,C1D15,TREATMENT,2024-04-09,15
VISION-NSCLC,FA,VISION-NSCLC-SITE001-0019,23,LDIAM,Longest Diameter,TUMOR ASSESSMENT,,TARGET LESION 2,31.9,mm,31.9,31.9,mm,,,3.0,C1D15,TREATMENT,2024-04-09,15
VISION-NSCLC,FA,VISION-NSCLC-SITE001-0019,24,SAXIS,Short Axis,TUMOR ASSESSMENT,,TARGET LESION 2,12.8,mm,12.8,12.8,mm,,,3.0,C1D15,TREATMENT,2024-04-09,15
VISION-NSCLC,FA,VISION-NSCLC-SITE001-0019,25,LDIAM,Longest Diameter,TUMOR ASSESSMENT,,TARGET LESION 3,50.1,mm,50.1,50.1,mm,,,3.0,C1D15,TREATMENT,2024-04-09,15
VISION-NSCLC,FA,VISION-NSCLC-SITE001-0019,26,SAXIS,Short Axis,TUMOR ASSESSMENT,,TARGET LESION 3,10.9,mm,10.9,10.9,mm,,,3.0,C1D15,TREATMENT,2024-04-09,15
VISION-NSCLC,FA,VISION-NSCLC-SITE001-0019,27,LDIAM,Longest Diameter,TUMOR ASSESSMENT,,TARGET LESION 4,57.2,mm,57.2,57.2,mm,,,3.0,C1D15,TREATMENT,2024-04-09,15
VISION-NSCLC,FA,VISION-NSCLC-SITE001-0019,28,SAXIS,Short Axis,TUMOR ASSESSMENT,,TARGET LESION 4,13.6,mm,13.6,13.6,mm,,,3.0,C1D15,TREATMENT,2024-04-09,15
VISION-NSCLC,FA,VISION-NSCLC-SITE001-0019,29,LDIAM,Longest Diameter,TUMOR ASSESSMENT,,TARGET LESION 5,34.1,mm,34.1,34.1,mm,,,3.0,C1D15,TREATMENT,2024-04-09,15
VISION-NSCLC,FA,VISION-NSCLC-SITE001-0019,30,SAXIS,Short Axis,TUMOR ASSESSMENT,,TARGET LESION 5,18.6,mm,18.6,18.6,mm,,,3.0,C1D15,TREATMENT,2024-04-09,15
VISION-NSCLC,FA,VISION-NSCLC-SITE001-0019,31,LDIAM,Longest Diameter,TUMOR ASSESSMENT,,TARGET LESION 1,45.0,mm,45.0,45.0,mm,,,4.0,C2D1,TREATMENT,2024-04-23,29
VISION-NSCLC,FA,VISION-NSCLC-SITE001-0019,32,SAXIS,Short Axis,TUMOR ASSESSMENT,,TARGET LESION 1,9.1,mm,9.1,9.1,mm,,,4.0,C2D1,TREATMENT,2024-04-23,29
VISION-NSCLC,FA,VISION-NSCLC-SITE001-0019,33,LDIAM,Longest Diameter,TUMOR ASSESSMENT,,TARGET LESION 2,35.7,mm,35.7,35.7,mm,,,4.0,C2D1,TREATMENT,2024-04-23,29
VISION-NSCLC,FA,VISION-NSCLC-SITE001-0019,34,SAXIS,Short Axis,TUMOR ASSESSMENT,,TARGET LESION 2,12.9,mm,12.9,12.9,mm,,,4.0,C2D1,TREATMENT,2024-04-23,29
VISION-NSCLC,FA,VISION-NSCLC-SITE001-0019,35,LDIAM,Longest Diameter,TUMOR ASSESSMENT,,TARGET LESION 3,49.8,mm,49.8,49.8,mm,,,4.0,C2D1,TREATMENT,2024-04-23,29
VISION-NSCLC,FA,VISION-NSCLC-SITE001-0019,36,SAXIS,Short Axis,TUMOR ASSESSMENT,,TARGET LESION 3,11.2,mm,11.2,11.2,mm,,,4.0,C2D1,TREATMENT,2024-04-23,29
VISION-NSCLC,FA,VISION-NSCLC-SITE001-0019,37,LDIAM,Longest Diameter,TUMOR ASSESSMENT,,TARGET LESION 4,62.0,mm,62.0,62.0,mm,,,4.0,C2D1,TREATMENT,2024-04-23,29
VISION-NSCLC,FA,VISION-NSCLC-SITE001-0019,38,SAXIS,Short Axis,TUMOR ASSESSMENT,,TARGET LESION 4,13.4,mm,13.4,13.4,mm,,,4.0,C2D1,TREATMENT,2024-04-23,29
VISION-NSCLC,FA,VISION-NSCLC-SITE001-0019,39,LDIAM,Longest Diameter,TUMOR ASSESSMENT,,TARGET LESION 5,32.8,mm,32.8,32.8,mm,,,4.0,C2D1,TREATMENT,2024-04-23,29
VISION-NSCLC,FA,VISION-NSCLC-SITE001-0019,40,SAXIS,Short Axis,TUMOR ASSESSMENT,,TARGET LESION 5,19.0,mm,19.0,19.0,mm,,,4.0,C2D1,TREATMENT,2024-04-23,29
VISION-NSCLC,FA,VISION-NSCLC-SITE001-0019,41,LDIAM,Longest Diameter,TUMOR ASSESSMENT,,TARGET LESION 1,48.8,mm,48.8,48.8,mm,,,5.0,C3D1,TREATMENT,2024-05-21,57
VISION-NSCLC,FA,VISION-NSCLC-SITE001-0019,42,SAXIS,Short Axis,TUMOR ASSESSMENT,,TARGET LESION 1,9.7,mm,9.7,9.7,mm,,,5.0,C3D1,TREATMENT,2024-05-21,57
VISION-NSCLC,FA,VISION-NSCLC-SITE001-0019,43,LDIAM,Longest Diameter,TUMOR ASSESSMENT,,TARGET LESION 2,37.2,mm,37.2,37.2,mm,,,5.0,C3D1,TREATMENT,2024-05-21,57
VISION-NSCLC,FA,VISION-NSCLC-SITE001-0019,44,SAXIS,Short Axis,TUMOR ASSESSMENT,,TARGET LESION 2,13.1,mm,13.1,13.1,mm,,,5.0,C3D1,TREATMENT,2024-05-21,57
VISION-NSCLC,FA,VISION-NSCLC-SITE001-0019,45,LDIAM,Longest Diameter,TUMOR ASSESSMENT,,TARGET LESION 3,52.8,mm,52.8,52.8,mm,,,5.0,C3D1,TREATMENT,2024-05-21,57
VISION-NSCLC,FA,VISION-NSCLC-SITE001-0019,46,SAXIS,Short Axis,TUMOR ASSESSMENT,,TARGET LESION 3,10.5,mm,10.5,10.5,mm,,,5.0,C3D1,TREATMENT,2024-05-21,57
VISION-NSCLC,FA,VISION-NSCLC-SITE001-0019,47,LDIAM,Longest Diameter,TUMOR ASSESSMENT,,TARGET LESION 4,62.9,mm,62.9,62.9,mm,,,5.0,C3D1,TREATMENT,2024-05-21,57
VISION-NSCLC,FA,VISION-NSCLC-SITE001-0019,48,SAXIS,Short Axis,TUMOR ASSESSMENT,,TARGET LESION 4,14.9,mm,14.9,14.9,mm,,,5.0,C3D1,TREATMENT,2024-05-21,57
VISION-NSCLC,FA,VISION-NSCLC-SITE001-0019,49,LDIAM,Longest Diameter,TUMOR ASSESSMENT,,TARGET LESION 5,37.3,mm,37.3,37.3,mm,,,5.0,C3D1,TREATMENT,2024-05-21,57
VISION-NSCLC,FA,VISION-NSCLC-SITE001-0019,50,SAXIS,Short Axis,TUMOR ASSESSMENT,,TARGET LESION 5,20.4,mm,20.4,20.4,mm,,,5.0,C3D1,TREATMENT,2024-05-21,57
VISION-NSCLC,FA,VISION-NSCLC-SITE001-0019,51,LDIAM,Longest Diameter,TUMOR ASSESSMENT,,TARGET LESION 1,48.1,mm,48.1,48.1,mm,,,6.0,C4D1,TREATMENT,2024-06-18,85
VISION-NSCLC,FA,VISION-NSCLC-SITE001-0019,52,SAXIS,Short Axis,TUMOR ASSESSMENT,,TARGET LESION 1,9.5,mm,9.5,9.5,mm,,,6.0,C4D1,TREATMENT,2024-06-18,85
VISION-NSCLC,FA,VISION-NSCLC-SITE001-0019,53,LDIAM,Longest Diameter,TUMOR ASSESSMENT,,TARGET LESION 2,37.7,mm,37.7,37.7,mm,,,6.0,C4D1,TREATMENT,2024-06-18,85
VISION-NSCLC,FA,VISION-NSCLC-SITE001-0019,54,SAXIS,Short Axis,TUMOR ASSESSMENT,,TARGET LESION 2,13.5,mm,13.5,13.5,mm,,,6.0,C4D1,TREATMENT,2024-06-18,85
VISION-NSCLC,FA,VISION-NSCLC-SITE001-0019,55,LDIAM,Longest Diameter,TUMOR ASSESSMENT,,TARGET LESION 3,51.5,mm,51.5,51.5,mm,,,6.0,C4D1,TREATMENT,2024-06-18,85
VISION-NSCLC,FA,VISION-NSCLC-SITE001-0019,56,SAXIS,Short Axis,TUMOR ASSESSMENT,,TARGET LESION 3,11.4,mm,11.4,11.4,mm,,,6.0,C4D1,TREATMENT,2024-06-18,85
VISION-NSCLC,FA,VISION-NSCLC-SITE001-0019,57,LDIAM,Longest Diameter,TUMOR ASSESSMENT,,TARGET LESION 4,62.0,mm,62.0,62.0,mm,,,6.0,C4D1,TREATMENT,2024-06-18,85
VISION-NSCLC,FA,VISION-NSCLC-SITE001-0019,58,SAXIS,Short Axis,TUMOR ASSESSMENT,,TARGET LESION 4,15.0,mm,15.0,15.0,mm,,,6.0,C4D1,TREATMENT,2024-06-18,85
VISION-NSCLC,FA,VISION-NSCLC-SITE001-0019,59,LDIAM,Longest Diameter,TUMOR ASSESSMENT,,TARGET LESION 5,37.6,mm,37.6,37.6,mm,,,6.0,C4D1,TREATMENT,2024-06-18,85
VISION-NSCLC,FA,VISION-NSCLC-SITE001-0019,60,SAXIS,Short Axis,TUMOR ASSESSMENT,,TARGET LESION 5,19.9,mm,19.9,19.9,mm,,,6.0,C4D1,TREATMENT,2024-06-18,85
VISION-NSCLC,FA,VISION-NSCLC-SITE001-0019,61,LDIAM,Longest Diameter,TUMOR ASSESSMENT,,TARGET LESION 1,48.5,mm,48.5,48.5,mm,,,7.0,C6D1,TREATMENT,2024-08-13,141
VISION-NSCLC,FA,VISION-NSCLC-SITE001-0019,62,SAXIS,Short Axis,TUMOR ASSESSMENT,,TARGET LESION 1,9.9,mm,9.9,9.9,mm,,,7.0,C6D1,TREATMENT,2024-08-13,141
VISION-NSCLC,FA,VISION-NSCLC-SITE001-0019,63,LDIAM,Longest Diameter,TUMOR ASSESSMENT,,TARGET LESION 2,37.4,mm,37.4,37.4,mm,,,7.0,C6D1,TREATMENT,2024-08-13,141
VISION-NSCLC,FA,VISION-NSCLC-SITE001-0019,64,SAXIS,Short Axis,TUMOR ASSESSMENT,,TARGET LESION 2,14.4,mm,14.4,14.4,mm,,,7.0,C6D1,TREATMENT,2024-08-13,141
VISION-NSCLC,FA,VISION-NSCLC-SITE001-0019,65,LDIAM,Longest Diameter,TUMOR ASSESSMENT,,TARGET LESION 3,58.0,mm,58.0,58.0,mm,,,7.0,C6D1,TREATMENT,2024-08-13,141
VISION-NSCLC,FA,VISION-NSCLC-SITE001-0019,66,SAXIS,Short Axis,TUMOR ASSESSMENT,,TARGET LESION 3,11.6,mm,11.6,11.6,mm,,,7.0,C6D1,TREATMENT,2024-08-13,141
VISION-NSCLC,FA,VISION-NSCLC-SITE001-0019,67,LDIAM,Longest Diameter,TUMOR ASSESSMENT,,TARGET LESION 4,66.9,mm,66.9,66.9,mm,,,7.0,C6D1,TREATMENT,2024-08-13,141
VISION-NSCLC,FA,VISION-NSCLC-SITE001-0019,68,SAXIS,Short Axis,TUMOR ASSESSMENT,,TARGET LESION 4,15.2,mm,15.2,15.2,mm,,,7.0,C6D1,TREATMENT,2024-08-13,141
VISION-NSCLC,FA,VISION-NSCLC-SITE001-0019,69,LDIAM,Longest Diameter,TUMOR ASSESSMENT,,TARGET LESION 5,40.1,mm,40.1,40.1,mm,,,7.0,C6D1,TREATMENT,2024-08-13,141
VISION-NSCLC,FA,VISION-NSCLC-SITE001-0019,70,SAXIS,Short Axis,TUMOR ASSESSMENT,,TARGET LESION 5,19.9,mm,19.9,19.9,mm,,,7.0,C6D1,TREATMENT,2024-08-13,141
VISION-NSCLC,FA,VISION-NSCLC-SITE001-0019,71,LDIAM,Longest Diameter,TUMOR ASSESSMENT,,TARGET LESION 1,52.5,mm,52.5,52.5,mm,,,8.0,EOT,FOLLOW-UP,2024-09-10,169
VISION-NSCLC,FA,VISION-NSCLC-SITE001-0019,72,SAXIS,Short Axis,TUMOR ASSESSMENT,,TARGET LESION 1,10.9,mm,10.9,10.9,mm,,,8.0,EOT,FOLLOW-UP,2024-09-10,169
VISION-NSCLC,FA,VISION-NSCLC-SITE001-0019,73,LDIAM,Longest Diameter,TUMOR ASSESSMENT,,TARGET LESION 2,38.1,mm,38.1,38.1,mm,,,8.0,EOT,FOLLOW-UP,2024-09-10,169
VISION-NSCLC,FA,VISION-NSCLC-SITE001-0019,74,SAXIS,Short Axis,TUMOR ASSESSMENT,,TARGET LESION 2,14.1,mm,14.1,14.1,mm,,,8.0,EOT,FOLLOW-UP,2024-09-10,169
VISION-NSCLC,FA,VISION-NSCLC-SITE001-0019,75,LDIAM,Longest Diameter,TUMOR ASSESSMENT,,TARGET LESION 3,58.6,mm,58.6,58.6,mm,,,8.0,EOT,FOLLOW-UP,2024-09-10,169
VISION-NSCLC,FA,VISION-NSCLC-SITE001-0019,76,SAXIS,Short Axis,TUMOR ASSESSMENT,,TARGET LESION 3,12.2,mm,12.2,12.2,mm,,,8.0,EOT,FOLLOW-UP,2024-09-10,169
VISION-NSCLC,FA,VISION-NSCLC-SITE001-0019,77,LDIAM,Longest Diameter,TUMOR ASSESSMENT,,TARGET LESION 4,67.0,mm,67.0,67.0,mm,,,8.0,EOT,FOLLOW-UP,2024-09-10,169
VISION-NSCLC,FA,VISION-NSCLC-SITE001-0019,78,SAXIS,Short Axis,TUMOR ASSESSMENT,,TARGET LESION 4,15.7,mm,15.7,15.7,mm,,,8.0,EOT,FOLLOW-UP,2024-09-10,169
VISION-NSCLC,FA,VISION-NSCLC-SITE001-0019,79,LDIAM,Longest Diameter,TUMOR ASSESSMENT,,TARGET LESION 5,37.8,mm,37.8,37.8,mm,,,8.0,EOT,FOLLOW-UP,2024-09-10,169
VISION-NSCLC,FA,VISION-NSCLC-SITE001-0019,80,SAXIS,Short Axis,TUMOR ASSESSMENT,,TARGET LESION 5,21.1,mm,21.1,21.1,mm,,,8.0,EOT,FOLLOW-UP,2024-09-10,169
VISION-NSCLC,FA,VISION-NSCLC-SITE001-0022,1,LDIAM,Longest Diameter,TUMOR ASSESSMENT,,TARGET LESION 1,23.5,mm,23.5,23.5,mm,,Y,1.0,SCREENING,SCREENING,2024-01-25,-34
VISION-NSCLC,FA,VISION-NSCLC-SITE001-0022,2,SAXIS,Short Axis,TUMOR ASSESSMENT,,TARGET LESION 1,15.5,mm,15.5,15.5,mm,,Y,1.0,SCREENING,SCREENING,2024-01-25,-34
VISION-NSCLC,FA,VISION-NSCLC-SITE001-0022,3,LDIAM,Longest Diameter,TUMOR ASSESSMENT,,TARGET LESION 2,41.4,mm,41.4,41.4,mm,,Y,1.0,SCREENING,SCREENING,2024-01-25,-34
VISION-NSCLC,FA,VISION-NSCLC-SITE001-0022,4,SAXIS,Short Axis,TUMOR ASSESSMENT,,TARGET LESION 2,19.4,mm,19.4,19.4,mm,,Y,1.0,SCREENING,SCREENING,2024-01-25,-34
VISION-NSCLC,FA,VISION-NSCLC-SITE001-0022,5,LDIAM,Longest Diameter,TUMOR ASSESSMENT,,TARGET LESION 1,24.4,mm,24.4,24.4,mm,,,2.0,C1D1,TREATMENT,2024-02-28,1
VISION-NSCLC,FA,VISION-NSCLC-SITE001-0022,6,SAXIS,Short Axis,TUMOR ASSESSMENT,,TARGET LESION 1,14.9,mm,14.9,14.9,mm,,,2.0,C1D1,TREATMENT,2024-02-28,1
VISION-NSCLC,FA,VISION-NSCLC-SITE001-0022,7,LDIAM,Longest Diameter,TUMOR ASSESSMENT,,TARGET LESION 2,44.0,mm,44.0,44.0,mm,,,2.0,C1D1,TREATMENT,2024-02-28,1
VISION-NSCLC,FA,VISION-NSCLC-SITE001-0022,8,SAXIS,Short Axis,TUMOR ASSESSMENT,,TARGET LESION 2,19.8,mm,19.8,19.8,mm,,,2.0,C1D1,TREATMENT,2024-02-28,1
VISION-NSCLC,FA,VISION-NSCLC-SITE001-0022,9,LDIAM,Longest Diameter,TUMOR ASSESSMENT,,TARGET LESION 1,23.4,mm,23.4,23.4,mm,,,3.0,C1D15,TREATMENT,2024-03-13,15
VISION-NSCLC,FA,VISION-NSCLC-SITE001-0022,10,SAXIS,Short Axis,TUMOR ASSESSMENT,,TARGET LESION 1,16.8,mm,16.8,16.8,mm,,,3.0,C1D15,TREATMENT,2024-03-13,15
VISION-NSCLC,FA,VISION-NSCLC-SITE001-0022,11,LDIAM,Longest Diameter,TUMOR ASSESSMENT,,TARGET LESION 2,41.5,mm,41.5,41.5,mm,,,3.0,C1D15,TREATMENT,2024-03-13,15
VISION-NSCLC,FA,VISION-NSCLC-SITE001-0022,12,SAXIS,Short Axis,TUMOR ASSESSMENT,,TARGET LESION 2,20.2,mm,20.2,20.2,mm,,,3.0,C1D15,TREATMENT,2024-03-13,15
VISION-NSCLC,FA,VISION-NSCLC-SITE001-0022,13,LDIAM,Longest Diameter,TUMOR ASSESSMENT,,TARGET LESION 1,23.9,mm,23.9,23.9,mm,,,4.0,C2D1,TREATMENT,2024-03-27,29
VISION-NSCLC,FA,VISION-NSCLC-SITE001-0022,14,SAXIS,Short Axis,TUMOR ASSESSMENT,,TARGET LESION 1,16.4,mm,16.4,16.4,mm,,,4.0,C2D1,TREATMENT,2024-03-27,29
VISION-NSCLC,FA,VISION-NSCLC-SITE001-0022,15,LDIAM,Longest Diameter,TUMOR ASSESSMENT,,TARGET LESION 2,46.6,mm,46.6,46.6,mm,,,4.0,C2D1,TREATMENT,2024-03-27,29
VISION-NSCLC,FA,VISION-NSCLC-SITE001-0022,16,SAXIS,Short Axis,TUMOR ASSESSMENT,,TARGET LESION 2,21.4,mm,21.4,21.4,mm,,,4.0,C2D1,TREATMENT,2024-03-27,29
VISION-NSCLC,FA,VISION-NSCLC-SITE001-0022,17,LDIAM,Longest Diameter,TUMOR ASSESSMENT,,TARGET LESION 1,27.8,mm,27.8,27.8,mm,,,5.0,C3D1,TREATMENT,2024-04-24,57
VISION-NSCLC,FA,VISION-NSCLC-SITE001-0022,18,SAXIS,Short Axis,TUMOR ASSESSMENT,,TARGET LESION 1,16.8,mm,16.8,16.8,mm,,,5.0,C3D1,TREATMENT,2024-04-24,57
VISION-NSCLC,FA,VISION-NSCLC-SITE001-0022,19,LDIAM,Longest Diameter,TUMOR ASSESSMENT,,TARGET LESION 2,47.1,mm,47.1,47.1,mm,,,5.0,C3D1,TREATMENT,2024-04-24,57
VISION-NSCLC,FA,VISION-NSCLC-SITE001-0022,20,SAXIS,Short Axis,TUMOR ASSESSMENT,,TARGET LESION 2,22.2,mm,22.2,22.2,mm,,,5.0,C3D1,TREATMENT,2024-04-24,57
VISION-NSCLC,FA,VISION-NSCLC-SITE001-0022,21,LDIAM,Longest Diameter,TUMOR ASSESSMENT,,TARGET LESION 1,29.1,mm,29.1,29.1,mm,,,6.0,C4D1,TREATMENT,2024-05-22,85
VISION-NSCLC,FA,VISION-NSCLC-SITE001-0022,22,SAXIS,Short Axis,TUMOR ASSESSMENT,,TARGET LESION 1,18.4,mm,18.4,18.4,mm,,,6.0,C4D1,TREATMENT,2024-05-22,85
VISION-NSCLC,FA,VISION-NSCLC-SITE001-0022,23,LDIAM,Longest Diameter,TUMOR ASSESSMENT,,TARGET LESION 2,47.5,mm,47.5,47.5,mm,,,6.0,C4D1,TREATMENT,2024-05-22,85
VISION-NSCLC,FA,VISION-NSCLC-SITE001-0022,24,SAXIS,Short Axis,TUMOR ASSESSMENT,,TARGET LESION 2,22.4,mm,22.4,22.4,mm,,,6.0,C4D1,TREATMENT,2024-05-22,85
VISION-NSCLC,FA,VISION-NSCLC-SITE001-0022,25,LDIAM,Longest Diameter,TUMOR ASSESSMENT,,TARGET LESION 1,30.1,mm,30.1,30.1,mm,,,7.0,C6D1,TREATMENT,2024-07-17,141
VISION-NSCLC,FA,VISION-NSCLC-SITE001-0022,26,SAXIS,Short Axis,TUMOR ASSESSMENT,,TARGET LESION 1,17.3,mm,17.3,17.3,mm,,,7.0,C6D1,TREATMENT,2024-07-17,141
VISION-NSCLC,FA,VISION-NSCLC-SITE001-0022,27,LDIAM,Longest Diameter,TUMOR ASSESSMENT,,TARGET LESION 2,48.6,mm,48.6,48.6,mm,,,7.0,C6D1,TREATMENT,2024-07-17,141
VISION-NSCLC,FA,VISION-NSCLC-SITE001-0022,28,SAXIS,Short Axis,TUMOR ASSESSMENT,,TARGET LESION 2,22.6,mm,22.6,22.6,mm,,,7.0,C6D1,TREATMENT,2024-07-17,141
VISION-NSCLC,FA,VISION-NSCLC-SITE001-0022,29,LDIAM,Longest Diameter,TUMOR ASSESSMENT,,TARGET LESION 1,31.7,mm,31.7,31.7,mm,,,8.0,EOT,FOLLOW-UP,2024-08-14,169
VISION-NSCLC,FA,VISION-NSCLC-SITE001-0022,30,SAXIS,Short Axis,TUMOR ASSESSMENT,,TARGET LESION 1,18.7,mm,18.7,18.7,mm,,,8.0,EOT,FOLLOW-UP,2024-08-14,169
VISION-NSCLC,FA,VISION-NSCLC-SITE001-0022,31,LDIAM,Longest Diameter,TUMOR ASSESSMENT,,TARGET LESION 2,51.2,mm,51.2,51.2,mm,,,8.0,EOT,FOLLOW-UP,2024-08-14,169
VISION-NSCLC,FA,VISION-NSCLC-SITE001-0022,32,SAXIS,Short Axis,TUMOR ASSESSMENT,,TARGET LESION 2,23.4,mm,23.4,23.4,mm,,,8.0,EOT,FOLLOW-UP,2024-08-14,169
VISION-NSCLC,FA,VISION-NSCLC-SITE001-0025,1,LDIAM,Longest Diameter,TUMOR ASSESSMENT,,TARGET LESION 1,28.7,mm,28.7,28.7,mm,,Y,1.0,SCREENING,SCREENING,2024-03-04,-10
VISION-NSCLC,FA,VISION-NSCLC-SITE001-0025,2,SAXIS,Short Axis,TUMOR ASSESSMENT,,TARGET LESION 1,18.8,mm,18.8,18.8,mm,,Y,1.0,SCREENING,SCREENING,2024-03-04,-10
VISION-NSCLC,FA,VISION-NSCLC-SITE001-0025,3,LDIAM,Longest Diameter,TUMOR ASSESSMENT,,TARGET LESION 2,20.9,mm,20.9,20.9,mm,,Y,1.0,SCREENING,SCREENING,2024-03-04,-10
VISION-NSCLC,FA,VISION-NSCLC-SITE001-0025,4,SAXIS,Short Axis,TUMOR ASSESSMENT,,TARGET LESION 2,3,mm,3,3.0,mm,,Y,1.0,SCREENING,SCREENING,2024-03-04,-10
VISION-NSCLC,FA,VISION-NSCLC-SITE001-0025,5,LDIAM,Longest Diameter,TUMOR ASSESSMENT,,TARGET LESION 3,55.8,mm,55.8,55.8,mm,,Y,1.0,SCREENING,SCREENING,2024-03-04,-10
VISION-NSCLC,FA,VISION-NSCLC-SITE001-0025,6,SAXIS,Short Axis,TUMOR ASSESSMENT,,TARGET LESION 3,8.9,mm,8.9,8.9,mm,,Y,1.0,SCREENING,SCREENING,2024-03-04,-10
VISION-NSCLC,FA,VISION-NSCLC-SITE001-0025,7,LDIAM,Longest Diameter,TUMOR ASSESSMENT,,TARGET LESION 4,5,mm,5,5.0,mm,,Y,1.0,SCREENING,SCREENING,2024-03-04,-10
VISION-NSCLC,FA,VISION-NSCLC-SITE001-0025,8,SAXIS,Short Axis,TUMOR ASSESSMENT,,TARGET LESION 4,6.5,mm,6.5,6.5,mm,,Y,1.0,SCREENING,SCREENING,2024-03-04,-10
VISION-NSCLC,FA,VISION-NSCLC-SITE001-0025,9,LDIAM,Longest Diameter,TUMOR ASSESSMENT,,TARGET LESION 5,56.8,mm,56.8,56.8,mm,,Y,1.0,SCREENING,SCREENING,2024-03-04,-10
VISION-NSCLC,FA,VISION-NSCLC-SITE001-0025,10,SAXIS,Short Axis,TUMOR ASSESSMENT,,TARGET LESION 5,13.9,mm,13.9,13.9,mm,,Y,1.0,SCREENING,SCREENING,2024-03-04,-10
VISION-NSCLC,FA,VISION-NSCLC-SITE001-0025,11,LDIAM,Longest Diameter,TUMOR ASSESSMENT,,TARGET LESION 1,30.7,mm,30.7,30.7,mm,,,2.0,C1D1,TREATMENT,2024-03-14,1
VISION-NSCLC,FA,VISION-NSCLC-SITE001-0025,12,SAXIS,Short Axis,TUMOR ASSESSMENT,,TARGET LESION 1,17.9,mm,17.9,17.9,mm,,,2.0,C1D1,TREATMENT,2024-03-14,1
VISION-NSCLC,FA,VISION-NSCLC-SITE001-0025,13,LDIAM,Longest Diameter,TUMOR ASSESSMENT,,TARGET LESION 2,24.3,mm,24.3,24.3,mm,,,2.0,C1D1,TREATMENT,2024-03-14,1
VISION-NSCLC,FA,VISION-NSCLC-SITE001-0025,14,SAXIS,Short Axis,TUMOR ASSESSMENT,,TARGET LESION 2,3.6,mm,3.6,3.6,mm,,,2.0,C1D1,TREATMENT,2024-03-14,1
VISION-NSCLC,FA,VISION-NSCLC-SITE001-0025,15,LDIAM,Longest Diameter,TUMOR ASSESSMENT,,TARGET LESION 3,55.7,mm,55.7,55.7,mm,,,2.0,C1D1,TREATMENT,2024-03-14,1
VISION-NSCLC,FA,VISION-NSCLC-SITE001-0025,16,SAXIS,Short Axis,TUMOR ASSESSMENT,,TARGET LESION 3,8.8,mm,8.8,8.8,mm,,,2.0,C1D1,TREATMENT,2024-03-14,1
VISION-NSCLC,FA,VISION-NSCLC-SITE001-0025,17,LDIAM,Longest Diameter,TUMOR ASSESSMENT,,TARGET LESION 4,7.0,mm,7.0,7.0,mm,,,2.0,C1D1,TREATMENT,2024-03-14,1
VISION-NSCLC,FA,VISION-NSCLC-SITE001-0025,18,SAXIS,Short Axis,TUMOR ASSESSMENT,,TARGET LESION 4,6.8,mm,6.8,6.8,mm,,,2.0,C1D1,TREATMENT,2024-03-14,1
VISION-NSCLC,FA,VISION-NSCLC-SITE001-0025,19,LDIAM,Longest Diameter,TUMOR ASSESSMENT,,TARGET LESION 5,57.9,mm,57.9,57.9,mm,,,2.0,C1D1,TREATMENT,2024-03-14,1
VISION-NSCLC,FA,VISION-NSCLC-SITE001-0025,20,SAXIS,Short Axis,TUMOR ASSESSMENT,,TARGET LESION 5,14.2,mm,14.2,14.2,mm,,,2.0,C1D1,TREATMENT,2024-03-14,1
VISION-NSCLC,FA,VISION-NSCLC-SITE001-0025,21,LDIAM,Longest Diameter,TUMOR ASSESSMENT,,TARGET LESION 1,31.0,mm,31.0,31.0,mm,,,3.0,C1D15,TREATMENT,2024-03-28,15
VISION-NSCLC,FA,VISION-NSCLC-SITE001-0025,22,SAXIS,Short Axis,TUMOR ASSESSMENT,,TARGET LESION 1,19.5,mm,19.5,19.5,mm,,,3.0,C1D15,TREATMENT,2024-03-28,15
VISION-NSCLC,FA,VISION-NSCLC-SITE001-0025,23,LDIAM,Longest Diameter,TUMOR ASSESSMENT,,TARGET LESION 2,20.1,mm,20.1,20.1,mm,,,3.0,C1D15,TREATMENT,2024-03-28,15
VISION-NSCLC,FA,VISION-NSCLC-SITE001-0025,24,SAXIS,Short Axis,TUMOR ASSESSMENT,,TARGET LESION 2,3,mm,3,3.0,mm,,,3.0,C1D15,TREATMENT,2024-03-28,15
VISION-NSCLC,FA,VISION-NSCLC-SITE001-0025,25,LDIAM,Longest Diameter,TUMOR ASSESSMENT,,TARGET LESION 3,57.9,mm,57.9,57.9,mm,,,3.0,C1D15,TREATMENT,2024-03-28,15
VISION-NSCLC,FA,VISION-NSCLC-SITE001-0025,26,SAXIS,Short Axis,TUMOR ASSESSMENT,,TARGET LESION 3,9.7,mm,9.7,9.7,mm,,,3.0,C1D15,TREATMENT,2024-03-28,15
VISION-NSCLC,FA,VISION-NSCLC-SITE001-0025,27,LDIAM,Longest Diameter,TUMOR ASSESSMENT,,TARGET LESION 4,5,mm,5,5.0,mm,,,3.0,C1D15,TREATMENT,2024-03-28,15
VISION-NSCLC,FA,VISION-NSCLC-SITE001-0025,28,SAXIS,Short Axis,TUMOR ASSESSMENT,,TARGET LESION 4,6.6,mm,6.6,6.6,mm,,,3.0,C1D15,TREATMENT,2024-03-28,15
VISION-NSCLC,FA,VISION-NSCLC-SITE001-0025,29,LDIAM,Longest Diameter,TUMOR ASSESSMENT,,TARGET LESION 5,62.6,mm,62.6,62.6,mm,,,3.0,C1D15,TREATMENT,2024-03-28,15
VISION-NSCLC,FA,VISION-NSCLC-SITE001-0025,30,SAXIS,Short Axis,TUMOR ASSESSMENT,,TARGET LESION 5,15.0,mm,15.0,15.0,mm,,,3.0,C1D15,TREATMENT,2024-03-28,15
VISION-NSCLC,FA,VISION-NSCLC-SITE001-0025,31,LDIAM,Longest Diameter,TUMOR ASSESSMENT,,TARGET LESION 1,32.1,mm,32.1,32.1,mm,,,4.0,C2D1,TREATMENT,2024-04-11,29
VISION-NSCLC,FA,VISION-NSCLC-SITE001-0025,32,SAXIS,Short Axis,TUMOR ASSESSMENT,,TARGET LESION 1,20.4,mm,20.4,20.4,mm,,,4.0,C2D1,TREATMENT,2024-04-11,29
VISION-NSCLC,FA,VISION-NSCLC-SITE001-0025,33,LDIAM,Longest Diameter,TUMOR ASSESSMENT,,TARGET LESION 2,22.9,mm,22.9,22.9,mm,,,4.0,C2D1,TREATMENT,2024-04-11,29
VISION-NSCLC,FA,VISION-NSCLC-SITE001-0025,34,SAXIS,Short Axis,TUMOR ASSESSMENT,,TARGET LESION 2,3,mm,3,3.0,mm,,,4.0,C2D1,TREATMENT,2024-04-11,29
VISION-NSCLC,FA,VISION-NSCLC-SITE001-0025,35,LDIAM,Longest Diameter,TUMOR ASSESSMENT,,TARGET LESION 3,61.6,mm,61.6,61.6,mm,,,4.0,C2D1,TREATMENT,2024-04-11,29
VISION-NSCLC,FA,VISION-NSCLC-SITE001-0025,36,SAXIS,Short Axis,TUMOR ASSESSMENT,,TARGET LESION 3,9.4,mm,9.4,9.4,mm,,,4.0,C2D1,TREATMENT,2024-04-11,29
VISION-NSCLC,FA,VISION-NSCLC-SITE001-0025,37,LDIAM,Longest Diameter,TUMOR ASSESSMENT,,TARGET LESION 4,5.2,mm,5.2,5.2,mm,,,4.0,C2D1,TREATMENT,2024-04-11,29
VISION-NSCLC,FA,VISION-NSCLC-SITE001-0025,38,SAXIS,Short Axis,TUMOR ASSESSMENT,,TARGET LESION 4,7.4,mm,7.4,7.4,mm,,,4.0,C2D1,TREATMENT,2024-04-11,29
VISION-NSCLC,FA,VISION-NSCLC-SITE001-0025,39,LDIAM,Longest Diameter,TUMOR ASSESSMENT,,TARGET LESION 5,61.4,mm,61.4,61.4,mm,,,4.0,C2D1,TREATMENT,2024-04-11,29
VISION-NSCLC,FA,VISION-NSCLC-SITE001-0025,40,SAXIS,Short Axis,TUMOR ASSESSMENT,,TARGET LESION 5,16.0,mm,16.0,16.0,mm,,,4.0,C2D1,TREATMENT,2024-04-11,29
VISION-NSCLC,FA,VISION-NSCLC-SITE001-0025,41,LDIAM,Longest Diameter,TUMOR ASSESSMENT,,TARGET LESION 1,34.3,mm,34.3,34.3,mm,,,5.0,C3D1,TREATMENT,2024-05-09,57
VISION-NSCLC,FA,VISION-NSCLC-SITE001-0025,42,SAXIS,Short Axis,TUMOR ASSESSMENT,,TARGET LESION 1,20.5,mm,20.5,20.5,mm,,,5.0,C3D1,TREATMENT,2024-05-09,57
VISION-NSCLC,FA,VISION-NSCLC-SITE001-0025,43,LDIAM,Longest Diameter,TUMOR ASSESSMENT,,TARGET LESION 2,22.6,mm,22.6,22.6,mm,,,5.0,C3D1,TREATMENT,2024-05-09,57
VISION-NSCLC,FA,VISION-NSCLC-SITE001-0025,44,SAXIS,Short Axis,TUMOR ASSESSMENT,,TARGET LESION 2,3,mm,3,3.0,mm,,,5.0,C3D1,TREATMENT,2024-05-09,57
VISION-NSCLC,FA,VISION-NSCLC-SITE001-0025,45,LDIAM,Longest Diameter,TUMOR ASSESSMENT,,TARGET LESION 3,61.1,mm,61.1,61.1,mm,,,5.0,C3D1,TREATMENT,2024-05-09,57
VISION-NSCLC,FA,VISION-NSCLC-SITE001-0025,46,SAXIS,Short Axis,TUMOR ASSESSMENT,,TARGET LESION 3,10.8,mm,10.8,10.8,mm,,,5.0,C3D1,TREATMENT,2024-05-09,57
VISION-NSCLC,FA,VISION-NSCLC-SITE001-0025,47,LDIAM,Longest Diameter,TUMOR ASSESSMENT,,TARGET LESION 4,5,mm,5,5.0,mm,,,5.0,C3D1,TREATMENT,2024-05-09,57
VISION-NSCLC,FA,VISION-NSCLC-SITE001-0025,48,SAXIS,Short Axis,TUMOR ASSESSMENT,,TARGET LESION 4,7.3,mm,7.3,7.3,mm,,,5.0,C3D1,TREATMENT,2024-05-09,57
VISION-NSCLC,FA,VISION-NSCLC-SITE001-0025,49,LDIAM,Longest Diameter,TUMOR ASSESSMENT,,TARGET LESION 5,64.6,mm,64.6,64.6,mm,,,5.0,C3D1,TREATMENT,2024-05-09,57
VISION-NSCLC,FA,VISION-NSCLC-SITE001-0025,50,SAXIS,Short Axis,TUMOR ASSESSMENT,,TARGET LESION 5,15.4,mm,15.4,15.4,mm,,,5.0,C3D1,TREATMENT,2024-05-09,57
VISION-NSCLC,FA,VISION-NSCLC-SITE001-0025,51,LDIAM,Longest Diameter,TUMOR ASSESSMENT,,TARGET LESION 1,30.4,mm,30.4,30.4,mm,,,6.0,C4D1,TREATMENT,2024-06-06,85
VISION-NSCLC,FA,VISION-NSCLC-SITE001-0025,52,SAXIS,Short Axis,TUMOR ASSESSMENT,,TARGET LESION 1,21.3,mm,21.3,21.3,mm,,,6.0,C4D1,TREATMENT,2024-06-06,85
VISION-NSCLC,FA,VISION-NSCLC-SITE001-0025,53,LDIAM,Longest Diameter,TUMOR ASSESSMENT,,TARGET LESION 2,21.7,mm,21.7,21.7,mm,,,6.0,C4D1,TREATMENT,2024-06-06,85
VISION-NSCLC,FA,VISION-NSCLC-SITE001-0025,54,SAXIS,Short Axis,TUMOR ASSESSMENT,,TARGET LESION 2,3.3,mm,3.3,3.3,mm,,,6.0,C4D1,TREATMENT,2024-06-06,85
VISION-NSCLC,FA,VISION-NSCLC-SITE001-0025,55,LDIAM,Longest Diameter,TUMOR ASSESSMENT,,TARGET LESION 3,64.6,mm,64.6,64.6,mm,,,6.0,C4D1,TREATMENT,2024-06-06,85
VISION-NSCLC,FA,VISION-NSCLC-SITE001-0025,56,SAXIS,Short Axis,TUMOR ASSESSMENT,,TARGET LESION 3,9.2,mm,9.2,9.2,mm,,,6.0,C4D1,TREATMENT,2024-06-06,85
VISION-NSCLC,FA,VISION-NSCLC-SITE001-0025,57,LDIAM,Longest Diameter,TUMOR ASSESSMENT,,TARGET LESION 4,6.2,mm,6.2,6.2,mm,,,6.0,C4D1,TREATMENT,2024-06-06,85
VISION-NSCLC,FA,VISION-NSCLC-SITE001-0025,58,SAXIS,Short Axis,TUMOR ASSESSMENT,,TARGET LESION 4,7.7,mm,7.7,7.7,mm,,,6.0,C4D1,TREATMENT,2024-06-06,85
VISION-NSCLC,FA,VISION-NSCLC-SITE001-0025,59,LDIAM,Longest Diameter,TUMOR ASSESSMENT,,TARGET LESION 5,64.3,mm,64.3,64.3,mm,,,6.0,C4D1,TREATMENT,2024-06-06,85
VISION-NSCLC,FA,VISION-NSCLC-SITE001-0025,60,SAXIS,Short Axis,TUMOR ASSESSMENT,,TARGET LESION 5,15.2,mm,15.2,15.2,mm,,,6.0,C4D1,TREATMENT,2024-06-06,85
VISION-NSCLC,FA,VISION-NSCLC-SITE001-0025,61,LDIAM,Longest Diameter,TUMOR ASSESSMENT,,TARGET LESION 1,32.0,mm,32.0,32.0,mm,,,7.0,C6D1,TREATMENT,2024-08-01,141
VISION-NSCLC,FA,VISION-NSCLC-SITE001-0025,62,SAXIS,Short Axis,TUMOR ASSESSMENT,,TARGET LESION 1,22.3,mm,22.3,22.3,mm,,,7.0,C6D1,TREATMENT,2024-08-01,141
VISION-NSCLC,FA,VISION-NSCLC-SITE001-0025,63,LDIAM,Longest Diameter,TUMOR ASSESSMENT,,TARGET LESION 2,24.8,mm,24.8,24.8,mm,,,7.0,C6D1,TREATMENT,2024-08-01,141
VISION-NSCLC,FA,VISION-NSCLC-SITE001-0025,64,SAXIS,Short Axis,TUMOR ASSESSMENT,,TARGET LESION 2,3.9,mm,3.9,3.9,mm,,,7.0,C6D1,TREATMENT,2024-08-01,141
VISION-NSCLC,FA,VISION-NSCLC-SITE001-0025,65,LDIAM,Longest Diameter,TUMOR ASSESSMENT,,TARGET LESION 3,64.2,mm,64.2,64.2,mm,,,7.0,C6D1,TREATMENT,2024-08-01,141
VISION-NSCLC,FA,VISION-NSCLC-SITE001-0025,66,SAXIS,Short Axis,TUMOR ASSESSMENT,,TARGET LESION 3,10.9,mm,10.9,10.9,mm,,,7.0,C6D1,TREATMENT,2024-08-01,141
VISION-NSCLC,FA,VISION-NSCLC-SITE001-0025,67,LDIAM,Longest Diameter,TUMOR ASSESSMENT,,TARGET LESION 4,5,mm,5,5.0,mm,,,7.0,C6D1,TREATMENT,2024-08-01,141
VISION-NSCLC,FA,VISION-NSCLC-SITE001-0025,68,SAXIS,Short Axis,TUMOR ASSESSMENT,,TARGET LESION 4,7.0,mm,7.0,7.0,mm,,,7.0,C6D1,TREATMENT,2024-08-01,141
VISION-NSCLC,FA,VISION-NSCLC-SITE001-0025,69,LDIAM,Longest Diameter,TUMOR ASSESSMENT,,TARGET LESION 5,68.8,mm,68.8,68.8,mm,,,7.0,C6D1,TREATMENT,2024-08-01,141
VISION-NSCLC,FA,VISION-NSCLC-SITE001-0025,70,SAXIS,Short Axis,TUMOR ASSESSMENT,,TARGET LESION 5,15.7,mm,15.7,15.7,mm,,,7.0,C6D1,TREATMENT,2024-08-01,141
VISION-NSCLC,FA,VISION-NSCLC-SITE001-0025,71,LDIAM,Longest Diameter,TUMOR ASSESSMENT,,TARGET LESION 1,35.3,mm,35.3,35.3,mm,,,8.0,EOT,FOLLOW-UP,2024-08-29,169
VISION-NSCLC,FA,VISION-NSCLC-SITE001-0025,72,SAXIS,Short Axis,TUMOR ASSESSMENT,,TARGET LESION 1,23.0,mm,23.0,23.0,mm,,,8.0,EOT,FOLLOW-UP,2024-08-29,169
VISION-NSCLC,FA,VISION-NSCLC-SITE001-0025,73,LDIAM,Longest Diameter,TUMOR ASSESSMENT,,TARGET LESION 2,24.6,mm,24.6,24.6,mm,,,8.0,EOT,FOLLOW-UP,2024-08-29,169
VISION-NSCLC,FA,VISION-NSCLC-SITE001-0025,74,SAXIS,Short Axis,TUMOR ASSESSMENT,,TARGET LESION 2,3,mm,3,3.0,mm,,,8.0,EOT,FOLLOW-UP,2024-08-29,169
VISION-NSCLC,FA,VISION-NSCLC-SITE001-0025,75,LDIAM,Longest Diameter,TUMOR ASSESSMENT,,TARGET LESION 3,65.9,mm,65.9,65.9,mm,,,8.0,EOT,FOLLOW-UP,2024-08-29,169
VISION-NSCLC,FA,VISION-NSCLC-SITE001-0025,76,SAXIS,Short Axis,TUMOR ASSESSMENT,,TARGET LESION 3,11.3,mm,11.3,11.3,mm,,,8.0,EOT,FOLLOW-UP,2024-08-29,169
VISION-NSCLC,FA,VISION-NSCLC-SITE001-0025,77,LDIAM,Longest Diameter,TUMOR ASSESSMENT,,TARGET LESION 4,5,mm,5,5.0,mm,,,8.0,EOT,FOLLOW-UP,2024-08-29,169
VISION-NSCLC,FA,VISION-NSCLC-SITE001-0025,78,SAXIS,Short Axis,TUMOR ASSESSMENT,,TARGET LESION 4,8.3,mm,8.3,8.3,mm,,,8.0,EOT,FOLLOW-UP,2024-08-29,169
VISION-NSCLC,FA,VISION-NSCLC-SITE001-0025,79,LDIAM,Longest Diameter,TUMOR ASSESSMENT,,TARGET LESION 5,65.7,mm,65.7,65.7,mm,,,8.0,EOT,FOLLOW-UP,2024-08-29,169
VISION-NSCLC,FA,VISION-NSCLC-SITE001-0025,80,SAXIS,Short Axis,TUMOR ASSESSMENT,,TARGET LESION 5,16.4,mm,16.4,16.4,mm,,,8.0,EOT,FOLLOW-UP,2024-08-29,169
VISION-NSCLC,FA,VISION-NSCLC-SITE001-0028,1,LDIAM,Longest Diameter,TUMOR ASSESSMENT,,TARGET LESION 1,38.8,mm,38.8,38.8,mm,,Y,1.0,SCREENING,SCREENING,2024-02-11,-10
VISION-NSCLC,FA,VISION-NSCLC-SITE001-0028,2,SAXIS,Short Axis,TUMOR ASSESSMENT,,TARGET LESION 1,11.0,mm,11.0,11.0,mm,,Y,1.0,SCREENING,SCREENING,2024-02-11,-10
VISION-NSCLC,FA,VISION-NSCLC-SITE001-0028,3,LDIAM,Longest Diameter,TUMOR ASSESSMENT,,TARGET LESION 2,55.8,mm,55.8,55.8,mm,,Y,1.0,SCREENING,SCREENING,2024-02-11,-10
VISION-NSCLC,FA,VISION-NSCLC-SITE001-0028,4,SAXIS,Short Axis,TUMOR ASSESSMENT,,TARGET LESION 2,21.1,mm,21.1,21.1,mm,,Y,1.0,SCREENING,SCREENING,2024-02-11,-10
VISION-NSCLC,FA,VISION-NSCLC-SITE001-0028,5,LDIAM,Longest Diameter,TUMOR ASSESSMENT,,TARGET LESION 3,29.4,mm,29.4,29.4,mm,,Y,1.0,SCREENING,SCREENING,2024-02-11,-10
VISION-NSCLC,FA,VISION-NSCLC-SITE001-0028,6,SAXIS,Short Axis,TUMOR ASSESSMENT,,TARGET LESION 3,14.7,mm,14.7,14.7,mm,,Y,1.0,SCREENING,SCREENING,2024-02-11,-10
VISION-NSCLC,FA,VISION-NSCLC-SITE001-0028,7,LDIAM,Longest Diameter,TUMOR ASSESSMENT,,TARGET LESION 4,60.2,mm,60.2,60.2,mm,,Y,1.0,SCREENING,SCREENING,2024-02-11,-10
VISION-NSCLC,FA,VISION-NSCLC-SITE001-0028,8,SAXIS,Short Axis,TUMOR ASSESSMENT,,TARGET LESION 4,15.2,mm,15.2,15.2,mm,,Y,1.0,SCREENING,SCREENING,2024-02-11,-10
VISION-NSCLC,FA,VISION-NSCLC-SITE001-0028,9,LDIAM,Longest Diameter,TUMOR ASSESSMENT,,TARGET LESION 1,36.3,mm,36.3,36.3,mm,,,2.0,C1D1,TREATMENT,2024-02-21,1
VISION-NSCLC,FA,VISION-NSCLC-SITE001-0028,10,SAXIS,Short Axis,TUMOR ASSESSMENT,,TARGET LESION 1,10.7,mm,10.7,10.7,mm,,,2.0,C1D1,TREATMENT,2024-02-21,1
VISION-NSCLC,FA,VISION-NSCLC-SITE001-0028,11,LDIAM,Longest Diameter,TUMOR ASSESSMENT,,TARGET LESION 2,53.7,mm,53.7,53.7,mm,,,2.0,C1D1,TREATMENT,2024-02-21,1
VISION-NSCLC,FA,VISION-NSCLC-SITE001-0028,12,SAXIS,Short Axis,TUMOR ASSESSMENT,,TARGET LESION 2,19.4,mm,19.4,19.4,mm,,,2.0,C1D1,TREATMENT,2024-02-21,1
VISION-NSCLC,FA,VISION-NSCLC-SITE001-0028,13,LDIAM,Longest Diameter,TUMOR ASSESSMENT,,TARGET LESION 3,27.6,mm,27.6,27.6,mm,,,2.0,C1D1,TREATMENT,2024-02-21,1
VISION-NSCLC,FA,VISION-NSCLC-SITE001-0028,14,SAXIS,Short Axis,TUMOR ASSESSMENT,,TARGET LESION 3,13.3,mm,13.3,13.3,mm,,,2.0,C1D1,TREATMENT,2024-02-21,1
VISION-NSCLC,FA,VISION-NSCLC-SITE001-0028,15,LDIAM,Longest Diameter,TUMOR ASSESSMENT,,TARGET LESION 4,56.4,mm,56.4,56.4,mm,,,2.0,C1D1,TREATMENT,2024-02-21,1
VISION-NSCLC,FA,VISION-NSCLC-SITE001-0028,16,SAXIS,Short Axis,TUMOR ASSESSMENT,,TARGET LESION 4,14.8,mm,14.8,14.8,mm,,,2.0,C1D1,TREATMENT,2024-02-21,1
VISION-NSCLC,FA,VISION-NSCLC-SITE001-0028,17,LDIAM,Longest Diameter,TUMOR ASSESSMENT,,TARGET LESION 1,36.3,mm,36.3,36.3,mm,,,3.0,C1D15,TREATMENT,2024-03-06,15
VISION-NSCLC,FA,VISION-NSCLC-SITE001-0028,18,SAXIS,Short Axis,TUMOR ASSESSMENT,,TARGET LESION 1,9.2,mm,9.2,9.2,mm,,,3.0,C1D15,TREATMENT,2024-03-06,15
VISION-NSCLC,FA,VISION-NSCLC-SITE001-0028,19,LDIAM,Longest Diameter,TUMOR ASSESSMENT,,TARGET LESION 2,47.8,mm,47.8,47.8,mm,,,3.0,C1D15,TREATMENT,2024-03-06,15
VISION-NSCLC,FA,VISION-NSCLC-SITE001-0028,20,SAXIS,Short Axis,TUMOR ASSESSMENT,,TARGET LESION 2,18.5,mm,18.5,18.5,mm,,,3.0,C1D15,TREATMENT,2024-03-06,15
VISION-NSCLC,FA,VISION-NSCLC-SITE001-0028,21,LDIAM,Longest Diameter,TUMOR ASSESSMENT,,TARGET LESION 3,27.1,mm,27.1,27.1,mm,,,3.0,C1D15,TREATMENT,2024-03-06,15
VISION-NSCLC,FA,VISION-NSCLC-SITE001-0028,22,SAXIS,Short Axis,TUMOR ASSESSMENT,,TARGET LESION 3,13.1,mm,13.1,13.1,mm,,,3.0,C1D15,TREATMENT,2024-03-06,15
VISION-NSCLC,FA,VISION-NSCLC-SITE001-0028,23,LDIAM,Longest Diameter,TUMOR ASSESSMENT,,TARGET LESION 4,50.6,mm,50.6,50.6,mm,,,3.0,C1D15,TREATMENT,2024-03-06,15
VISION-NSCLC,FA,VISION-NSCLC-SITE001-0028,24,SAXIS,Short Axis,TUMOR ASSESSMENT,,TARGET LESION 4,13.4,mm,13.4,13.4,mm,,,3.0,C1D15,TREATMENT,2024-03-06,15
VISION-NSCLC,FA,VISION-NSCLC-SITE001-0028,25,LDIAM,Longest Diameter,TUMOR ASSESSMENT,,TARGET LESION 1,30.5,mm,30.5,30.5,mm,,,4.0,C2D1,TREATMENT,2024-03-20,29
VISION-NSCLC,FA,VISION-NSCLC-SITE001-0028,26,SAXIS,Short Axis,TUMOR ASSESSMENT,,TARGET LESION 1,8.9,mm,8.9,8.9,mm,,,4.0,C2D1,TREATMENT,2024-03-20,29
VISION-NSCLC,FA,VISION-NSCLC-SITE001-0028,27,LDIAM,Longest Diameter,TUMOR ASSESSMENT,,TARGET LESION 2,44.7,mm,44.7,44.7,mm,,,4.0,C2D1,TREATMENT,2024-03-20,29
VISION-NSCLC,FA,VISION-NSCLC-SITE001-0028,28,SAXIS,Short Axis,TUMOR ASSESSMENT,,TARGET LESION 2,17.4,mm,17.4,17.4,mm,,,4.0,C2D1,TREATMENT,2024-03-20,29
VISION-NSCLC,FA,VISION-NSCLC-SITE001-0028,29,LDIAM,Longest Diameter,TUMOR ASSESSMENT,,TARGET LESION 3,23.7,mm,23.7,23.7,mm,,,4.0,C2D1,TREATMENT,2024-03-20,29
VISION-NSCLC,FA,VISION-NSCLC-SITE001-0028,30,SAXIS,Short Axis,TUMOR ASSESSMENT,,TARGET LESION 3,12.3,mm,12.3,12.3,mm,,,4.0,C2D1,TREATMENT,2024-03-20,29
VISION-NSCLC,FA,VISION-NSCLC-SITE001-0028,31,LDIAM,Longest Diameter,TUMOR ASSESSMENT,,TARGET LESION 4,49.4,mm,49.4,49.4,mm,,,4.0,C2D1,TREATMENT,2024-03-20,29
VISION-NSCLC,FA,VISION-NSCLC-SITE001-0028,32,SAXIS,Short Axis,TUMOR ASSESSMENT,,TARGET LESION 4,12.2,mm,12.2,12.2,mm,,,4.0,C2D1,TREATMENT,2024-03-20,29
VISION-NSCLC,FA,VISION-NSCLC-SITE001-0028,33,LDIAM,Longest Diameter,TUMOR ASSESSMENT,,TARGET LESION 1,28.2,mm,28.2,28.2,mm,,,5.0,C3D1,TREATMENT,2024-04-17,57
VISION-NSCLC,FA,VISION-NSCLC-SITE001-0028,34,SAXIS,Short Axis,TUMOR ASSESSMENT,,TARGET LESION 1,8.4,mm,8.4,8.4,mm,,,5.0,C3D1,TREATMENT,2024-04-17,57
VISION-NSCLC,FA,VISION-NSCLC-SITE001-0028,35,LDIAM,Longest Diameter,TUMOR ASSESSMENT,,TARGET LESION 2,44.7,mm,44.7,44.7,mm,,,5.0,C3D1,TREATMENT,2024-04-17,57
VISION-NSCLC,FA,VISION-NSCLC-SITE001-0028,36,SAXIS,Short Axis,TUMOR ASSESSMENT,,TARGET LESION 2,17.0,mm,17.0,17.0,mm,,,5.0,C3D1,TREATMENT,2024-04-17,57
VISION-NSCLC,FA,VISION-NSCLC-SITE001-0028,37,LDIAM,Longest Diameter,TUMOR ASSESSMENT,,TARGET LESION 3,23.4,mm,23.4,23.4,mm,,,5.0,C3D1,TREATMENT,2024-04-17,57
VISION-NSCLC,FA,VISION-NSCLC-SITE001-0028,38,SAXIS,Short Axis,TUMOR ASSESSMENT,,TARGET LESION 3,10.9,mm,10.9,10.9,mm,,,5.0,C3D1,TREATMENT,2024-04-17,57
VISION-NSCLC,FA,VISION-NSCLC-SITE001-0028,39,LDIAM,Longest Diameter,TUMOR ASSESSMENT,,TARGET LESION 4,47.5,mm,47.5,47.5,mm,,,5.0,C3D1,TREATMENT,2024-04-17,57
VISION-NSCLC,FA,VISION-NSCLC-SITE001-0028,40,SAXIS,Short Axis,TUMOR ASSESSMENT,,TARGET LESION 4,11.9,mm,11.9,11.9,mm,,,5.0,C3D1,TREATMENT,2024-04-17,57
VISION-NSCLC,FA,VISION-NSCLC-SITE001-0028,41,LDIAM,Longest Diameter,TUMOR ASSESSMENT,,TARGET LESION 1,27.9,mm,27.9,27.9,mm,,,6.0,C4D1,TREATMENT,2024-05-15,85
VISION-NSCLC,FA,VISION-NSCLC-SITE001-0028,42,SAXIS,Short Axis,TUMOR ASSESSMENT,,TARGET LESION 1,7.6,mm,7.6,7.6,mm,,,6.0,C4D1,TREATMENT,2024-05-15,85
VISION-NSCLC,FA,VISION-NSCLC-SITE001-0028,43,LDIAM,Longest Diameter,TUMOR ASSESSMENT,,TARGET LESION 2,39.4,mm,39.4,39.4,mm,,,6.0,C4D1,TREATMENT,2024-05-15,85
VISION-NSCLC,FA,VISION-NSCLC-SITE001-0028,44,SAXIS,Short Axis,TUMOR ASSESSMENT,,TARGET LESION 2,15.4,mm,15.4,15.4,mm,,,6.0,C4D1,TREATMENT,2024-05-15,85
VISION-NSCLC,FA,VISION-NSCLC-SITE001-0028,45,LDIAM,Longest Diameter,TUMOR ASSESSMENT,,TARGET LESION 3,21.2,mm,21.2,21.2,mm,,,6.0,C4D1,TREATMENT,2024-05-15,85
VISION-NSCLC,FA,VISION-NSCLC-SITE001-0028,46,SAXIS,Short Axis,TUMOR ASSESSMENT,,TARGET LESION 3,10.7,mm,10.7,10.7,mm,,,6.0,C4D1,TREATMENT,2024-05-15,85
VISION-NSCLC,FA,VISION-NSCLC-SITE001-0028,47,LDIAM,Longest Diameter,TUMOR ASSESSMENT,,TARGET LESION 4,43.5,mm,43.5,43.5,mm,,,6.0,C4D1,TREATMENT,2024-05-15,85
VISION-NSCLC,FA,VISION-NSCLC-SITE001-0028,48,SAXIS,Short Axis,TUMOR ASSESSMENT,,TARGET LESION 4,11.3,mm,11.3,11.3,mm,,,6.0,C4D1,TREATMENT,2024-05-15,85
VISION-NSCLC,FA,VISION-NSCLC-SITE001-0028,49,LDIAM,Longest Diameter,TUMOR ASSESSMENT,,TARGET LESION 1,26.3,mm,26.3,26.3,mm,,,7.0,C6D1,TREATMENT,2024-07-10,141
VISION-NSCLC,FA,VISION-NSCLC-SITE001-0028,50,SAXIS,Short Axis,TUMOR ASSESSMENT,,TARGET LESION 1,7.5,mm,7.5,7.5,mm,,,7.0,C6D1,TREATMENT,2024-07-10,141
VISION-NSCLC,FA,VISION-NSCLC-SITE001-0028,51,LDIAM,Longest Diameter,TUMOR ASSESSMENT,,TARGET LESION 2,36.2,mm,36.2,36.2,mm,,,7.0,C6D1,TREATMENT,2024-07-10,141
VISION-NSCLC,FA,VISION-NSCLC-SITE001-0028,52,SAXIS,Short Axis,TUMOR ASSESSMENT,,TARGET LESION 2,14.4,mm,14.4,14.4,mm,,,7.0,C6D1,TREATMENT,2024-07-10,141
VISION-NSCLC,FA,VISION-NSCLC-SITE001-0028,53,LDIAM,Longest Diameter,TUMOR ASSESSMENT,,TARGET LESION 3,16.9,mm,16.9,16.9,mm,,,7.0,C6D1,TREATMENT,2024-07-10,141
VISION-NSCLC,FA,VISION-NSCLC-SITE001-0028,54,SAXIS,Short Axis,TUMOR ASSESSMENT,,TARGET LESION 3,9.8,mm,9.8,9.8,mm,,,7.0,C6D1,TREATMENT,2024-07-10,141
VISION-NSCLC,FA,VISION-NSCLC-SITE001-0028,55,LDIAM,Longest Diameter,TUMOR ASSESSMENT,,TARGET LESION 4,41.7,mm,41.7,41.7,mm,,,7.0,C6D1,TREATMENT,2024-07-10,141
VISION-NSCLC,FA,VISION-NSCLC-SITE001-0028,56,SAXIS,Short Axis,TUMOR ASSESSMENT,,TARGET LESION 4,9.8,mm,9.8,9.8,mm,,,7.0,C6D1,TREATMENT,2024-07-10,141
VISION-NSCLC,FA,VISION-NSCLC-SITE001-0028,57,LDIAM,Longest Diameter,TUMOR ASSESSMENT,,TARGET LESION 1,24.0,mm,24.0,24.0,mm,,,8.0,EOT,FOLLOW-UP,2024-08-07,169
VISION-NSCLC,FA,VISION-NSCLC-SITE001-0028,58,SAXIS,Short Axis,TUMOR ASSESSMENT,,TARGET LESION 1,6.9,mm,6.9,6.9,mm,,,8.0,EOT,FOLLOW-UP,2024-08-07,169
VISION-NSCLC,FA,VISION-NSCLC-SITE001-0028,59,LDIAM,Longest Diameter,TUMOR ASSESSMENT,,TARGET LESION 2,33.2,mm,33.2,33.2,mm,,,8.0,EOT,FOLLOW-UP,2024-08-07,169
VISION-NSCLC,FA,VISION-NSCLC-SITE001-0028,60,SAXIS,Short Axis,TUMOR ASSESSMENT,,TARGET LESION 2,13.0,mm,13.0,13.0,mm,,,8.0,EOT,FOLLOW-UP,2024-08-07,169
VISION-NSCLC,FA,VISION-NSCLC-SITE001-0028,61,LDIAM,Longest Diameter,TUMOR ASSESSMENT,,TARGET LESION 3,19.4,mm,19.4,19.4,mm,,,8.0,EOT,FOLLOW-UP,2024-08-07,169
VISION-NSCLC,FA,VISION-NSCLC-SITE001-0028,62,SAXIS,Short Axis,TUMOR ASSESSMENT,,TARGET LESION 3,7.9,mm,7.9,7.9,mm,,,8.0,EOT,FOLLOW-UP,2024-08-07,169
VISION-NSCLC,FA,VISION-NSCLC-SITE001-0028,63,LDIAM,Longest Diameter,TUMOR ASSESSMENT,,TARGET LESION 4,34.9,mm,34.9,34.9,mm,,,8.0,EOT,FOLLOW-UP,2024-08-07,169
VISION-NSCLC,FA,VISION-NSCLC-SITE001-0028,64,SAXIS,Short Axis,TUMOR ASSESSMENT,,TARGET LESION 4,9.0,mm,9.0,9.0,mm,,,8.0,EOT,FOLLOW-UP,2024-08-07,169
VISION-NSCLC,FA,VISION-NSCLC-SITE001-0031,1,LDIAM,Longest Diameter,TUMOR ASSESSMENT,,TARGET LESION 1,28.7,mm,28.7,28.7,mm,,Y,1.0,SCREENING,SCREENING,2024-02-02,-33
VISION-NSCLC,FA,VISION-NSCLC-SITE001-0031,2,SAXIS,Short Axis,TUMOR ASSESSMENT,,TARGET LESION 1,17.9,mm,17.9,17.9,mm,,Y,1.0,SCREENING,SCREENING,2024-02-02,-33
VISION-NSCLC,FA,VISION-NSCLC-SITE001-0031,3,LDIAM,Longest Diameter,TUMOR ASSESSMENT,,TARGET LESION 1,25.7,mm,25.7,25.7,mm,,,2.0,C1D1,TREATMENT,2024-03-06,1
VISION-NSCLC,FA,VISION-NSCLC-SITE001-0031,4,SAXIS,Short Axis,TUMOR ASSESSMENT,,TARGET LESION 1,16.6,mm,16.6,16.6,mm,,,2.0,C1D1,TREATMENT,2024-03-06,1
VISION-NSCLC,FA,VISION-NSCLC-SITE001-0031,5,LDIAM,Longest Diameter,TUMOR ASSESSMENT,,TARGET LESION 1,24.0,mm,24.0,24.0,mm,,,3.0,C1D15,TREATMENT,2024-03-20,15
VISION-NSCLC,FA,VISION-NSCLC-SITE001-0031,6,SAXIS,Short Axis,TUMOR ASSESSMENT,,TARGET LESION 1,16.2,mm,16.2,16.2,mm,,,3.0,C1D15,TREATMENT,2024-03-20,15
VISION-NSCLC,FA,VISION-NSCLC-SITE001-0031,7,LDIAM,Longest Diameter,TUMOR ASSESSMENT,,TARGET LESION 1,25.7,mm,25.7,25.7,mm,,,4.0,C2D1,TREATMENT,2024-04-03,29
VISION-NSCLC,FA,VISION-NSCLC-SITE001-0031,8,SAXIS,Short Axis,TUMOR ASSESSMENT,,TARGET LESION 1,14.9,mm,14.9,14.9,mm,,,4.0,C2D1,TREATMENT,2024-04-03,29
VISION-NSCLC,FA,VISION-NSCLC-SITE001-0031,9,LDIAM,Longest Diameter,TUMOR ASSESSMENT,,TARGET LESION 1,19.9,mm,19.9,19.9,mm,,,5.0,C3D1,TREATMENT,2024-05-01,57
VISION-NSCLC,FA,VISION-NSCLC-SITE001-0031,10,SAXIS,Short Axis,TUMOR ASSESSMENT,,TARGET LESION 1,13.4,mm,13.4,13.4,mm,,,5.0,C3D1,TREATMENT,2024-05-01,57
VISION-NSCLC,FA,VISION-NSCLC-SITE001-0031,11,LDIAM,Longest Diameter,TUMOR ASSESSMENT,,TARGET LESION 1,19.0,mm,19.0,19.0,mm,,,6.0,C4D1,TREATMENT,2024-05-29,85
VISION-NSCLC,FA,VISION-NSCLC-SITE001-0031,12,SAXIS,Short Axis,TUMOR ASSESSMENT,,TARGET LESION 1,13.2,mm,13.2,13.2,mm,,,6.0,C4D1,TREATMENT,2024-05-29,85
VISION-NSCLC,FA,VISION-NSCLC-SITE001-0031,13,LDIAM,Longest Diameter,TUMOR ASSESSMENT,,TARGET LESION 1,19.4,mm,19.4,19.4,mm,,,7.0,C6D1,TREATMENT,2024-07-24,141
VISION-NSCLC,FA,VISION-NSCLC-SITE001-0031,14,SAXIS,Short Axis,TUMOR ASSESSMENT,,TARGET LESION 1,11.8,mm,11.8,11.8,mm,,,7.0,C6D1,TREATMENT,2024-07-24,141
VISION-NSCLC,FA,VISION-NSCLC-SITE001-0031,15,LDIAM,Longest Diameter,TUMOR ASSESSMENT,,TARGET LESION 1,17.3,mm,17.3,17.3,mm,,,8.0,EOT,FOLLOW-UP,2024-08-21,169
VISION-NSCLC,FA,VISION-NSCLC-SITE001-0031,16,SAXIS,Short Axis,TUMOR ASSESSMENT,,TARGET LESION 1,11.2,mm,11.2,11.2,mm,,,8.0,EOT,FOLLOW-UP,2024-08-21,169
VISION-NSCLC,FA,VISION-NSCLC-SITE001-0034,1,LDIAM,Longest Diameter,TUMOR ASSESSMENT,,TARGET LESION 1,65.6,mm,65.6,65.6,mm,,Y,1.0,SCREENING,SCREENING,2024-02-18,-14
VISION-NSCLC,FA,VISION-NSCLC-SITE001-0034,2,SAXIS,Short Axis,TUMOR ASSESSMENT,,TARGET LESION 1,16.0,mm,16.0,16.0,mm,,Y,1.0,SCREENING,SCREENING,2024-02-18,-14
VISION-NSCLC,FA,VISION-NSCLC-SITE001-0034,3,LDIAM,Longest Diameter,TUMOR ASSESSMENT,,TARGET LESION 2,54.5,mm,54.5,54.5,mm,,Y,1.0,SCREENING,SCREENING,2024-02-18,-14
VISION-NSCLC,FA,VISION-NSCLC-SITE001-0034,4,SAXIS,Short Axis,TUMOR ASSESSMENT,,TARGET LESION 2,15.9,mm,15.9,15.9,mm,,Y,1.0,SCREENING,SCREENING,2024-02-18,-14
VISION-NSCLC,FA,VISION-NSCLC-SITE001-0034,5,LDIAM,Longest Diameter,TUMOR ASSESSMENT,,TARGET LESION 3,61.3,mm,61.3,61.3,mm,,Y,1.0,SCREENING,SCREENING,2024-02-18,-14
VISION-NSCLC,FA,VISION-NSCLC-SITE001-0034,6,SAXIS,Short Axis,TUMOR ASSESSMENT,,TARGET LESION 3,6.2,mm,6.2,6.2,mm,,Y,1.0,SCREENING,SCREENING,2024-02-18,-14
VISION-NSCLC,FA,VISION-NSCLC-SITE001-0034,7,LDIAM,Longest Diameter,TUMOR ASSESSMENT,,TARGET LESION 1,80.3,mm,80.3,80.3,mm,,,2.0,C1D1,TREATMENT,2024-03-03,1
VISION-NSCLC,FA,VISION-NSCLC-SITE001-0034,8,SAXIS,Short Axis,TUMOR ASSESSMENT,,TARGET LESION 1,18.9,mm,18.9,18.9,mm,,,2.0,C1D1,TREATMENT,2024-03-03,1
VISION-NSCLC,FA,VISION-NSCLC-SITE001-0034,9,LDIAM,Longest Diameter,TUMOR ASSESSMENT,,TARGET LESION 2,67.1,mm,67.1,67.1,mm,,,2.0,C1D1,TREATMENT,2024-03-03,1
VISION-NSCLC,FA,VISION-NSCLC-SITE001-0034,10,SAXIS,Short Axis,TUMOR ASSESSMENT,,TARGET LESION 2,19.4,mm,19.4,19.4,mm,,,2.0,C1D1,TREATMENT,2024-03-03,1
VISION-NSCLC,FA,VISION-NSCLC-SITE001-0034,11,LDIAM,Longest Diameter,TUMOR ASSESSMENT,,TARGET LESION 3,74.5,mm,74.5,74.5,mm,,,2.0,C1D1,TREATMENT,2024-03-03,1
VISION-NSCLC,FA,VISION-NSCLC-SITE001-0034,12,SAXIS,Short Axis,TUMOR ASSESSMENT,,TARGET LESION 3,7.3,mm,7.3,7.3,mm,,,2.0,C1D1,TREATMENT,2024-03-03,1
VISION-NSCLC,FA,VISION-NSCLC-SITE001-0037,1,LDIAM,Longest Diameter,TUMOR ASSESSMENT,,TARGET LESION 1,34.5,mm,34.5,34.5,mm,,Y,1.0,SCREENING,SCREENING,2024-03-11,-13
VISION-NSCLC,FA,VISION-NSCLC-SITE001-0037,2,SAXIS,Short Axis,TUMOR ASSESSMENT,,TARGET LESION 1,5.7,mm,5.7,5.7,mm,,Y,1.0,SCREENING,SCREENING,2024-03-11,-13
VISION-NSCLC,FA,VISION-NSCLC-SITE001-0037,3,LDIAM,Longest Diameter,TUMOR ASSESSMENT,,TARGET LESION 2,47.9,mm,47.9,47.9,mm,,Y,1.0,SCREENING,SCREENING,2024-03-11,-13
VISION-NSCLC,FA,VISION-NSCLC-SITE001-0037,4,SAXIS,Short Axis,TUMOR ASSESSMENT,,TARGET LESION 2,9.9,mm,9.9,9.9,mm,,Y,1.0,SCREENING,SCREENING,2024-03-11,-13
VISION-NSCLC,FA,VISION-NSCLC-SITE001-0037,5,LDIAM,Longest Diameter,TUMOR ASSESSMENT,,TARGET LESION 1,32.5,mm,32.5,32.5,mm,,,2.0,C1D1,TREATMENT,2024-03-24,1
VISION-NSCLC,FA,VISION-NSCLC-SITE001-0037,6,SAXIS,Short Axis,TUMOR ASSESSMENT,,TARGET LESION 1,5.2,mm,5.2,5.2,mm,,,2.0,C1D1,TREATMENT,2024-03-24,1
VISION-NSCLC,FA,VISION-NSCLC-SITE001-0037,7,LDIAM,Longest Diameter,TUMOR ASSESSMENT,,TARGET LESION 2,48.0,mm,48.0,48.0,mm,,,2.0,C1D1,TREATMENT,2024-03-24,1
VISION-NSCLC,FA,VISION-NSCLC-SITE001-0037,8,SAXIS,Short Axis,TUMOR ASSESSMENT,,TARGET LESION 2,9.8,mm,9.8,9.8,mm,,,2.0,C1D1,TREATMENT,2024-03-24,1
VISION-NSCLC,FA,VISION-NSCLC-SITE001-0037,9,LDIAM,Longest Diameter,TUMOR ASSESSMENT,,TARGET LESION 1,33.9,mm,33.9,33.9,mm,,,3.0,C1D15,TREATMENT,2024-04-07,15
VISION-NSCLC,FA,VISION-NSCLC-SITE001-0037,10,SAXIS,Short Axis,TUMOR ASSESSMENT,,TARGET LESION 1,5.3,mm,5.3,5.3,mm,,,3.0,C1D15,TREATMENT,2024-04-07,15
VISION-NSCLC,FA,VISION-NSCLC-SITE001-0037,11,LDIAM,Longest Diameter,TUMOR ASSESSMENT,,TARGET LESION 2,47.4,mm,47.4,47.4,mm,,,3.0,C1D15,TREATMENT,2024-04-07,15
VISION-NSCLC,FA,VISION-NSCLC-SITE001-0037,12,SAXIS,Short Axis,TUMOR ASSESSMENT,,TARGET LESION 2,9.6,mm,9.6,9.6,mm,,,3.0,C1D15,TREATMENT,2024-04-07,15
VISION-NSCLC,FA,VISION-NSCLC-SITE001-0037,13,LDIAM,Longest Diameter,TUMOR ASSESSMENT,,TARGET LESION 1,34.1,mm,34.1,34.1,mm,,,4.0,C2D1,TREATMENT,2024-04-21,29
VISION-NSCLC,FA,VISION-NSCLC-SITE001-0037,14,SAXIS,Short Axis,TUMOR ASSESSMENT,,TARGET LESION 1,5.2,mm,5.2,5.2,mm,,,4.0,C2D1,TREATMENT,2024-04-21,29
VISION-NSCLC,FA,VISION-NSCLC-SITE001-0037,15,LDIAM,Longest Diameter,TUMOR ASSESSMENT,,TARGET LESION 2,47.1,mm,47.1,47.1,mm,,,4.0,C2D1,TREATMENT,2024-04-21,29
VISION-NSCLC,FA,VISION-NSCLC-SITE001-0037,16,SAXIS,Short Axis,TUMOR ASSESSMENT,,TARGET LESION 2,9.7,mm,9.7,9.7,mm,,,4.0,C2D1,TREATMENT,2024-04-21,29
VISION-NSCLC,FA,VISION-NSCLC-SITE001-0037,17,LDIAM,Longest Diameter,TUMOR ASSESSMENT,,TARGET LESION 1,35.7,mm,35.7,35.7,mm,,,5.0,C3D1,TREATMENT,2024-05-19,57
VISION-NSCLC,FA,VISION-NSCLC-SITE001-0037,18,SAXIS,Short Axis,TUMOR ASSESSMENT,,TARGET LESION 1,5.2,mm,5.2,5.2,mm,,,5.0,C3D1,TREATMENT,2024-05-19,57
VISION-NSCLC,FA,VISION-NSCLC-SITE001-0037,19,LDIAM,Longest Diameter,TUMOR ASSESSMENT,,TARGET LESION 2,47.4,mm,47.4,47.4,mm,,,5.0,C3D1,TREATMENT,2024-05-19,57
VISION-NSCLC,FA,VISION-NSCLC-SITE001-0037,20,SAXIS,Short Axis,TUMOR ASSESSMENT,,TARGET LESION 2,9.4,mm,9.4,9.4,mm,,,5.0,C3D1,TREATMENT,2024-05-19,57
VISION-NSCLC,FA,VISION-NSCLC-SITE001-0037,21,LDIAM,Longest Diameter,TUMOR ASSESSMENT,,TARGET LESION 1,36.1,mm,36.1,36.1,mm,,,6.0,C4D1,TREATMENT,2024-06-16,85
VISION-NSCLC,FA,VISION-NSCLC-SITE001-0037,22,SAXIS,Short Axis,TUMOR ASSESSMENT,,TARGET LESION 1,5.8,mm,5.8,5.8,mm,,,6.0,C4D1,TREATMENT,2024-06-16,85
VISION-NSCLC,FA,VISION-NSCLC-SITE001-0037,23,LDIAM,Longest Diameter,TUMOR ASSESSMENT,,TARGET LESION 2,44.5,mm,44.5,44.5,mm,,,6.0,C4D1,TREATMENT,2024-06-16,85
VISION-NSCLC,FA,VISION-NSCLC-SITE001-0037,24,SAXIS,Short Axis,TUMOR ASSESSMENT,,TARGET LESION 2,9.6,mm,9.6,9.6,mm,,,6.0,C4D1,TREATMENT,2024-06-16,85
VISION-NSCLC,FA,VISION-NSCLC-SITE001-0037,25,LDIAM,Longest Diameter,TUMOR ASSESSMENT,,TARGET LESION 1,29.7,mm,29.7,29.7,mm,,,7.0,C6D1,TREATMENT,2024-08-11,141
VISION-NSCLC,FA,VISION-NSCLC-SITE001-0037,26,SAXIS,Short Axis,TUMOR ASSESSMENT,,TARGET LESION 1,5.6,mm,5.6,5.6,mm,,,7.0,C6D1,TREATMENT,2024-08-11,141
VISION-NSCLC,FA,VISION-NSCLC-SITE001-0037,27,LDIAM,Longest Diameter,TUMOR ASSESSMENT,,TARGET LESION 2,46.4,mm,46.4,46.4,mm,,,7.0,C6D1,TREATMENT,2024-08-11,141
VISION-NSCLC,FA,VISION-NSCLC-SITE001-0037,28,SAXIS,Short Axis,TUMOR ASSESSMENT,,TARGET LESION 2,8.9,mm,8.9,8.9,mm,,,7.0,C6D1,TREATMENT,2024-08-11,141
VISION-NSCLC,FA,VISION-NSCLC-SITE001-0037,29,LDIAM,Longest Diameter,TUMOR ASSESSMENT,,TARGET LESION 1,33.7,mm,33.7,33.7,mm,,,8.0,EOT,FOLLOW-UP,2024-09-08,169
VISION-NSCLC,FA,VISION-NSCLC-SITE001-0037,30,SAXIS,Short Axis,TUMOR ASSESSMENT,,TARGET LESION 1,5.2,mm,5.2,5.2,mm,,,8.0,EOT,FOLLOW-UP,2024-09-08,169
VISION-NSCLC,FA,VISION-NSCLC-SITE001-0037,31,LDIAM,Longest Diameter,TUMOR ASSESSMENT,,TARGET LESION 2,48.0,mm,48.0,48.0,mm,,,8.0,EOT,FOLLOW-UP,2024-09-08,169
VISION-NSCLC,FA,VISION-NSCLC-SITE001-0037,32,SAXIS,Short Axis,TUMOR ASSESSMENT,,TARGET LESION 2,9.6,mm,9.6,9.6,mm,,,8.0,EOT,FOLLOW-UP,2024-09-08,169
VISION-NSCLC,FA,VISION-NSCLC-SITE001-0040,1,LDIAM,Longest Diameter,TUMOR ASSESSMENT,,TARGET LESION 1,41.9,mm,41.9,41.9,mm,,Y,1.0,SCREENING,SCREENING,2024-03-14,-19
VISION-NSCLC,FA,VISION-NSCLC-SITE001-0040,2,SAXIS,Short Axis,TUMOR ASSESSMENT,,TARGET LESION 1,11.5,mm,11.5,11.5,mm,,Y,1.0,SCREENING,SCREENING,2024-03-14,-19
VISION-NSCLC,FA,VISION-NSCLC-SITE001-0040,3,LDIAM,Longest Diameter,TUMOR ASSESSMENT,,TARGET LESION 1,28.2,mm,28.2,28.2,mm,,,2.0,C1D1,TREATMENT,2024-04-02,1
VISION-NSCLC,FA,VISION-NSCLC-SITE001-0040,4,SAXIS,Short Axis,TUMOR ASSESSMENT,,TARGET LESION 1,6.6,mm,6.6,6.6,mm,,,2.0,C1D1,TREATMENT,2024-04-02,1
VISION-NSCLC,FA,VISION-NSCLC-SITE001-0043,1,LDIAM,Longest Diameter,TUMOR ASSESSMENT,,TARGET LESION 1,37.7,mm,37.7,37.7,mm,,Y,1.0,SCREENING,SCREENING,2024-03-14,-12
VISION-NSCLC,FA,VISION-NSCLC-SITE001-0043,2,SAXIS,Short Axis,TUMOR ASSESSMENT,,TARGET LESION 1,9.0,mm,9.0,9.0,mm,,Y,1.0,SCREENING,SCREENING,2024-03-14,-12
VISION-NSCLC,FA,VISION-NSCLC-SITE001-0043,3,LDIAM,Longest Diameter,TUMOR ASSESSMENT,,TARGET LESION 2,37.6,mm,37.6,37.6,mm,,Y,1.0,SCREENING,SCREENING,2024-03-14,-12
VISION-NSCLC,FA,VISION-NSCLC-SITE001-0043,4,SAXIS,Short Axis,TUMOR ASSESSMENT,,TARGET LESION 2,8.6,mm,8.6,8.6,mm,,Y,1.0,SCREENING,SCREENING,2024-03-14,-12
VISION-NSCLC,FA,VISION-NSCLC-SITE001-0043,5,LDIAM,Longest Diameter,TUMOR ASSESSMENT,,TARGET LESION 3,41.3,mm,41.3,41.3,mm,,Y,1.0,SCREENING,SCREENING,2024-03-14,-12
VISION-NSCLC,FA,VISION-NSCLC-SITE001-0043,6,SAXIS,Short Axis,TUMOR ASSESSMENT,,TARGET LESION 3,8.7,mm,8.7,8.7,mm,,Y,1.0,SCREENING,SCREENING,2024-03-14,-12
VISION-NSCLC,FA,VISION-NSCLC-SITE001-0043,7,LDIAM,Longest Diameter,TUMOR ASSESSMENT,,TARGET LESION 4,26.6,mm,26.6,26.6,mm,,Y,1.0,SCREENING,SCREENING,2024-03-14,-12
VISION-NSCLC,FA,VISION-NSCLC-SITE001-0043,8,SAXIS,Short Axis,TUMOR ASSESSMENT,,TARGET LESION 4,17.7,mm,17.7,17.7,mm,,Y,1.0,SCREENING,SCREENING,2024-03-14,-12
VISION-NSCLC,FA,VISION-NSCLC-SITE001-0043,9,LDIAM,Longest Diameter,TUMOR ASSESSMENT,,TARGET LESION 5,26.3,mm,26.3,26.3,mm,,Y,1.0,SCREENING,SCREENING,2024-03-14,-12
VISION-NSCLC,FA,VISION-NSCLC-SITE001-0043,10,SAXIS,Short Axis,TUMOR ASSESSMENT,,TARGET LESION 5,18.3,mm,18.3,18.3,mm,,Y,1.0,SCREENING,SCREENING,2024-03-14,-12
VISION-NSCLC,FA,VISION-NSCLC-SITE001-0043,11,LDIAM,Longest Diameter,TUMOR ASSESSMENT,,TARGET LESION 1,39.8,mm,39.8,39.8,mm,,,2.0,C1D1,TREATMENT,2024-03-26,1
VISION-NSCLC,FA,VISION-NSCLC-SITE001-0043,12,SAXIS,Short Axis,TUMOR ASSESSMENT,,TARGET LESION 1,9.6,mm,9.6,9.6,mm,,,2.0,C1D1,TREATMENT,2024-03-26,1
VISION-NSCLC,FA,VISION-NSCLC-SITE001-0043,13,LDIAM,Longest Diameter,TUMOR ASSESSMENT,,TARGET LESION 2,37.2,mm,37.2,37.2,mm,,,2.0,C1D1,TREATMENT,2024-03-26,1
VISION-NSCLC,FA,VISION-NSCLC-SITE001-0043,14,SAXIS,Short Axis,TUMOR ASSESSMENT,,TARGET LESION 2,9.1,mm,9.1,9.1,mm,,,2.0,C1D1,TREATMENT,2024-03-26,1
VISION-NSCLC,FA,VISION-NSCLC-SITE001-0043,15,LDIAM,Longest Diameter,TUMOR ASSESSMENT,,TARGET LESION 3,42.5,mm,42.5,42.5,mm,,,2.0,C1D1,TREATMENT,2024-03-26,1
VISION-NSCLC,FA,VISION-NSCLC-SITE001-0043,16,SAXIS,Short Axis,TUMOR ASSESSMENT,,TARGET LESION 3,8.6,mm,8.6,8.6,mm,,,2.0,C1D1,TREATMENT,2024-03-26,1
VISION-NSCLC,FA,VISION-NSCLC-SITE001-0043,17,LDIAM,Longest Diameter,TUMOR ASSESSMENT,,TARGET LESION 4,26.7,mm,26.7,26.7,mm,,,2.0,C1D1,TREATMENT,2024-03-26,1
VISION-NSCLC,FA,VISION-NSCLC-SITE001-0043,18,SAXIS,Short Axis,TUMOR ASSESSMENT,,TARGET LESION 4,17.3,mm,17.3,17.3,mm,,,2.0,C1D1,TREATMENT,2024-03-26,1
VISION-NSCLC,FA,VISION-NSCLC-SITE001-0043,19,LDIAM,Longest Diameter,TUMOR ASSESSMENT,,TARGET LESION 5,25.5,mm,25.5,25.5,mm,,,2.0,C1D1,TREATMENT,2024-03-26,1
VISION-NSCLC,FA,VISION-NSCLC-SITE001-0043,20,SAXIS,Short Axis,TUMOR ASSESSMENT,,TARGET LESION 5,17.3,mm,17.3,17.3,mm,,,2.0,C1D1,TREATMENT,2024-03-26,1
VISION-NSCLC,FA,VISION-NSCLC-SITE001-0043,21,LDIAM,Longest Diameter,TUMOR ASSESSMENT,,TARGET LESION 1,38.8,mm,38.8,38.8,mm,,,3.0,C1D15,TREATMENT,2024-04-09,15
VISION-NSCLC,FA,VISION-NSCLC-SITE001-0043,22,SAXIS,Short Axis,TUMOR ASSESSMENT,,TARGET LESION 1,9.3,mm,9.3,9.3,mm,,,3.0,C1D15,TREATMENT,2024-04-09,15
VISION-NSCLC,FA,VISION-NSCLC-SITE001-0043,23,LDIAM,Longest Diameter,TUMOR ASSESSMENT,,TARGET LESION 2,34.5,mm,34.5,34.5,mm,,,3.0,C1D15,TREATMENT,2024-04-09,15
VISION-NSCLC,FA,VISION-NSCLC-SITE001-0043,24,SAXIS,Short Axis,TUMOR ASSESSMENT,,TARGET LESION 2,8.8,mm,8.8,8.8,mm,,,3.0,C1D15,TREATMENT,2024-04-09,15
VISION-NSCLC,FA,VISION-NSCLC-SITE001-0043,25,LDIAM,Longest Diameter,TUMOR ASSESSMENT,,TARGET LESION 3,42.9,mm,42.9,42.9,mm,,,3.0,C1D15,TREATMENT,2024-04-09,15
VISION-NSCLC,FA,VISION-NSCLC-SITE001-0043,26,SAXIS,Short Axis,TUMOR ASSESSMENT,,TARGET LESION 3,9.9,mm,9.9,9.9,mm,,,3.0,C1D15,TREATMENT,2024-04-09,15
VISION-NSCLC,FA,VISION-NSCLC-SITE001-0043,27,LDIAM,Longest Diameter,TUMOR ASSESSMENT,,TARGET LESION 4,22.7,mm,22.7,22.7,mm,,,3.0,C1D15,TREATMENT,2024-04-09,15
VISION-NSCLC,FA,VISION-NSCLC-SITE001-0043,28,SAXIS,Short Axis,TUMOR ASSESSMENT,,TARGET LESION 4,17.9,mm,17.9,17.9,mm,,,3.0,C1D15,TREATMENT,2024-04-09,15
VISION-NSCLC,FA,VISION-NSCLC-SITE001-0043,29,LDIAM,Longest Diameter,TUMOR ASSESSMENT,,TARGET LESION 5,24.7,mm,24.7,24.7,mm,,,3.0,C1D15,TREATMENT,2024-04-09,15
VISION-NSCLC,FA,VISION-NSCLC-SITE001-0043,30,SAXIS,Short Axis,TUMOR ASSESSMENT,,TARGET LESION 5,18.5,mm,18.5,18.5,mm,,,3.0,C1D15,TREATMENT,2024-04-09,15
VISION-NSCLC,FA,VISION-NSCLC-SITE001-0043,31,LDIAM,Longest Diameter,TUMOR ASSESSMENT,,TARGET LESION 1,38.5,mm,38.5,38.5,mm,,,4.0,C2D1,TREATMENT,2024-04-23,29
VISION-NSCLC,FA,VISION-NSCLC-SITE001-0043,32,SAXIS,Short Axis,TUMOR ASSESSMENT,,TARGET LESION 1,9.0,mm,9.0,9.0,mm,,,4.0,C2D1,TREATMENT,2024-04-23,29
VISION-NSCLC,FA,VISION-NSCLC-SITE001-0043,33,LDIAM,Longest Diameter,TUMOR ASSESSMENT,,TARGET LESION 2,36.7,mm,36.7,36.7,mm,,,4.0,C2D1,TREATMENT,2024-04-23,29
VISION-NSCLC,FA,VISION-NSCLC-SITE001-0043,34,SAXIS,Short Axis,TUMOR ASSESSMENT,,TARGET LESION 2,9.0,mm,9.0,9.0,mm,,,4.0,C2D1,TREATMENT,2024-04-23,29
VISION-NSCLC,FA,VISION-NSCLC-SITE001-0043,35,LDIAM,Longest Diameter,TUMOR ASSESSMENT,,TARGET LESION 3,38.6,mm,38.6,38.6,mm,,,4.0,C2D1,TREATMENT,2024-04-23,29
VISION-NSCLC,FA,VISION-NSCLC-SITE001-0043,36,SAXIS,Short Axis,TUMOR ASSESSMENT,,TARGET LESION 3,8.4,mm,8.4,8.4,mm,,,4.0,C2D1,TREATMENT,2024-04-23,29
VISION-NSCLC,FA,VISION-NSCLC-SITE001-0043,37,LDIAM,Longest Diameter,TUMOR ASSESSMENT,,TARGET LESION 4,26.2,mm,26.2,26.2,mm,,,4.0,C2D1,TREATMENT,2024-04-23,29
VISION-NSCLC,FA,VISION-NSCLC-SITE001-0043,38,SAXIS,Short Axis,TUMOR ASSESSMENT,,TARGET LESION 4,17.6,mm,17.6,17.6,mm,,,4.0,C2D1,TREATMENT,2024-04-23,29
VISION-NSCLC,FA,VISION-NSCLC-SITE001-0043,39,LDIAM,Longest Diameter,TUMOR ASSESSMENT,,TARGET LESION 5,26.4,mm,26.4,26.4,mm,,,4.0,C2D1,TREATMENT,2024-04-23,29
VISION-NSCLC,FA,VISION-NSCLC-SITE001-0043,40,SAXIS,Short Axis,TUMOR ASSESSMENT,,TARGET LESION 5,18.7,mm,18.7,18.7,mm,,,4.0,C2D1,TREATMENT,2024-04-23,29
VISION-NSCLC,FA,VISION-NSCLC-SITE001-0043,41,LDIAM,Longest Diameter,TUMOR ASSESSMENT,,TARGET LESION 1,38.2,mm,38.2,38.2,mm,,,5.0,C3D1,TREATMENT,2024-05-21,57
VISION-NSCLC,FA,VISION-NSCLC-SITE001-0043,42,SAXIS,Short Axis,TUMOR ASSESSMENT,,TARGET LESION 1,8.5,mm,8.5,8.5,mm,,,5.0,C3D1,TREATMENT,2024-05-21,57
VISION-NSCLC,FA,VISION-NSCLC-SITE001-0043,43,LDIAM,Longest Diameter,TUMOR ASSESSMENT,,TARGET LESION 2,33.4,mm,33.4,33.4,mm,,,5.0,C3D1,TREATMENT,2024-05-21,57
VISION-NSCLC,FA,VISION-NSCLC-SITE001-0043,44,SAXIS,Short Axis,TUMOR ASSESSMENT,,TARGET LESION 2,8.2,mm,8.2,8.2,mm,,,5.0,C3D1,TREATMENT,2024-05-21,57
VISION-NSCLC,FA,VISION-NSCLC-SITE001-0043,45,LDIAM,Longest Diameter,TUMOR ASSESSMENT,,TARGET LESION 3,39.4,mm,39.4,39.4,mm,,,5.0,C3D1,TREATMENT,2024-05-21,57
VISION-NSCLC,FA,VISION-NSCLC-SITE001-0043,46,SAXIS,Short Axis,TUMOR ASSESSMENT,,TARGET LESION 3,8.7,mm,8.7,8.7,mm,,,5.0,C3D1,TREATMENT,2024-05-21,57
VISION-NSCLC,FA,VISION-NSCLC-SITE001-0043,47,LDIAM,Longest Diameter,TUMOR ASSESSMENT,,TARGET LESION 4,24.7,mm,24.7,24.7,mm,,,5.0,C3D1,TREATMENT,2024-05-21,57
VISION-NSCLC,FA,VISION-NSCLC-SITE001-0043,48,SAXIS,Short Axis,TUMOR ASSESSMENT,,TARGET LESION 4,16.5,mm,16.5,16.5,mm,,,5.0,C3D1,TREATMENT,2024-05-21,57
VISION-NSCLC,FA,VISION-NSCLC-SITE001-0043,49,LDIAM,Longest Diameter,TUMOR ASSESSMENT,,TARGET LESION 5,27.7,mm,27.7,27.7,mm,,,5.0,C3D1,TREATMENT,2024-05-21,57
VISION-NSCLC,FA,VISION-NSCLC-SITE001-0043,50,SAXIS,Short Axis,TUMOR ASSESSMENT,,TARGET LESION 5,18.3,mm,18.3,18.3,mm,,,5.0,C3D1,TREATMENT,2024-05-21,57
VISION-NSCLC,FA,VISION-NSCLC-SITE001-0043,51,LDIAM,Longest Diameter,TUMOR ASSESSMENT,,TARGET LESION 1,36.9,mm,36.9,36.9,mm,,,6.0,C4D1,TREATMENT,2024-06-18,85
VISION-NSCLC,FA,VISION-NSCLC-SITE001-0043,52,SAXIS,Short Axis,TUMOR ASSESSMENT,,TARGET LESION 1,8.7,mm,8.7,8.7,mm,,,6.0,C4D1,TREATMENT,2024-06-18,85
VISION-NSCLC,FA,VISION-NSCLC-SITE001-0043,53,LDIAM,Longest Diameter,TUMOR ASSESSMENT,,TARGET LESION 2,36.2,mm,36.2,36.2,mm,,,6.0,C4D1,TREATMENT,2024-06-18,85
VISION-NSCLC,FA,VISION-NSCLC-SITE001-0043,54,SAXIS,Short Axis,TUMOR ASSESSMENT,,TARGET LESION 2,8.8,mm,8.8,8.8,mm,,,6.0,C4D1,TREATMENT,2024-06-18,85
VISION-NSCLC,FA,VISION-NSCLC-SITE001-0043,55,LDIAM,Longest Diameter,TUMOR ASSESSMENT,,TARGET LESION 3,37.7,mm,37.7,37.7,mm,,,6.0,C4D1,TREATMENT,2024-06-18,85
VISION-NSCLC,FA,VISION-NSCLC-SITE001-0043,56,SAXIS,Short Axis,TUMOR ASSESSMENT,,TARGET LESION 3,7.8,mm,7.8,7.8,mm,,,6.0,C4D1,TREATMENT,2024-06-18,85
VISION-NSCLC,FA,VISION-NSCLC-SITE001-0043,57,LDIAM,Longest Diameter,TUMOR ASSESSMENT,,TARGET LESION 4,24.7,mm,24.7,24.7,mm,,,6.0,C4D1,TREATMENT,2024-06-18,85
VISION-NSCLC,FA,VISION-NSCLC-SITE001-0043,58,SAXIS,Short Axis,TUMOR ASSESSMENT,,TARGET LESION 4,17.5,mm,17.5,17.5,mm,,,6.0,C4D1,TREATMENT,2024-06-18,85
VISION-NSCLC,FA,VISION-NSCLC-SITE001-0043,59,LDIAM,Longest Diameter,TUMOR ASSESSMENT,,TARGET LESION 5,28.7,mm,28.7,28.7,mm,,,6.0,C4D1,TREATMENT,2024-06-18,85
VISION-NSCLC,FA,VISION-NSCLC-SITE001-0043,60,SAXIS,Short Axis,TUMOR ASSESSMENT,,TARGET LESION 5,18.1,mm,18.1,18.1,mm,,,6.0,C4D1,TREATMENT,2024-06-18,85
VISION-NSCLC,FA,VISION-NSCLC-SITE001-0043,61,LDIAM,Longest Diameter,TUMOR ASSESSMENT,,TARGET LESION 1,35.7,mm,35.7,35.7,mm,,,7.0,C6D1,TREATMENT,2024-08-13,141
VISION-NSCLC,FA,VISION-NSCLC-SITE001-0043,62,SAXIS,Short Axis,TUMOR ASSESSMENT,,TARGET LESION 1,9.1,mm,9.1,9.1,mm,,,7.0,C6D1,TREATMENT,2024-08-13,141
VISION-NSCLC,FA,VISION-NSCLC-SITE001-0043,63,LDIAM,Longest Diameter,TUMOR ASSESSMENT,,TARGET LESION 2,38.4,mm,38.4,38.4,mm,,,7.0,C6D1,TREATMENT,2024-08-13,141
VISION-NSCLC,FA,VISION-NSCLC-SITE001-0043,64,SAXIS,Short Axis,TUMOR ASSESSMENT,,TARGET LESION 2,8.8,mm,8.8,8.8,mm,,,7.0,C6D1,TREATMENT,2024-08-13,141
VISION-NSCLC,FA,VISION-NSCLC-SITE001-0043,65,LDIAM,Longest Diameter,TUMOR ASSESSMENT,,TARGET LESION 3,38.3,mm,38.3,38.3,mm,,,7.0,C6D1,TREATMENT,2024-08-13,141
VISION-NSCLC,FA,VISION-NSCLC-SITE001-0043,66,SAXIS,Short Axis,TUMOR ASSESSMENT,,TARGET LESION 3,8.5,mm,8.5,8.5,mm,,,7.0,C6D1,TREATMENT,2024-08-13,141
VISION-NSCLC,FA,VISION-NSCLC-SITE001-0043,67,LDIAM,Longest Diameter,TUMOR ASSESSMENT,,TARGET LESION 4,26.7,mm,26.7,26.7,mm,,,7.0,C6D1,TREATMENT,2024-08-13,141
VISION-NSCLC,FA,VISION-NSCLC-SITE001-0043,68,SAXIS,Short Axis,TUMOR ASSESSMENT,,TARGET LESION 4,16.3,mm,16.3,16.3,mm,,,7.0,C6D1,TREATMENT,2024-08-13,141
VISION-NSCLC,FA,VISION-NSCLC-SITE001-0043,69,LDIAM,Longest Diameter,TUMOR ASSESSMENT,,TARGET LESION 5,21.0,mm,21.0,21.0,mm,,,7.0,C6D1,TREATMENT,2024-08-13,141
VISION-NSCLC,FA,VISION-NSCLC-SITE001-0043,70,SAXIS,Short Axis,TUMOR ASSESSMENT,,TARGET LESION 5,17.0,mm,17.0,17.0,mm,,,7.0,C6D1,TREATMENT,2024-08-13,141
VISION-NSCLC,FA,VISION-NSCLC-SITE001-0043,71,LDIAM,Longest Diameter,TUMOR ASSESSMENT,,TARGET LESION 1,34.7,mm,34.7,34.7,mm,,,8.0,EOT,FOLLOW-UP,2024-09-10,169
VISION-NSCLC,FA,VISION-NSCLC-SITE001-0043,72,SAXIS,Short Axis,TUMOR ASSESSMENT,,TARGET LESION 1,8.3,mm,8.3,8.3,mm,,,8.0,EOT,FOLLOW-UP,2024-09-10,169
VISION-NSCLC,FA,VISION-NSCLC-SITE001-0043,73,LDIAM,Longest Diameter,TUMOR ASSESSMENT,,TARGET LESION 2,35.6,mm,35.6,35.6,mm,,,8.0,EOT,FOLLOW-UP,2024-09-10,169
VISION-NSCLC,FA,VISION-NSCLC-SITE001-0043,74,SAXIS,Short Axis,TUMOR ASSESSMENT,,TARGET LESION 2,8.6,mm,8.6,8.6,mm,,,8.0,EOT,FOLLOW-UP,2024-09-10,169
VISION-NSCLC,FA,VISION-NSCLC-SITE001-0043,75,LDIAM,Longest Diameter,TUMOR ASSESSMENT,,TARGET LESION 3,41.1,mm,41.1,41.1,mm,,,8.0,EOT,FOLLOW-UP,2024-09-10,169
VISION-NSCLC,FA,VISION-NSCLC-SITE001-0043,76,SAXIS,Short Axis,TUMOR ASSESSMENT,,TARGET LESION 3,8.4,mm,8.4,8.4,mm,,,8.0,EOT,FOLLOW-UP,2024-09-10,169
VISION-NSCLC,FA,VISION-NSCLC-SITE001-0043,77,LDIAM,Longest Diameter,TUMOR ASSESSMENT,,TARGET LESION 4,22.8,mm,22.8,22.8,mm,,,8.0,EOT,FOLLOW-UP,2024-09-10,169
VISION-NSCLC,FA,VISION-NSCLC-SITE001-0043,78,SAXIS,Short Axis,TUMOR ASSESSMENT,,TARGET LESION 4,17.0,mm,17.0,17.0,mm,,,8.0,EOT,FOLLOW-UP,2024-09-10,169
VISION-NSCLC,FA,VISION-NSCLC-SITE001-0043,79,LDIAM,Longest Diameter,TUMOR ASSESSMENT,,TARGET LESION 5,25.8,mm,25.8,25.8,mm,,,8.0,EOT,FOLLOW-UP,2024-09-10,169
VISION-NSCLC,FA,VISION-NSCLC-SITE001-0043,80,SAXIS,Short Axis,TUMOR ASSESSMENT,,TARGET LESION 5,16.7,mm,16.7,16.7,mm,,,8.0,EOT,FOLLOW-UP,2024-09-10,169
VISION-NSCLC,FA,VISION-NSCLC-SITE001-0046,1,LDIAM,Longest Diameter,TUMOR ASSESSMENT,,TARGET LESION 1,44.8,mm,44.8,44.8,mm,,Y,1.0,SCREENING,SCREENING,2024-03-22,-7
VISION-NSCLC,FA,VISION-NSCLC-SITE001-0046,2,SAXIS,Short Axis,TUMOR ASSESSMENT,,TARGET LESION 1,24.4,mm,24.4,24.4,mm,,Y,1.0,SCREENING,SCREENING,2024-03-22,-7
VISION-NSCLC,FA,VISION-NSCLC-SITE001-0046,3,LDIAM,Longest Diameter,TUMOR ASSESSMENT,,TARGET LESION 2,59.3,mm,59.3,59.3,mm,,Y,1.0,SCREENING,SCREENING,2024-03-22,-7
VISION-NSCLC,FA,VISION-NSCLC-SITE001-0046,4,SAXIS,Short Axis,TUMOR ASSESSMENT,,TARGET LESION 2,8.9,mm,8.9,8.9,mm,,Y,1.0,SCREENING,SCREENING,2024-03-22,-7
VISION-NSCLC,FA,VISION-NSCLC-SITE001-0046,5,LDIAM,Longest Diameter,TUMOR ASSESSMENT,,TARGET LESION 3,47.6,mm,47.6,47.6,mm,,Y,1.0,SCREENING,SCREENING,2024-03-22,-7
VISION-NSCLC,FA,VISION-NSCLC-SITE001-0046,6,SAXIS,Short Axis,TUMOR ASSESSMENT,,TARGET LESION 3,8.5,mm,8.5,8.5,mm,,Y,1.0,SCREENING,SCREENING,2024-03-22,-7
VISION-NSCLC,FA,VISION-NSCLC-SITE001-0046,7,LDIAM,Longest Diameter,TUMOR ASSESSMENT,,TARGET LESION 4,27.4,mm,27.4,27.4,mm,,Y,1.0,SCREENING,SCREENING,2024-03-22,-7
VISION-NSCLC,FA,VISION-NSCLC-SITE001-0046,8,SAXIS,Short Axis,TUMOR ASSESSMENT,,TARGET LESION 4,16.1,mm,16.1,16.1,mm,,Y,1.0,SCREENING,SCREENING,2024-03-22,-7
VISION-NSCLC,FA,VISION-NSCLC-SITE001-0046,9,LDIAM,Longest Diameter,TUMOR ASSESSMENT,,TARGET LESION 5,28.7,mm,28.7,28.7,mm,,Y,1.0,SCREENING,SCREENING,2024-03-22,-7
VISION-NSCLC,FA,VISION-NSCLC-SITE001-0046,10,SAXIS,Short Axis,TUMOR ASSESSMENT,,TARGET LESION 5,17.5,mm,17.5,17.5,mm,,Y,1.0,SCREENING,SCREENING,2024-03-22,-7
VISION-NSCLC,FA,VISION-NSCLC-SITE001-0046,11,LDIAM,Longest Diameter,TUMOR ASSESSMENT,,TARGET LESION 1,42.8,mm,42.8,42.8,mm,,,2.0,C1D1,TREATMENT,2024-03-29,1
VISION-NSCLC,FA,VISION-NSCLC-SITE001-0046,12,SAXIS,Short Axis,TUMOR ASSESSMENT,,TARGET LESION 1,24.4,mm,24.4,24.4,mm,,,2.0,C1D1,TREATMENT,2024-03-29,1
VISION-NSCLC,FA,VISION-NSCLC-SITE001-0046,13,LDIAM,Longest Diameter,TUMOR ASSESSMENT,,TARGET LESION 2,57.9,mm,57.9,57.9,mm,,,2.0,C1D1,TREATMENT,2024-03-29,1
VISION-NSCLC,FA,VISION-NSCLC-SITE001-0046,14,SAXIS,Short Axis,TUMOR ASSESSMENT,,TARGET LESION 2,9.3,mm,9.3,9.3,mm,,,2.0,C1D1,TREATMENT,2024-03-29,1
VISION-NSCLC,FA,VISION-NSCLC-SITE001-0046,15,LDIAM,Longest Diameter,TUMOR ASSESSMENT,,TARGET LESION 3,50.0,mm,50.0,50.0,mm,,,2.0,C1D1,TREATMENT,2024-03-29,1
VISION-NSCLC,FA,VISION-NSCLC-SITE001-0046,16,SAXIS,Short Axis,TUMOR ASSESSMENT,,TARGET LESION 3,8.9,mm,8.9,8.9,mm,,,2.0,C1D1,TREATMENT,2024-03-29,1
VISION-NSCLC,FA,VISION-NSCLC-SITE001-0046,17,LDIAM,Longest Diameter,TUMOR ASSESSMENT,,TARGET LESION 4,29.3,mm,29.3,29.3,mm,,,2.0,C1D1,TREATMENT,2024-03-29,1
VISION-NSCLC,FA,VISION-NSCLC-SITE001-0046,18,SAXIS,Short Axis,TUMOR ASSESSMENT,,TARGET LESION 4,16.3,mm,16.3,16.3,mm,,,2.0,C1D1,TREATMENT,2024-03-29,1
VISION-NSCLC,FA,VISION-NSCLC-SITE001-0046,19,LDIAM,Longest Diameter,TUMOR ASSESSMENT,,TARGET LESION 5,28.3,mm,28.3,28.3,mm,,,2.0,C1D1,TREATMENT,2024-03-29,1
VISION-NSCLC,FA,VISION-NSCLC-SITE001-0046,20,SAXIS,Short Axis,TUMOR ASSESSMENT,,TARGET LESION 5,18.0,mm,18.0,18.0,mm,,,2.0,C1D1,TREATMENT,2024-03-29,1
VISION-NSCLC,FA,VISION-NSCLC-SITE001-0046,21,LDIAM,Longest Diameter,TUMOR ASSESSMENT,,TARGET LESION 1,43.0,mm,43.0,43.0,mm,,,3.0,C1D15,TREATMENT,2024-04-12,15
VISION-NSCLC,FA,VISION-NSCLC-SITE001-0046,22,SAXIS,Short Axis,TUMOR ASSESSMENT,,TARGET LESION 1,23.8,mm,23.8,23.8,mm,,,3.0,C1D15,TREATMENT,2024-04-12,15
VISION-NSCLC,FA,VISION-NSCLC-SITE001-0046,23,LDIAM,Longest Diameter,TUMOR ASSESSMENT,,TARGET LESION 2,59.1,mm,59.1,59.1,mm,,,3.0,C1D15,TREATMENT,2024-04-12,15
VISION-NSCLC,FA,VISION-NSCLC-SITE001-0046,24,SAXIS,Short Axis,TUMOR ASSESSMENT,,TARGET LESION 2,8.9,mm,8.9,8.9,mm,,,3.0,C1D15,TREATMENT,2024-04-12,15
VISION-NSCLC,FA,VISION-NSCLC-SITE001-0046,25,LDIAM,Longest Diameter,TUMOR ASSESSMENT,,TARGET LESION 3,47.0,mm,47.0,47.0,mm,,,3.0,C1D15,TREATMENT,2024-04-12,15
VISION-NSCLC,FA,VISION-NSCLC-SITE001-0046,26,SAXIS,Short Axis,TUMOR ASSESSMENT,,TARGET LESION 3,8.7,mm,8.7,8.7,mm,,,3.0,C1D15,TREATMENT,2024-04-12,15
VISION-NSCLC,FA,VISION-NSCLC-SITE001-0046,27,LDIAM,Longest Diameter,TUMOR ASSESSMENT,,TARGET LESION 4,25.8,mm,25.8,25.8,mm,,,3.0,C1D15,TREATMENT,2024-04-12,15
VISION-NSCLC,FA,VISION-NSCLC-SITE001-0046,28,SAXIS,Short Axis,TUMOR ASSESSMENT,,TARGET LESION 4,16.0,mm,16.0,16.0,mm,,,3.0,C1D15,TREATMENT,2024-04-12,15
VISION-NSCLC,FA,VISION-NSCLC-SITE001-0046,29,LDIAM,Longest Diameter,TUMOR ASSESSMENT,,TARGET LESION 5,30.4,mm,30.4,30.4,mm,,,3.0,C1D15,TREATMENT,2024-04-12,15
VISION-NSCLC,FA,VISION-NSCLC-SITE001-0046,30,SAXIS,Short Axis,TUMOR ASSESSMENT,,TARGET LESION 5,17.6,mm,17.6,17.6,mm,,,3.0,C1D15,TREATMENT,2024-04-12,15
VISION-NSCLC,FA,VISION-NSCLC-SITE001-0046,31,LDIAM,Longest Diameter,TUMOR ASSESSMENT,,TARGET LESION 1,43.6,mm,43.6,43.6,mm,,,4.0,C2D1,TREATMENT,2024-04-26,29
VISION-NSCLC,FA,VISION-NSCLC-SITE001-0046,32,SAXIS,Short Axis,TUMOR ASSESSMENT,,TARGET LESION 1,23.4,mm,23.4,23.4,mm,,,4.0,C2D1,TREATMENT,2024-04-26,29
VISION-NSCLC,FA,VISION-NSCLC-SITE001-0046,33,LDIAM,Longest Diameter,TUMOR ASSESSMENT,,TARGET LESION 2,58.5,mm,58.5,58.5,mm,,,4.0,C2D1,TREATMENT,2024-04-26,29
VISION-NSCLC,FA,VISION-NSCLC-SITE001-0046,34,SAXIS,Short Axis,TUMOR ASSESSMENT,,TARGET LESION 2,7.9,mm,7.9,7.9,mm,,,4.0,C2D1,TREATMENT,2024-04-26,29
VISION-NSCLC,FA,VISION-NSCLC-SITE001-0046,35,LDIAM,Longest Diameter,TUMOR ASSESSMENT,,TARGET LESION 3,47.0,mm,47.0,47.0,mm,,,4.0,C2D1,TREATMENT,2024-04-26,29
VISION-NSCLC,FA,VISION-NSCLC-SITE001-0046,36,SAXIS,Short Axis,TUMOR ASSESSMENT,,TARGET LESION 3,7.3,mm,7.3,7.3,mm,,,4.0,C2D1,TREATMENT,2024-04-26,29
VISION-NSCLC,FA,VISION-NSCLC-SITE001-0046,37,LDIAM,Longest Diameter,TUMOR ASSESSMENT,,TARGET LESION 4,25.5,mm,25.5,25.5,mm,,,4.0,C2D1,TREATMENT,2024-04-26,29
VISION-NSCLC,FA,VISION-NSCLC-SITE001-0046,38,SAXIS,Short Axis,TUMOR ASSESSMENT,,TARGET LESION 4,15.3,mm,15.3,15.3,mm,,,4.0,C2D1,TREATMENT,2024-04-26,29
VISION-NSCLC,FA,VISION-NSCLC-SITE001-0046,39,LDIAM,Longest Diameter,TUMOR ASSESSMENT,,TARGET LESION 5,28.8,mm,28.8,28.8,mm,,,4.0,C2D1,TREATMENT,2024-04-26,29
VISION-NSCLC,FA,VISION-NSCLC-SITE001-0046,40,SAXIS,Short Axis,TUMOR ASSESSMENT,,TARGET LESION 5,16.0,mm,16.0,16.0,mm,,,4.0,C2D1,TREATMENT,2024-04-26,29
VISION-NSCLC,FA,VISION-NSCLC-SITE001-0046,41,LDIAM,Longest Diameter,TUMOR ASSESSMENT,,TARGET LESION 1,42.0,mm,42.0,42.0,mm,,,5.0,C3D1,TREATMENT,2024-05-24,57
VISION-NSCLC,FA,VISION-NSCLC-SITE001-0046,42,SAXIS,Short Axis,TUMOR ASSESSMENT,,TARGET LESION 1,23.1,mm,23.1,23.1,mm,,,5.0,C3D1,TREATMENT,2024-05-24,57
VISION-NSCLC,FA,VISION-NSCLC-SITE001-0046,43,LDIAM,Longest Diameter,TUMOR ASSESSMENT,,TARGET LESION 2,58.4,mm,58.4,58.4,mm,,,5.0,C3D1,TREATMENT,2024-05-24,57
VISION-NSCLC,FA,VISION-NSCLC-SITE001-0046,44,SAXIS,Short Axis,TUMOR ASSESSMENT,,TARGET LESION 2,9.2,mm,9.2,9.2,mm,,,5.0,C3D1,TREATMENT,2024-05-24,57
VISION-NSCLC,FA,VISION-NSCLC-SITE001-0046,45,LDIAM,Longest Diameter,TUMOR ASSESSMENT,,TARGET LESION 3,46.7,mm,46.7,46.7,mm,,,5.0,C3D1,TREATMENT,2024-05-24,57
VISION-NSCLC,FA,VISION-NSCLC-SITE001-0046,46,SAXIS,Short Axis,TUMOR ASSESSMENT,,TARGET LESION 3,8.4,mm,8.4,8.4,mm,,,5.0,C3D1,TREATMENT,2024-05-24,57
VISION-NSCLC,FA,VISION-NSCLC-SITE001-0046,47,LDIAM,Longest Diameter,TUMOR ASSESSMENT,,TARGET LESION 4,26.2,mm,26.2,26.2,mm,,,5.0,C3D1,TREATMENT,2024-05-24,57
VISION-NSCLC,FA,VISION-NSCLC-SITE001-0046,48,SAXIS,Short Axis,TUMOR ASSESSMENT,,TARGET LESION 4,15.2,mm,15.2,15.2,mm,,,5.0,C3D1,TREATMENT,2024-05-24,57
VISION-NSCLC,FA,VISION-NSCLC-SITE001-0046,49,LDIAM,Longest Diameter,TUMOR ASSESSMENT,,TARGET LESION 5,27.3,mm,27.3,27.3,mm,,,5.0,C3D1,TREATMENT,2024-05-24,57
VISION-NSCLC,FA,VISION-NSCLC-SITE001-0046,50,SAXIS,Short Axis,TUMOR ASSESSMENT,,TARGET LESION 5,17.3,mm,17.3,17.3,mm,,,5.0,C3D1,TREATMENT,2024-05-24,57
VISION-NSCLC,FA,VISION-NSCLC-SITE001-0046,51,LDIAM,Longest Diameter,TUMOR ASSESSMENT,,TARGET LESION 1,44.6,mm,44.6,44.6,mm,,,6.0,C4D1,TREATMENT,2024-06-21,85
VISION-NSCLC,FA,VISION-NSCLC-SITE001-0046,52,SAXIS,Short Axis,TUMOR ASSESSMENT,,TARGET LESION 1,23.8,mm,23.8,23.8,mm,,,6.0,C4D1,TREATMENT,2024-06-21,85
VISION-NSCLC,FA,VISION-NSCLC-SITE001-0046,53,LDIAM,Longest Diameter,TUMOR ASSESSMENT,,TARGET LESION 2,58.1,mm,58.1,58.1,mm,,,6.0,C4D1,TREATMENT,2024-06-21,85
VISION-NSCLC,FA,VISION-NSCLC-SITE001-0046,54,SAXIS,Short Axis,TUMOR ASSESSMENT,,TARGET LESION 2,8.4,mm,8.4,8.4,mm,,,6.0,C4D1,TREATMENT,2024-06-21,85
VISION-NSCLC,FA,VISION-NSCLC-SITE001-0046,55,LDIAM,Longest Diameter,TUMOR ASSESSMENT,,TARGET LESION 3,49.8,mm,49.8,49.8,mm,,,6.0,C4D1,TREATMENT,2024-06-21,85
VISION-NSCLC,FA,VISION-NSCLC-SITE001-0046,56,SAXIS,Short Axis,TUMOR ASSESSMENT,,TARGET LESION 3,8.1,mm,8.1,8.1,mm,,,6.0,C4D1,TREATMENT,2024-06-21,85
VISION-NSCLC,FA,VISION-NSCLC-SITE001-0046,57,LDIAM,Longest Diameter,TUMOR ASSESSMENT,,TARGET LESION 4,28.1,mm,28.1,28.1,mm,,,6.0,C4D1,TREATMENT,2024-06-21,85
VISION-NSCLC,FA,VISION-NSCLC-SITE001-0046,58,SAXIS,Short Axis,TUMOR ASSESSMENT,,TARGET LESION 4,15.1,mm,15.1,15.1,mm,,,6.0,C4D1,TREATMENT,2024-06-21,85
VISION-NSCLC,FA,VISION-NSCLC-SITE001-0046,59,LDIAM,Longest Diameter,TUMOR ASSESSMENT,,TARGET LESION 5,27.5,mm,27.5,27.5,mm,,,6.0,C4D1,TREATMENT,2024-06-21,85
VISION-NSCLC,FA,VISION-NSCLC-SITE001-0046,60,SAXIS,Short Axis,TUMOR ASSESSMENT,,TARGET LESION 5,17.4,mm,17.4,17.4,mm,,,6.0,C4D1,TREATMENT,2024-06-21,85
VISION-NSCLC,FA,VISION-NSCLC-SITE001-0046,61,LDIAM,Longest Diameter,TUMOR ASSESSMENT,,TARGET LESION 1,43.8,mm,43.8,43.8,mm,,,7.0,C6D1,TREATMENT,2024-08-16,141
VISION-NSCLC,FA,VISION-NSCLC-SITE001-0046,62,SAXIS,Short Axis,TUMOR ASSESSMENT,,TARGET LESION 1,23.5,mm,23.5,23.5,mm,,,7.0,C6D1,TREATMENT,2024-08-16,141
VISION-NSCLC,FA,VISION-NSCLC-SITE001-0046,63,LDIAM,Longest Diameter,TUMOR ASSESSMENT,,TARGET LESION 2,57.8,mm,57.8,57.8,mm,,,7.0,C6D1,TREATMENT,2024-08-16,141
VISION-NSCLC,FA,VISION-NSCLC-SITE001-0046,64,SAXIS,Short Axis,TUMOR ASSESSMENT,,TARGET LESION 2,8.7,mm,8.7,8.7,mm,,,7.0,C6D1,TREATMENT,2024-08-16,141
VISION-NSCLC,FA,VISION-NSCLC-SITE001-0046,65,LDIAM,Longest Diameter,TUMOR ASSESSMENT,,TARGET LESION 3,45.7,mm,45.7,45.7,mm,,,7.0,C6D1,TREATMENT,2024-08-16,141
VISION-NSCLC,FA,VISION-NSCLC-SITE001-0046,66,SAXIS,Short Axis,TUMOR ASSESSMENT,,TARGET LESION 3,8.2,mm,8.2,8.2,mm,,,7.0,C6D1,TREATMENT,2024-08-16,141
VISION-NSCLC,FA,VISION-NSCLC-SITE001-0046,67,LDIAM,Longest Diameter,TUMOR ASSESSMENT,,TARGET LESION 4,27.1,mm,27.1,27.1,mm,,,7.0,C6D1,TREATMENT,2024-08-16,141
VISION-NSCLC,FA,VISION-NSCLC-SITE001-0046,68,SAXIS,Short Axis,TUMOR ASSESSMENT,,TARGET LESION 4,15.4,mm,15.4,15.4,mm,,,7.0,C6D1,TREATMENT,2024-08-16,141
VISION-NSCLC,FA,VISION-NSCLC-SITE001-0046,69,LDIAM,Longest Diameter,TUMOR ASSESSMENT,,TARGET LESION 5,28.6,mm,28.6,28.6,mm,,,7.0,C6D1,TREATMENT,2024-08-16,141
VISION-NSCLC,FA,VISION-NSCLC-SITE001-0046,70,SAXIS,Short Axis,TUMOR ASSESSMENT,,TARGET LESION 5,17.2,mm,17.2,17.2,mm,,,7.0,C6D1,TREATMENT,2024-08-16,141
VISION-NSCLC,FA,VISION-NSCLC-SITE001-0046,71,LDIAM,Longest Diameter,TUMOR ASSESSMENT,,TARGET LESION 1,46.0,mm,46.0,46.0,mm,,,8.0,EOT,FOLLOW-UP,2024-09-13,169
VISION-NSCLC,FA,VISION-NSCLC-SITE001-0046,72,SAXIS,Short Axis,TUMOR ASSESSMENT,,TARGET LESION 1,23.7,mm,23.7,23.7,mm,,,8.0,EOT,FOLLOW-UP,2024-09-13,169
VISION-NSCLC,FA,VISION-NSCLC-SITE001-0046,73,LDIAM,Longest Diameter,TUMOR ASSESSMENT,,TARGET LESION 2,57.0,mm,57.0,57.0,mm,,,8.0,EOT,FOLLOW-UP,2024-09-13,169
VISION-NSCLC,FA,VISION-NSCLC-SITE001-0046,74,SAXIS,Short Axis,TUMOR ASSESSMENT,,TARGET LESION 2,8.7,mm,8.7,8.7,mm,,,8.0,EOT,FOLLOW-UP,2024-09-13,169
VISION-NSCLC,FA,VISION-NSCLC-SITE001-0046,75,LDIAM,Longest Diameter,TUMOR ASSESSMENT,,TARGET LESION 3,43.9,mm,43.9,43.9,mm,,,8.0,EOT,FOLLOW-UP,2024-09-13,169
VISION-NSCLC,FA,VISION-NSCLC-SITE001-0046,76,SAXIS,Short Axis,TUMOR ASSESSMENT,,TARGET LESION 3,8.5,mm,8.5,8.5,mm,,,8.0,EOT,FOLLOW-UP,2024-09-13,169
VISION-NSCLC,FA,VISION-NSCLC-SITE001-0046,77,LDIAM,Longest Diameter,TUMOR ASSESSMENT,,TARGET LESION 4,28.4,mm,28.4,28.4,mm,,,8.0,EOT,FOLLOW-UP,2024-09-13,169
VISION-NSCLC,FA,VISION-NSCLC-SITE001-0046,78,SAXIS,Short Axis,TUMOR ASSESSMENT,,TARGET LESION 4,15.1,mm,15.1,15.1,mm,,,8.0,EOT,FOLLOW-UP,2024-09-13,169
VISION-NSCLC,FA,VISION-NSCLC-SITE001-0046,79,LDIAM,Longest Diameter,TUMOR ASSESSMENT,,TARGET LESION 5,25.3,mm,25.3,25.3,mm,,,8.0,EOT,FOLLOW-UP,2024-09-13,169
VISION-NSCLC,FA,VISION-NSCLC-SITE001-0046,80,SAXIS,Short Axis,TUMOR ASSESSMENT,,TARGET LESION 5,16.5,mm,16.5,16.5,mm,,,8.0,EOT,FOLLOW-UP,2024-09-13,169
VISION-NSCLC,FA,VISION-NSCLC-SITE001-0049,1,LDIAM,Longest Diameter,TUMOR ASSESSMENT,,TARGET LESION 1,66.7,mm,66.7,66.7,mm,,Y,1.0,SCREENING,SCREENING,2024-02-14,-21
VISION-NSCLC,FA,VISION-NSCLC-SITE001-0049,2,SAXIS,Short Axis,TUMOR ASSESSMENT,,TARGET LESION 1,6.4,mm,6.4,6.4,mm,,Y,1.0,SCREENING,SCREENING,2024-02-14,-21
VISION-NSCLC,FA,VISION-NSCLC-SITE001-0049,3,LDIAM,Longest Diameter,TUMOR ASSESSMENT,,TARGET LESION 2,45.9,mm,45.9,45.9,mm,,Y,1.0,SCREENING,SCREENING,2024-02-14,-21
VISION-NSCLC,FA,VISION-NSCLC-SITE001-0049,4,SAXIS,Short Axis,TUMOR ASSESSMENT,,TARGET LESION 2,16.3,mm,16.3,16.3,mm,,Y,1.0,SCREENING,SCREENING,2024-02-14,-21
VISION-NSCLC,FA,VISION-NSCLC-SITE001-0049,5,LDIAM,Longest Diameter,TUMOR ASSESSMENT,,TARGET LESION 3,32.0,mm,32.0,32.0,mm,,Y,1.0,SCREENING,SCREENING,2024-02-14,-21
VISION-NSCLC,FA,VISION-NSCLC-SITE001-0049,6,SAXIS,Short Axis,TUMOR ASSESSMENT,,TARGET LESION 3,13.4,mm,13.4,13.4,mm,,Y,1.0,SCREENING,SCREENING,2024-02-14,-21
VISION-NSCLC,FA,VISION-NSCLC-SITE001-0049,7,LDIAM,Longest Diameter,TUMOR ASSESSMENT,,TARGET LESION 4,29.9,mm,29.9,29.9,mm,,Y,1.0,SCREENING,SCREENING,2024-02-14,-21
VISION-NSCLC,FA,VISION-NSCLC-SITE001-0049,8,SAXIS,Short Axis,TUMOR ASSESSMENT,,TARGET LESION 4,6.2,mm,6.2,6.2,mm,,Y,1.0,SCREENING,SCREENING,2024-02-14,-21
VISION-NSCLC,FA,VISION-NSCLC-SITE001-0049,9,LDIAM,Longest Diameter,TUMOR ASSESSMENT,,TARGET LESION 5,38.8,mm,38.8,38.8,mm,,Y,1.0,SCREENING,SCREENING,2024-02-14,-21
VISION-NSCLC,FA,VISION-NSCLC-SITE001-0049,10,SAXIS,Short Axis,TUMOR ASSESSMENT,,TARGET LESION 5,11.1,mm,11.1,11.1,mm,,Y,1.0,SCREENING,SCREENING,2024-02-14,-21
VISION-NSCLC,FA,VISION-NSCLC-SITE001-0049,11,LDIAM,Longest Diameter,TUMOR ASSESSMENT,,TARGET LESION 1,63.4,mm,63.4,63.4,mm,,,2.0,C1D1,TREATMENT,2024-03-06,1
VISION-NSCLC,FA,VISION-NSCLC-SITE001-0049,12,SAXIS,Short Axis,TUMOR ASSESSMENT,,TARGET LESION 1,6.0,mm,6.0,6.0,mm,,,2.0,C1D1,TREATMENT,2024-03-06,1
VISION-NSCLC,FA,VISION-NSCLC-SITE001-0049,13,LDIAM,Longest Diameter,TUMOR ASSESSMENT,,TARGET LESION 2,44.3,mm,44.3,44.3,mm,,,2.0,C1D1,TREATMENT,2024-03-06,1
VISION-NSCLC,FA,VISION-NSCLC-SITE001-0049,14,SAXIS,Short Axis,TUMOR ASSESSMENT,,TARGET LESION 2,15.9,mm,15.9,15.9,mm,,,2.0,C1D1,TREATMENT,2024-03-06,1
VISION-NSCLC,FA,VISION-NSCLC-SITE001-0049,15,LDIAM,Longest Diameter,TUMOR ASSESSMENT,,TARGET LESION 3,28.4,mm,28.4,28.4,mm,,,2.0,C1D1,TREATMENT,2024-03-06,1
VISION-NSCLC,FA,VISION-NSCLC-SITE001-0049,16,SAXIS,Short Axis,TUMOR ASSESSMENT,,TARGET LESION 3,12.9,mm,12.9,12.9,mm,,,2.0,C1D1,TREATMENT,2024-03-06,1
VISION-NSCLC,FA,VISION-NSCLC-SITE001-0049,17,LDIAM,Longest Diameter,TUMOR ASSESSMENT,,TARGET LESION 4,29.7,mm,29.7,29.7,mm,,,2.0,C1D1,TREATMENT,2024-03-06,1
VISION-NSCLC,FA,VISION-NSCLC-SITE001-0049,18,SAXIS,Short Axis,TUMOR ASSESSMENT,,TARGET LESION 4,7.1,mm,7.1,7.1,mm,,,2.0,C1D1,TREATMENT,2024-03-06,1
VISION-NSCLC,FA,VISION-NSCLC-SITE001-0049,19,LDIAM,Longest Diameter,TUMOR ASSESSMENT,,TARGET LESION 5,33.5,mm,33.5,33.5,mm,,,2.0,C1D1,TREATMENT,2024-03-06,1
VISION-NSCLC,FA,VISION-NSCLC-SITE001-0049,20,SAXIS,Short Axis,TUMOR ASSESSMENT,,TARGET LESION 5,10.2,mm,10.2,10.2,mm,,,2.0,C1D1,TREATMENT,2024-03-06,1
VISION-NSCLC,FA,VISION-NSCLC-SITE001-0049,21,LDIAM,Longest Diameter,TUMOR ASSESSMENT,,TARGET LESION 1,58.8,mm,58.8,58.8,mm,,,3.0,C1D15,TREATMENT,2024-03-20,15
VISION-NSCLC,FA,VISION-NSCLC-SITE001-0049,22,SAXIS,Short Axis,TUMOR ASSESSMENT,,TARGET LESION 1,6.1,mm,6.1,6.1,mm,,,3.0,C1D15,TREATMENT,2024-03-20,15
VISION-NSCLC,FA,VISION-NSCLC-SITE001-0049,23,LDIAM,Longest Diameter,TUMOR ASSESSMENT,,TARGET LESION 2,39.7,mm,39.7,39.7,mm,,,3.0,C1D15,TREATMENT,2024-03-20,15
VISION-NSCLC,FA,VISION-NSCLC-SITE001-0049,24,SAXIS,Short Axis,TUMOR ASSESSMENT,,TARGET LESION 2,15.1,mm,15.1,15.1,mm,,,3.0,C1D15,TREATMENT,2024-03-20,15
VISION-NSCLC,FA,VISION-NSCLC-SITE001-0049,25,LDIAM,Longest Diameter,TUMOR ASSESSMENT,,TARGET LESION 3,25.8,mm,25.8,25.8,mm,,,3.0,C1D15,TREATMENT,2024-03-20,15
VISION-NSCLC,FA,VISION-NSCLC-SITE001-0049,26,SAXIS,Short Axis,TUMOR ASSESSMENT,,TARGET LESION 3,12.1,mm,12.1,12.1,mm,,,3.0,C1D15,TREATMENT,2024-03-20,15
VISION-NSCLC,FA,VISION-NSCLC-SITE001-0049,27,LDIAM,Longest Diameter,TUMOR ASSESSMENT,,TARGET LESION 4,24.5,mm,24.5,24.5,mm,,,3.0,C1D15,TREATMENT,2024-03-20,15
VISION-NSCLC,FA,VISION-NSCLC-SITE001-0049,28,SAXIS,Short Axis,TUMOR ASSESSMENT,,TARGET LESION 4,5.3,mm,5.3,5.3,mm,,,3.0,C1D15,TREATMENT,2024-03-20,15
VISION-NSCLC,FA,VISION-NSCLC-SITE001-0049,29,LDIAM,Longest Diameter,TUMOR ASSESSMENT,,TARGET LESION 5,36.2,mm,36.2,36.2,mm,,,3.0,C1D15,TREATMENT,2024-03-20,15
VISION-NSCLC,FA,VISION-NSCLC-SITE001-0049,30,SAXIS,Short Axis,TUMOR ASSESSMENT,,TARGET LESION 5,10.4,mm,10.4,10.4,mm,,,3.0,C1D15,TREATMENT,2024-03-20,15
VISION-NSCLC,FA,VISION-NSCLC-SITE001-0049,31,LDIAM,Longest Diameter,TUMOR ASSESSMENT,,TARGET LESION 1,57.0,mm,57.0,57.0,mm,,,4.0,C2D1,TREATMENT,2024-04-03,29
VISION-NSCLC,FA,VISION-NSCLC-SITE001-0049,32,SAXIS,Short Axis,TUMOR ASSESSMENT,,TARGET LESION 1,5.0,mm,5.0,5.0,mm,,,4.0,C2D1,TREATMENT,2024-04-03,29
VISION-NSCLC,FA,VISION-NSCLC-SITE001-0049,33,LDIAM,Longest Diameter,TUMOR ASSESSMENT,,TARGET LESION 2,36.8,mm,36.8,36.8,mm,,,4.0,C2D1,TREATMENT,2024-04-03,29
VISION-NSCLC,FA,VISION-NSCLC-SITE001-0049,34,SAXIS,Short Axis,TUMOR ASSESSMENT,,TARGET LESION 2,13.4,mm,13.4,13.4,mm,,,4.0,C2D1,TREATMENT,2024-04-03,29
VISION-NSCLC,FA,VISION-NSCLC-SITE001-0049,35,LDIAM,Longest Diameter,TUMOR ASSESSMENT,,TARGET LESION 3,28.3,mm,28.3,28.3,mm,,,4.0,C2D1,TREATMENT,2024-04-03,29
VISION-NSCLC,FA,VISION-NSCLC-SITE001-0049,36,SAXIS,Short Axis,TUMOR ASSESSMENT,,TARGET LESION 3,11.5,mm,11.5,11.5,mm,,,4.0,C2D1,TREATMENT,2024-04-03,29
VISION-NSCLC,FA,VISION-NSCLC-SITE001-0049,37,LDIAM,Longest Diameter,TUMOR ASSESSMENT,,TARGET LESION 4,23.6,mm,23.6,23.6,mm,,,4.0,C2D1,TREATMENT,2024-04-03,29
VISION-NSCLC,FA,VISION-NSCLC-SITE001-0049,38,SAXIS,Short Axis,TUMOR ASSESSMENT,,TARGET LESION 4,5.5,mm,5.5,5.5,mm,,,4.0,C2D1,TREATMENT,2024-04-03,29
VISION-NSCLC,FA,VISION-NSCLC-SITE001-0049,39,LDIAM,Longest Diameter,TUMOR ASSESSMENT,,TARGET LESION 5,32.3,mm,32.3,32.3,mm,,,4.0,C2D1,TREATMENT,2024-04-03,29
VISION-NSCLC,FA,VISION-NSCLC-SITE001-0049,40,SAXIS,Short Axis,TUMOR ASSESSMENT,,TARGET LESION 5,8.8,mm,8.8,8.8,mm,,,4.0,C2D1,TREATMENT,2024-04-03,29
VISION-NSCLC,FA,VISION-NSCLC-SITE001-0049,41,LDIAM,Longest Diameter,TUMOR ASSESSMENT,,TARGET LESION 1,48.5,mm,48.5,48.5,mm,,,5.0,C3D1,TREATMENT,2024-05-01,57
VISION-NSCLC,FA,VISION-NSCLC-SITE001-0049,42,SAXIS,Short Axis,TUMOR ASSESSMENT,,TARGET LESION 1,5.2,mm,5.2,5.2,mm,,,5.0,C3D1,TREATMENT,2024-05-01,57
VISION-NSCLC,FA,VISION-NSCLC-SITE001-0049,43,LDIAM,Longest Diameter,TUMOR ASSESSMENT,,TARGET LESION 2,34.0,mm,34.0,34.0,mm,,,5.0,C3D1,TREATMENT,2024-05-01,57
VISION-NSCLC,FA,VISION-NSCLC-SITE001-0049,44,SAXIS,Short Axis,TUMOR ASSESSMENT,,TARGET LESION 2,11.7,mm,11.7,11.7,mm,,,5.0,C3D1,TREATMENT,2024-05-01,57
VISION-NSCLC,FA,VISION-NSCLC-SITE001-0049,45,LDIAM,Longest Diameter,TUMOR ASSESSMENT,,TARGET LESION 3,25.5,mm,25.5,25.5,mm,,,5.0,C3D1,TREATMENT,2024-05-01,57
VISION-NSCLC,FA,VISION-NSCLC-SITE001-0049,46,SAXIS,Short Axis,TUMOR ASSESSMENT,,TARGET LESION 3,10.2,mm,10.2,10.2,mm,,,5.0,C3D1,TREATMENT,2024-05-01,57
VISION-NSCLC,FA,VISION-NSCLC-SITE001-0049,47,LDIAM,Longest Diameter,TUMOR ASSESSMENT,,TARGET LESION 4,24.1,mm,24.1,24.1,mm,,,5.0,C3D1,TREATMENT,2024-05-01,57
VISION-NSCLC,FA,VISION-NSCLC-SITE001-0049,48,SAXIS,Short Axis,TUMOR ASSESSMENT,,TARGET LESION 4,5.8,mm,5.8,5.8,mm,,,5.0,C3D1,TREATMENT,2024-05-01,57
VISION-NSCLC,FA,VISION-NSCLC-SITE001-0049,49,LDIAM,Longest Diameter,TUMOR ASSESSMENT,,TARGET LESION 5,31.7,mm,31.7,31.7,mm,,,5.0,C3D1,TREATMENT,2024-05-01,57
VISION-NSCLC,FA,VISION-NSCLC-SITE001-0049,50,SAXIS,Short Axis,TUMOR ASSESSMENT,,TARGET LESION 5,8.6,mm,8.6,8.6,mm,,,5.0,C3D1,TREATMENT,2024-05-01,57
VISION-NSCLC,FA,VISION-NSCLC-SITE001-0049,51,LDIAM,Longest Diameter,TUMOR ASSESSMENT,,TARGET LESION 1,49.4,mm,49.4,49.4,mm,,,6.0,C4D1,TREATMENT,2024-05-29,85
VISION-NSCLC,FA,VISION-NSCLC-SITE001-0049,52,SAXIS,Short Axis,TUMOR ASSESSMENT,,TARGET LESION 1,4.7,mm,4.7,4.7,mm,,,6.0,C4D1,TREATMENT,2024-05-29,85
VISION-NSCLC,FA,VISION-NSCLC-SITE001-0049,53,LDIAM,Longest Diameter,TUMOR ASSESSMENT,,TARGET LESION 2,33.4,mm,33.4,33.4,mm,,,6.0,C4D1,TREATMENT,2024-05-29,85
VISION-NSCLC,FA,VISION-NSCLC-SITE001-0049,54,SAXIS,Short Axis,TUMOR ASSESSMENT,,TARGET LESION 2,12.3,mm,12.3,12.3,mm,,,6.0,C4D1,TREATMENT,2024-05-29,85
VISION-NSCLC,FA,VISION-NSCLC-SITE001-0049,55,LDIAM,Longest Diameter,TUMOR ASSESSMENT,,TARGET LESION 3,24.0,mm,24.0,24.0,mm,,,6.0,C4D1,TREATMENT,2024-05-29,85
VISION-NSCLC,FA,VISION-NSCLC-SITE001-0049,56,SAXIS,Short Axis,TUMOR ASSESSMENT,,TARGET LESION 3,8.9,mm,8.9,8.9,mm,,,6.0,C4D1,TREATMENT,2024-05-29,85
VISION-NSCLC,FA,VISION-NSCLC-SITE001-0049,57,LDIAM,Longest Diameter,TUMOR ASSESSMENT,,TARGET LESION 4,22.5,mm,22.5,22.5,mm,,,6.0,C4D1,TREATMENT,2024-05-29,85
VISION-NSCLC,FA,VISION-NSCLC-SITE001-0049,58,SAXIS,Short Axis,TUMOR ASSESSMENT,,TARGET LESION 4,4.9,mm,4.9,4.9,mm,,,6.0,C4D1,TREATMENT,2024-05-29,85
VISION-NSCLC,FA,VISION-NSCLC-SITE001-0049,59,LDIAM,Longest Diameter,TUMOR ASSESSMENT,,TARGET LESION 5,27.0,mm,27.0,27.0,mm,,,6.0,C4D1,TREATMENT,2024-05-29,85
VISION-NSCLC,FA,VISION-NSCLC-SITE001-0049,60,SAXIS,Short Axis,TUMOR ASSESSMENT,,TARGET LESION 5,8.1,mm,8.1,8.1,mm,,,6.0,C4D1,TREATMENT,2024-05-29,85
VISION-NSCLC,FA,VISION-NSCLC-SITE001-0049,61,LDIAM,Longest Diameter,TUMOR ASSESSMENT,,TARGET LESION 1,45.3,mm,45.3,45.3,mm,,,7.0,C6D1,TREATMENT,2024-07-24,141
VISION-NSCLC,FA,VISION-NSCLC-SITE001-0049,62,SAXIS,Short Axis,TUMOR ASSESSMENT,,TARGET LESION 1,4.4,mm,4.4,4.4,mm,,,7.0,C6D1,TREATMENT,2024-07-24,141
VISION-NSCLC,FA,VISION-NSCLC-SITE001-0049,63,LDIAM,Longest Diameter,TUMOR ASSESSMENT,,TARGET LESION 2,31.4,mm,31.4,31.4,mm,,,7.0,C6D1,TREATMENT,2024-07-24,141
VISION-NSCLC,FA,VISION-NSCLC-SITE001-0049,64,SAXIS,Short Axis,TUMOR ASSESSMENT,,TARGET LESION 2,10.9,mm,10.9,10.9,mm,,,7.0,C6D1,TREATMENT,2024-07-24,141
VISION-NSCLC,FA,VISION-NSCLC-SITE001-0049,65,LDIAM,Longest Diameter,TUMOR ASSESSMENT,,TARGET LESION 3,21.8,mm,21.8,21.8,mm,,,7.0,C6D1,TREATMENT,2024-07-24,141
VISION-NSCLC,FA,VISION-NSCLC-SITE001-0049,66,SAXIS,Short Axis,TUMOR ASSESSMENT,,TARGET LESION 3,9.0,mm,9.0,9.0,mm,,,7.0,C6D1,TREATMENT,2024-07-24,141
VISION-NSCLC,FA,VISION-NSCLC-SITE001-0049,67,LDIAM,Longest Diameter,TUMOR ASSESSMENT,,TARGET LESION 4,18.6,mm,18.6,18.6,mm,,,7.0,C6D1,TREATMENT,2024-07-24,141
VISION-NSCLC,FA,VISION-NSCLC-SITE001-0049,68,SAXIS,Short Axis,TUMOR ASSESSMENT,,TARGET LESION 4,3.9,mm,3.9,3.9,mm,,,7.0,C6D1,TREATMENT,2024-07-24,141
VISION-NSCLC,FA,VISION-NSCLC-SITE001-0049,69,LDIAM,Longest Diameter,TUMOR ASSESSMENT,,TARGET LESION 5,26.8,mm,26.8,26.8,mm,,,7.0,C6D1,TREATMENT,2024-07-24,141
VISION-NSCLC,FA,VISION-NSCLC-SITE001-0049,70,SAXIS,Short Axis,TUMOR ASSESSMENT,,TARGET LESION 5,8.0,mm,8.0,8.0,mm,,,7.0,C6D1,TREATMENT,2024-07-24,141
VISION-NSCLC,FA,VISION-NSCLC-SITE001-0049,71,LDIAM,Longest Diameter,TUMOR ASSESSMENT,,TARGET LESION 1,40.9,mm,40.9,40.9,mm,,,8.0,EOT,FOLLOW-UP,2024-08-21,169
VISION-NSCLC,FA,VISION-NSCLC-SITE001-0049,72,SAXIS,Short Axis,TUMOR ASSESSMENT,,TARGET LESION 1,3.8,mm,3.8,3.8,mm,,,8.0,EOT,FOLLOW-UP,2024-08-21,169
VISION-NSCLC,FA,VISION-NSCLC-SITE001-0049,73,LDIAM,Longest Diameter,TUMOR ASSESSMENT,,TARGET LESION 2,25.2,mm,25.2,25.2,mm,,,8.0,EOT,FOLLOW-UP,2024-08-21,169
VISION-NSCLC,FA,VISION-NSCLC-SITE001-0049,74,SAXIS,Short Axis,TUMOR ASSESSMENT,,TARGET LESION 2,9.9,mm,9.9,9.9,mm,,,8.0,EOT,FOLLOW-UP,2024-08-21,169
VISION-NSCLC,FA,VISION-NSCLC-SITE001-0049,75,LDIAM,Longest Diameter,TUMOR ASSESSMENT,,TARGET LESION 3,19.8,mm,19.8,19.8,mm,,,8.0,EOT,FOLLOW-UP,2024-08-21,169
VISION-NSCLC,FA,VISION-NSCLC-SITE001-0049,76,SAXIS,Short Axis,TUMOR ASSESSMENT,,TARGET LESION 3,7.8,mm,7.8,7.8,mm,,,8.0,EOT,FOLLOW-UP,2024-08-21,169
VISION-NSCLC,FA,VISION-NSCLC-SITE001-0049,77,LDIAM,Longest Diameter,TUMOR ASSESSMENT,,TARGET LESION 4,16.6,mm,16.6,16.6,mm,,,8.0,EOT,FOLLOW-UP,2024-08-21,169
VISION-NSCLC,FA,VISION-NSCLC-SITE001-0049,78,SAXIS,Short Axis,TUMOR ASSESSMENT,,TARGET LESION 4,3,mm,3,3.0,mm,,,8.0,EOT,FOLLOW-UP,2024-08-21,169
VISION-NSCLC,FA,VISION-NSCLC-SITE001-0049,79,LDIAM,Longest Diameter,TUMOR ASSESSMENT,,TARGET LESION 5,23.3,mm,23.3,23.3,mm,,,8.0,EOT,FOLLOW-UP,2024-08-21,169
VISION-NSCLC,FA,VISION-NSCLC-SITE001-0049,80,SAXIS,Short Axis,TUMOR ASSESSMENT,,TARGET LESION 5,6.4,mm,6.4,6.4,mm,,,8.0,EOT,FOLLOW-UP,2024-08-21,169
VISION-NSCLC,FA,VISION-NSCLC-SITE001-0052,1,LDIAM,Longest Diameter,TUMOR ASSESSMENT,,TARGET LESION 1,19.8,mm,19.8,19.8,mm,,Y,1.0,SCREENING,SCREENING,2024-02-12,-19
VISION-NSCLC,FA,VISION-NSCLC-SITE001-0052,2,SAXIS,Short Axis,TUMOR ASSESSMENT,,TARGET LESION 1,11.9,mm,11.9,11.9,mm,,Y,1.0,SCREENING,SCREENING,2024-02-12,-19
VISION-NSCLC,FA,VISION-NSCLC-SITE001-0052,3,LDIAM,Longest Diameter,TUMOR ASSESSMENT,,TARGET LESION 2,28.8,mm,28.8,28.8,mm,,Y,1.0,SCREENING,SCREENING,2024-02-12,-19
VISION-NSCLC,FA,VISION-NSCLC-SITE001-0052,4,SAXIS,Short Axis,TUMOR ASSESSMENT,,TARGET LESION 2,13.2,mm,13.2,13.2,mm,,Y,1.0,SCREENING,SCREENING,2024-02-12,-19
VISION-NSCLC,FA,VISION-NSCLC-SITE001-0052,5,LDIAM,Longest Diameter,TUMOR ASSESSMENT,,TARGET LESION 3,45.6,mm,45.6,45.6,mm,,Y,1.0,SCREENING,SCREENING,2024-02-12,-19
VISION-NSCLC,FA,VISION-NSCLC-SITE001-0052,6,SAXIS,Short Axis,TUMOR ASSESSMENT,,TARGET LESION 3,9.3,mm,9.3,9.3,mm,,Y,1.0,SCREENING,SCREENING,2024-02-12,-19
VISION-NSCLC,FA,VISION-NSCLC-SITE001-0052,7,LDIAM,Longest Diameter,TUMOR ASSESSMENT,,TARGET LESION 4,24.3,mm,24.3,24.3,mm,,Y,1.0,SCREENING,SCREENING,2024-02-12,-19
VISION-NSCLC,FA,VISION-NSCLC-SITE001-0052,8,SAXIS,Short Axis,TUMOR ASSESSMENT,,TARGET LESION 4,7.8,mm,7.8,7.8,mm,,Y,1.0,SCREENING,SCREENING,2024-02-12,-19
VISION-NSCLC,FA,VISION-NSCLC-SITE001-0052,9,LDIAM,Longest Diameter,TUMOR ASSESSMENT,,TARGET LESION 5,47.1,mm,47.1,47.1,mm,,Y,1.0,SCREENING,SCREENING,2024-02-12,-19
VISION-NSCLC,FA,VISION-NSCLC-SITE001-0052,10,SAXIS,Short Axis,TUMOR ASSESSMENT,,TARGET LESION 5,16.0,mm,16.0,16.0,mm,,Y,1.0,SCREENING,SCREENING,2024-02-12,-19
VISION-NSCLC,FA,VISION-NSCLC-SITE001-0052,11,LDIAM,Longest Diameter,TUMOR ASSESSMENT,,TARGET LESION 1,21.9,mm,21.9,21.9,mm,,,2.0,C1D1,TREATMENT,2024-03-02,1
VISION-NSCLC,FA,VISION-NSCLC-SITE001-0052,12,SAXIS,Short Axis,TUMOR ASSESSMENT,,TARGET LESION 1,11.9,mm,11.9,11.9,mm,,,2.0,C1D1,TREATMENT,2024-03-02,1
VISION-NSCLC,FA,VISION-NSCLC-SITE001-0052,13,LDIAM,Longest Diameter,TUMOR ASSESSMENT,,TARGET LESION 2,29.9,mm,29.9,29.9,mm,,,2.0,C1D1,TREATMENT,2024-03-02,1
VISION-NSCLC,FA,VISION-NSCLC-SITE001-0052,14,SAXIS,Short Axis,TUMOR ASSESSMENT,,TARGET LESION 2,13.3,mm,13.3,13.3,mm,,,2.0,C1D1,TREATMENT,2024-03-02,1
VISION-NSCLC,FA,VISION-NSCLC-SITE001-0052,15,LDIAM,Longest Diameter,TUMOR ASSESSMENT,,TARGET LESION 3,46.1,mm,46.1,46.1,mm,,,2.0,C1D1,TREATMENT,2024-03-02,1
VISION-NSCLC,FA,VISION-NSCLC-SITE001-0052,16,SAXIS,Short Axis,TUMOR ASSESSMENT,,TARGET LESION 3,8.7,mm,8.7,8.7,mm,,,2.0,C1D1,TREATMENT,2024-03-02,1
VISION-NSCLC,FA,VISION-NSCLC-SITE001-0052,17,LDIAM,Longest Diameter,TUMOR ASSESSMENT,,TARGET LESION 4,23.0,mm,23.0,23.0,mm,,,2.0,C1D1,TREATMENT,2024-03-02,1
VISION-NSCLC,FA,VISION-NSCLC-SITE001-0052,18,SAXIS,Short Axis,TUMOR ASSESSMENT,,TARGET LESION 4,7.8,mm,7.8,7.8,mm,,,2.0,C1D1,TREATMENT,2024-03-02,1
VISION-NSCLC,FA,VISION-NSCLC-SITE001-0052,19,LDIAM,Longest Diameter,TUMOR ASSESSMENT,,TARGET LESION 5,48.7,mm,48.7,48.7,mm,,,2.0,C1D1,TREATMENT,2024-03-02,1
VISION-NSCLC,FA,VISION-NSCLC-SITE001-0052,20,SAXIS,Short Axis,TUMOR ASSESSMENT,,TARGET LESION 5,16.1,mm,16.1,16.1,mm,,,2.0,C1D1,TREATMENT,2024-03-02,1
VISION-NSCLC,FA,VISION-NSCLC-SITE001-0052,21,LDIAM,Longest Diameter,TUMOR ASSESSMENT,,TARGET LESION 1,20.6,mm,20.6,20.6,mm,,,3.0,C1D15,TREATMENT,2024-03-16,15
VISION-NSCLC,FA,VISION-NSCLC-SITE001-0052,22,SAXIS,Short Axis,TUMOR ASSESSMENT,,TARGET LESION 1,11.3,mm,11.3,11.3,mm,,,3.0,C1D15,TREATMENT,2024-03-16,15
VISION-NSCLC,FA,VISION-NSCLC-SITE001-0052,23,LDIAM,Longest Diameter,TUMOR ASSESSMENT,,TARGET LESION 2,28.2,mm,28.2,28.2,mm,,,3.0,C1D15,TREATMENT,2024-03-16,15
VISION-NSCLC,FA,VISION-NSCLC-SITE001-0052,24,SAXIS,Short Axis,TUMOR ASSESSMENT,,TARGET LESION 2,13.1,mm,13.1,13.1,mm,,,3.0,C1D15,TREATMENT,2024-03-16,15
VISION-NSCLC,FA,VISION-NSCLC-SITE001-0052,25,LDIAM,Longest Diameter,TUMOR ASSESSMENT,,TARGET LESION 3,46.5,mm,46.5,46.5,mm,,,3.0,C1D15,TREATMENT,2024-03-16,15
VISION-NSCLC,FA,VISION-NSCLC-SITE001-0052,26,SAXIS,Short Axis,TUMOR ASSESSMENT,,TARGET LESION 3,9.3,mm,9.3,9.3,mm,,,3.0,C1D15,TREATMENT,2024-03-16,15
VISION-NSCLC,FA,VISION-NSCLC-SITE001-0052,27,LDIAM,Longest Diameter,TUMOR ASSESSMENT,,TARGET LESION 4,24.0,mm,24.0,24.0,mm,,,3.0,C1D15,TREATMENT,2024-03-16,15
VISION-NSCLC,FA,VISION-NSCLC-SITE001-0052,28,SAXIS,Short Axis,TUMOR ASSESSMENT,,TARGET LESION 4,8.1,mm,8.1,8.1,mm,,,3.0,C1D15,TREATMENT,2024-03-16,15
VISION-NSCLC,FA,VISION-NSCLC-SITE001-0052,29,LDIAM,Longest Diameter,TUMOR ASSESSMENT,,TARGET LESION 5,46.9,mm,46.9,46.9,mm,,,3.0,C1D15,TREATMENT,2024-03-16,15
VISION-NSCLC,FA,VISION-NSCLC-SITE001-0052,30,SAXIS,Short Axis,TUMOR ASSESSMENT,,TARGET LESION 5,15.7,mm,15.7,15.7,mm,,,3.0,C1D15,TREATMENT,2024-03-16,15
VISION-NSCLC,FA,VISION-NSCLC-SITE001-0052,31,LDIAM,Longest Diameter,TUMOR ASSESSMENT,,TARGET LESION 1,20.3,mm,20.3,20.3,mm,,,4.0,C2D1,TREATMENT,2024-03-30,29
VISION-NSCLC,FA,VISION-NSCLC-SITE001-0052,32,SAXIS,Short Axis,TUMOR ASSESSMENT,,TARGET LESION 1,11.7,mm,11.7,11.7,mm,,,4.0,C2D1,TREATMENT,2024-03-30,29
VISION-NSCLC,FA,VISION-NSCLC-SITE001-0052,33,LDIAM,Longest Diameter,TUMOR ASSESSMENT,,TARGET LESION 2,28.9,mm,28.9,28.9,mm,,,4.0,C2D1,TREATMENT,2024-03-30,29
VISION-NSCLC,FA,VISION-NSCLC-SITE001-0052,34,SAXIS,Short Axis,TUMOR ASSESSMENT,,TARGET LESION 2,13.1,mm,13.1,13.1,mm,,,4.0,C2D1,TREATMENT,2024-03-30,29
VISION-NSCLC,FA,VISION-NSCLC-SITE001-0052,35,LDIAM,Longest Diameter,TUMOR ASSESSMENT,,TARGET LESION 3,40.9,mm,40.9,40.9,mm,,,4.0,C2D1,TREATMENT,2024-03-30,29
VISION-NSCLC,FA,VISION-NSCLC-SITE001-0052,36,SAXIS,Short Axis,TUMOR ASSESSMENT,,TARGET LESION 3,9.2,mm,9.2,9.2,mm,,,4.0,C2D1,TREATMENT,2024-03-30,29
VISION-NSCLC,FA,VISION-NSCLC-SITE001-0052,37,LDIAM,Longest Diameter,TUMOR ASSESSMENT,,TARGET LESION 4,23.3,mm,23.3,23.3,mm,,,4.0,C2D1,TREATMENT,2024-03-30,29
VISION-NSCLC,FA,VISION-NSCLC-SITE001-0052,38,SAXIS,Short Axis,TUMOR ASSESSMENT,,TARGET LESION 4,7.2,mm,7.2,7.2,mm,,,4.0,C2D1,TREATMENT,2024-03-30,29
VISION-NSCLC,FA,VISION-NSCLC-SITE001-0052,39,LDIAM,Longest Diameter,TUMOR ASSESSMENT,,TARGET LESION 5,45.1,mm,45.1,45.1,mm,,,4.0,C2D1,TREATMENT,2024-03-30,29
VISION-NSCLC,FA,VISION-NSCLC-SITE001-0052,40,SAXIS,Short Axis,TUMOR ASSESSMENT,,TARGET LESION 5,15.1,mm,15.1,15.1,mm,,,4.0,C2D1,TREATMENT,2024-03-30,29
VISION-NSCLC,FA,VISION-NSCLC-SITE001-0052,41,LDIAM,Longest Diameter,TUMOR ASSESSMENT,,TARGET LESION 1,19.4,mm,19.4,19.4,mm,,,5.0,C3D1,TREATMENT,2024-04-27,57
VISION-NSCLC,FA,VISION-NSCLC-SITE001-0052,42,SAXIS,Short Axis,TUMOR ASSESSMENT,,TARGET LESION 1,11.6,mm,11.6,11.6,mm,,,5.0,C3D1,TREATMENT,2024-04-27,57
VISION-NSCLC,FA,VISION-NSCLC-SITE001-0052,43,LDIAM,Longest Diameter,TUMOR ASSESSMENT,,TARGET LESION 2,30.1,mm,30.1,30.1,mm,,,5.0,C3D1,TREATMENT,2024-04-27,57
VISION-NSCLC,FA,VISION-NSCLC-SITE001-0052,44,SAXIS,Short Axis,TUMOR ASSESSMENT,,TARGET LESION 2,12.6,mm,12.6,12.6,mm,,,5.0,C3D1,TREATMENT,2024-04-27,57
VISION-NSCLC,FA,VISION-NSCLC-SITE001-0052,45,LDIAM,Longest Diameter,TUMOR ASSESSMENT,,TARGET LESION 3,41.8,mm,41.8,41.8,mm,,,5.0,C3D1,TREATMENT,2024-04-27,57
VISION-NSCLC,FA,VISION-NSCLC-SITE001-0052,46,SAXIS,Short Axis,TUMOR ASSESSMENT,,TARGET LESION 3,8.9,mm,8.9,8.9,mm,,,5.0,C3D1,TREATMENT,2024-04-27,57
VISION-NSCLC,FA,VISION-NSCLC-SITE001-0052,47,LDIAM,Longest Diameter,TUMOR ASSESSMENT,,TARGET LESION 4,24.4,mm,24.4,24.4,mm,,,5.0,C3D1,TREATMENT,2024-04-27,57
VISION-NSCLC,FA,VISION-NSCLC-SITE001-0052,48,SAXIS,Short Axis,TUMOR ASSESSMENT,,TARGET LESION 4,8.0,mm,8.0,8.0,mm,,,5.0,C3D1,TREATMENT,2024-04-27,57
VISION-NSCLC,FA,VISION-NSCLC-SITE001-0052,49,LDIAM,Longest Diameter,TUMOR ASSESSMENT,,TARGET LESION 5,45.9,mm,45.9,45.9,mm,,,5.0,C3D1,TREATMENT,2024-04-27,57
VISION-NSCLC,FA,VISION-NSCLC-SITE001-0052,50,SAXIS,Short Axis,TUMOR ASSESSMENT,,TARGET LESION 5,15.8,mm,15.8,15.8,mm,,,5.0,C3D1,TREATMENT,2024-04-27,57
VISION-NSCLC,FA,VISION-NSCLC-SITE001-0052,51,LDIAM,Longest Diameter,TUMOR ASSESSMENT,,TARGET LESION 1,18.2,mm,18.2,18.2,mm,,,6.0,C4D1,TREATMENT,2024-05-25,85
VISION-NSCLC,FA,VISION-NSCLC-SITE001-0052,52,SAXIS,Short Axis,TUMOR ASSESSMENT,,TARGET LESION 1,11.5,mm,11.5,11.5,mm,,,6.0,C4D1,TREATMENT,2024-05-25,85
VISION-NSCLC,FA,VISION-NSCLC-SITE001-0052,53,LDIAM,Longest Diameter,TUMOR ASSESSMENT,,TARGET LESION 2,28.2,mm,28.2,28.2,mm,,,6.0,C4D1,TREATMENT,2024-05-25,85
VISION-NSCLC,FA,VISION-NSCLC-SITE001-0052,54,SAXIS,Short Axis,TUMOR ASSESSMENT,,TARGET LESION 2,12.0,mm,12.0,12.0,mm,,,6.0,C4D1,TREATMENT,2024-05-25,85
VISION-NSCLC,FA,VISION-NSCLC-SITE001-0052,55,LDIAM,Longest Diameter,TUMOR ASSESSMENT,,TARGET LESION 3,43.0,mm,43.0,43.0,mm,,,6.0,C4D1,TREATMENT,2024-05-25,85
VISION-NSCLC,FA,VISION-NSCLC-SITE001-0052,56,SAXIS,Short Axis,TUMOR ASSESSMENT,,TARGET LESION 3,8.4,mm,8.4,8.4,mm,,,6.0,C4D1,TREATMENT,2024-05-25,85
VISION-NSCLC,FA,VISION-NSCLC-SITE001-0052,57,LDIAM,Longest Diameter,TUMOR ASSESSMENT,,TARGET LESION 4,24.0,mm,24.0,24.0,mm,,,6.0,C4D1,TREATMENT,2024-05-25,85
VISION-NSCLC,FA,VISION-NSCLC-SITE001-0052,58,SAXIS,Short Axis,TUMOR ASSESSMENT,,TARGET LESION 4,7.8,mm,7.8,7.8,mm,,,6.0,C4D1,TREATMENT,2024-05-25,85
VISION-NSCLC,FA,VISION-NSCLC-SITE001-0052,59,LDIAM,Longest Diameter,TUMOR ASSESSMENT,,TARGET LESION 5,48.2,mm,48.2,48.2,mm,,,6.0,C4D1,TREATMENT,2024-05-25,85
VISION-NSCLC,FA,VISION-NSCLC-SITE001-0052,60,SAXIS,Short Axis,TUMOR ASSESSMENT,,TARGET LESION 5,14.8,mm,14.8,14.8,mm,,,6.0,C4D1,TREATMENT,2024-05-25,85
VISION-NSCLC,FA,VISION-NSCLC-SITE001-0052,61,LDIAM,Longest Diameter,TUMOR ASSESSMENT,,TARGET LESION 1,19.3,mm,19.3,19.3,mm,,,7.0,C6D1,TREATMENT,2024-07-20,141
VISION-NSCLC,FA,VISION-NSCLC-SITE001-0052,62,SAXIS,Short Axis,TUMOR ASSESSMENT,,TARGET LESION 1,11.7,mm,11.7,11.7,mm,,,7.0,C6D1,TREATMENT,2024-07-20,141
VISION-NSCLC,FA,VISION-NSCLC-SITE001-0052,63,LDIAM,Longest Diameter,TUMOR ASSESSMENT,,TARGET LESION 2,25.8,mm,25.8,25.8,mm,,,7.0,C6D1,TREATMENT,2024-07-20,141
VISION-NSCLC,FA,VISION-NSCLC-SITE001-0052,64,SAXIS,Short Axis,TUMOR ASSESSMENT,,TARGET LESION 2,13.2,mm,13.2,13.2,mm,,,7.0,C6D1,TREATMENT,2024-07-20,141
VISION-NSCLC,FA,VISION-NSCLC-SITE001-0052,65,LDIAM,Longest Diameter,TUMOR ASSESSMENT,,TARGET LESION 3,42.8,mm,42.8,42.8,mm,,,7.0,C6D1,TREATMENT,2024-07-20,141
VISION-NSCLC,FA,VISION-NSCLC-SITE001-0052,66,SAXIS,Short Axis,TUMOR ASSESSMENT,,TARGET LESION 3,9.3,mm,9.3,9.3,mm,,,7.0,C6D1,TREATMENT,2024-07-20,141
VISION-NSCLC,FA,VISION-NSCLC-SITE001-0052,67,LDIAM,Longest Diameter,TUMOR ASSESSMENT,,TARGET LESION 4,23.7,mm,23.7,23.7,mm,,,7.0,C6D1,TREATMENT,2024-07-20,141
VISION-NSCLC,FA,VISION-NSCLC-SITE001-0052,68,SAXIS,Short Axis,TUMOR ASSESSMENT,,TARGET LESION 4,7.8,mm,7.8,7.8,mm,,,7.0,C6D1,TREATMENT,2024-07-20,141
VISION-NSCLC,FA,VISION-NSCLC-SITE001-0052,69,LDIAM,Longest Diameter,TUMOR ASSESSMENT,,TARGET LESION 5,45.2,mm,45.2,45.2,mm,,,7.0,C6D1,TREATMENT,2024-07-20,141
VISION-NSCLC,FA,VISION-NSCLC-SITE001-0052,70,SAXIS,Short Axis,TUMOR ASSESSMENT,,TARGET LESION 5,15.2,mm,15.2,15.2,mm,,,7.0,C6D1,TREATMENT,2024-07-20,141
VISION-NSCLC,FA,VISION-NSCLC-SITE001-0052,71,LDIAM,Longest Diameter,TUMOR ASSESSMENT,,TARGET LESION 1,20.3,mm,20.3,20.3,mm,,,8.0,EOT,FOLLOW-UP,2024-08-17,169
VISION-NSCLC,FA,VISION-NSCLC-SITE001-0052,72,SAXIS,Short Axis,TUMOR ASSESSMENT,,TARGET LESION 1,11.0,mm,11.0,11.0,mm,,,8.0,EOT,FOLLOW-UP,2024-08-17,169
VISION-NSCLC,FA,VISION-NSCLC-SITE001-0052,73,LDIAM,Longest Diameter,TUMOR ASSESSMENT,,TARGET LESION 2,28.9,mm,28.9,28.9,mm,,,8.0,EOT,FOLLOW-UP,2024-08-17,169
VISION-NSCLC,FA,VISION-NSCLC-SITE001-0052,74,SAXIS,Short Axis,TUMOR ASSESSMENT,,TARGET LESION 2,13.1,mm,13.1,13.1,mm,,,8.0,EOT,FOLLOW-UP,2024-08-17,169
VISION-NSCLC,FA,VISION-NSCLC-SITE001-0052,75,LDIAM,Longest Diameter,TUMOR ASSESSMENT,,TARGET LESION 3,42.5,mm,42.5,42.5,mm,,,8.0,EOT,FOLLOW-UP,2024-08-17,169
VISION-NSCLC,FA,VISION-NSCLC-SITE001-0052,76,SAXIS,Short Axis,TUMOR ASSESSMENT,,TARGET LESION 3,8.1,mm,8.1,8.1,mm,,,8.0,EOT,FOLLOW-UP,2024-08-17,169
VISION-NSCLC,FA,VISION-NSCLC-SITE001-0052,77,LDIAM,Longest Diameter,TUMOR ASSESSMENT,,TARGET LESION 4,21.4,mm,21.4,21.4,mm,,,8.0,EOT,FOLLOW-UP,2024-08-17,169
VISION-NSCLC,FA,VISION-NSCLC-SITE001-0052,78,SAXIS,Short Axis,TUMOR ASSESSMENT,,TARGET LESION 4,8.0,mm,8.0,8.0,mm,,,8.0,EOT,FOLLOW-UP,2024-08-17,169
VISION-NSCLC,FA,VISION-NSCLC-SITE001-0052,79,LDIAM,Longest Diameter,TUMOR ASSESSMENT,,TARGET LESION 5,45.0,mm,45.0,45.0,mm,,,8.0,EOT,FOLLOW-UP,2024-08-17,169
VISION-NSCLC,FA,VISION-NSCLC-SITE001-0052,80,SAXIS,Short Axis,TUMOR ASSESSMENT,,TARGET LESION 5,15.2,mm,15.2,15.2,mm,,,8.0,EOT,FOLLOW-UP,2024-08-17,169
VISION-NSCLC,FA,VISION-NSCLC-SITE001-0055,1,LDIAM,Longest Diameter,TUMOR ASSESSMENT,,TARGET LESION 1,44.7,mm,44.7,44.7,mm,,Y,1.0,SCREENING,SCREENING,2024-01-27,-30
VISION-NSCLC,FA,VISION-NSCLC-SITE001-0055,2,SAXIS,Short Axis,TUMOR ASSESSMENT,,TARGET LESION 1,19.0,mm,19.0,19.0,mm,,Y,1.0,SCREENING,SCREENING,2024-01-27,-30
VISION-NSCLC,FA,VISION-NSCLC-SITE001-0055,3,LDIAM,Longest Diameter,TUMOR ASSESSMENT,,TARGET LESION 2,36.4,mm,36.4,36.4,mm,,Y,1.0,SCREENING,SCREENING,2024-01-27,-30
VISION-NSCLC,FA,VISION-NSCLC-SITE001-0055,4,SAXIS,Short Axis,TUMOR ASSESSMENT,,TARGET LESION 2,5.9,mm,5.9,5.9,mm,,Y,1.0,SCREENING,SCREENING,2024-01-27,-30
VISION-NSCLC,FA,VISION-NSCLC-SITE001-0055,5,LDIAM,Longest Diameter,TUMOR ASSESSMENT,,TARGET LESION 3,34.4,mm,34.4,34.4,mm,,Y,1.0,SCREENING,SCREENING,2024-01-27,-30
VISION-NSCLC,FA,VISION-NSCLC-SITE001-0055,6,SAXIS,Short Axis,TUMOR ASSESSMENT,,TARGET LESION 3,11.7,mm,11.7,11.7,mm,,Y,1.0,SCREENING,SCREENING,2024-01-27,-30
VISION-NSCLC,FA,VISION-NSCLC-SITE001-0055,7,LDIAM,Longest Diameter,TUMOR ASSESSMENT,,TARGET LESION 1,41.4,mm,41.4,41.4,mm,,,2.0,C1D1,TREATMENT,2024-02-26,1
VISION-NSCLC,FA,VISION-NSCLC-SITE001-0055,8,SAXIS,Short Axis,TUMOR ASSESSMENT,,TARGET LESION 1,18.0,mm,18.0,18.0,mm,,,2.0,C1D1,TREATMENT,2024-02-26,1
VISION-NSCLC,FA,VISION-NSCLC-SITE001-0055,9,LDIAM,Longest Diameter,TUMOR ASSESSMENT,,TARGET LESION 2,33.2,mm,33.2,33.2,mm,,,2.0,C1D1,TREATMENT,2024-02-26,1
VISION-NSCLC,FA,VISION-NSCLC-SITE001-0055,10,SAXIS,Short Axis,TUMOR ASSESSMENT,,TARGET LESION 2,5.4,mm,5.4,5.4,mm,,,2.0,C1D1,TREATMENT,2024-02-26,1
VISION-NSCLC,FA,VISION-NSCLC-SITE001-0055,11,LDIAM,Longest Diameter,TUMOR ASSESSMENT,,TARGET LESION 3,30.0,mm,30.0,30.0,mm,,,2.0,C1D1,TREATMENT,2024-02-26,1
VISION-NSCLC,FA,VISION-NSCLC-SITE001-0055,12,SAXIS,Short Axis,TUMOR ASSESSMENT,,TARGET LESION 3,10.9,mm,10.9,10.9,mm,,,2.0,C1D1,TREATMENT,2024-02-26,1
VISION-NSCLC,FA,VISION-NSCLC-SITE001-0055,13,LDIAM,Longest Diameter,TUMOR ASSESSMENT,,TARGET LESION 1,39.6,mm,39.6,39.6,mm,,,3.0,C1D15,TREATMENT,2024-03-11,15
VISION-NSCLC,FA,VISION-NSCLC-SITE001-0055,14,SAXIS,Short Axis,TUMOR ASSESSMENT,,TARGET LESION 1,16.4,mm,16.4,16.4,mm,,,3.0,C1D15,TREATMENT,2024-03-11,15
VISION-NSCLC,FA,VISION-NSCLC-SITE001-0055,15,LDIAM,Longest Diameter,TUMOR ASSESSMENT,,TARGET LESION 2,33.9,mm,33.9,33.9,mm,,,3.0,C1D15,TREATMENT,2024-03-11,15
VISION-NSCLC,FA,VISION-NSCLC-SITE001-0055,16,SAXIS,Short Axis,TUMOR ASSESSMENT,,TARGET LESION 2,5.2,mm,5.2,5.2,mm,,,3.0,C1D15,TREATMENT,2024-03-11,15
VISION-NSCLC,FA,VISION-NSCLC-SITE001-0055,17,LDIAM,Longest Diameter,TUMOR ASSESSMENT,,TARGET LESION 3,30.7,mm,30.7,30.7,mm,,,3.0,C1D15,TREATMENT,2024-03-11,15
VISION-NSCLC,FA,VISION-NSCLC-SITE001-0055,18,SAXIS,Short Axis,TUMOR ASSESSMENT,,TARGET LESION 3,9.8,mm,9.8,9.8,mm,,,3.0,C1D15,TREATMENT,2024-03-11,15
VISION-NSCLC,FA,VISION-NSCLC-SITE001-0055,19,LDIAM,Longest Diameter,TUMOR ASSESSMENT,,TARGET LESION 1,37.1,mm,37.1,37.1,mm,,,4.0,C2D1,TREATMENT,2024-03-25,29
VISION-NSCLC,FA,VISION-NSCLC-SITE001-0055,20,SAXIS,Short Axis,TUMOR ASSESSMENT,,TARGET LESION 1,16.3,mm,16.3,16.3,mm,,,4.0,C2D1,TREATMENT,2024-03-25,29
VISION-NSCLC,FA,VISION-NSCLC-SITE001-0055,21,LDIAM,Longest Diameter,TUMOR ASSESSMENT,,TARGET LESION 2,27.6,mm,27.6,27.6,mm,,,4.0,C2D1,TREATMENT,2024-03-25,29
VISION-NSCLC,FA,VISION-NSCLC-SITE001-0055,22,SAXIS,Short Axis,TUMOR ASSESSMENT,,TARGET LESION 2,4.6,mm,4.6,4.6,mm,,,4.0,C2D1,TREATMENT,2024-03-25,29
VISION-NSCLC,FA,VISION-NSCLC-SITE001-0055,23,LDIAM,Longest Diameter,TUMOR ASSESSMENT,,TARGET LESION 3,28.6,mm,28.6,28.6,mm,,,4.0,C2D1,TREATMENT,2024-03-25,29
VISION-NSCLC,FA,VISION-NSCLC-SITE001-0055,24,SAXIS,Short Axis,TUMOR ASSESSMENT,,TARGET LESION 3,9.3,mm,9.3,9.3,mm,,,4.0,C2D1,TREATMENT,2024-03-25,29
VISION-NSCLC,FA,VISION-NSCLC-SITE001-0055,25,LDIAM,Longest Diameter,TUMOR ASSESSMENT,,TARGET LESION 1,34.5,mm,34.5,34.5,mm,,,5.0,C3D1,TREATMENT,2024-04-22,57
VISION-NSCLC,FA,VISION-NSCLC-SITE001-0055,26,SAXIS,Short Axis,TUMOR ASSESSMENT,,TARGET LESION 1,14.1,mm,14.1,14.1,mm,,,5.0,C3D1,TREATMENT,2024-04-22,57
VISION-NSCLC,FA,VISION-NSCLC-SITE001-0055,27,LDIAM,Longest Diameter,TUMOR ASSESSMENT,,TARGET LESION 2,28.3,mm,28.3,28.3,mm,,,5.0,C3D1,TREATMENT,2024-04-22,57
VISION-NSCLC,FA,VISION-NSCLC-SITE001-0055,28,SAXIS,Short Axis,TUMOR ASSESSMENT,,TARGET LESION 2,4.9,mm,4.9,4.9,mm,,,5.0,C3D1,TREATMENT,2024-04-22,57
VISION-NSCLC,FA,VISION-NSCLC-SITE001-0055,29,LDIAM,Longest Diameter,TUMOR ASSESSMENT,,TARGET LESION 3,27.2,mm,27.2,27.2,mm,,,5.0,C3D1,TREATMENT,2024-04-22,57
VISION-NSCLC,FA,VISION-NSCLC-SITE001-0055,30,SAXIS,Short Axis,TUMOR ASSESSMENT,,TARGET LESION 3,9.1,mm,9.1,9.1,mm,,,5.0,C3D1,TREATMENT,2024-04-22,57
VISION-NSCLC,FA,VISION-NSCLC-SITE001-0055,31,LDIAM,Longest Diameter,TUMOR ASSESSMENT,,TARGET LESION 1,33.9,mm,33.9,33.9,mm,,,6.0,C4D1,TREATMENT,2024-05-20,85
VISION-NSCLC,FA,VISION-NSCLC-SITE001-0055,32,SAXIS,Short Axis,TUMOR ASSESSMENT,,TARGET LESION 1,13.3,mm,13.3,13.3,mm,,,6.0,C4D1,TREATMENT,2024-05-20,85
VISION-NSCLC,FA,VISION-NSCLC-SITE001-0055,33,LDIAM,Longest Diameter,TUMOR ASSESSMENT,,TARGET LESION 2,24.2,mm,24.2,24.2,mm,,,6.0,C4D1,TREATMENT,2024-05-20,85
VISION-NSCLC,FA,VISION-NSCLC-SITE001-0055,34,SAXIS,Short Axis,TUMOR ASSESSMENT,,TARGET LESION 2,4.1,mm,4.1,4.1,mm,,,6.0,C4D1,TREATMENT,2024-05-20,85
VISION-NSCLC,FA,VISION-NSCLC-SITE001-0055,35,LDIAM,Longest Diameter,TUMOR ASSESSMENT,,TARGET LESION 3,23.5,mm,23.5,23.5,mm,,,6.0,C4D1,TREATMENT,2024-05-20,85
VISION-NSCLC,FA,VISION-NSCLC-SITE001-0055,36,SAXIS,Short Axis,TUMOR ASSESSMENT,,TARGET LESION 3,8.5,mm,8.5,8.5,mm,,,6.0,C4D1,TREATMENT,2024-05-20,85
VISION-NSCLC,FA,VISION-NSCLC-SITE001-0055,37,LDIAM,Longest Diameter,TUMOR ASSESSMENT,,TARGET LESION 1,28.8,mm,28.8,28.8,mm,,,7.0,C6D1,TREATMENT,2024-07-15,141
VISION-NSCLC,FA,VISION-NSCLC-SITE001-0055,38,SAXIS,Short Axis,TUMOR ASSESSMENT,,TARGET LESION 1,12.3,mm,12.3,12.3,mm,,,7.0,C6D1,TREATMENT,2024-07-15,141
VISION-NSCLC,FA,VISION-NSCLC-SITE001-0055,39,LDIAM,Longest Diameter,TUMOR ASSESSMENT,,TARGET LESION 2,25.7,mm,25.7,25.7,mm,,,7.0,C6D1,TREATMENT,2024-07-15,141
VISION-NSCLC,FA,VISION-NSCLC-SITE001-0055,40,SAXIS,Short Axis,TUMOR ASSESSMENT,,TARGET LESION 2,4.3,mm,4.3,4.3,mm,,,7.0,C6D1,TREATMENT,2024-07-15,141
VISION-NSCLC,FA,VISION-NSCLC-SITE001-0055,41,LDIAM,Longest Diameter,TUMOR ASSESSMENT,,TARGET LESION 3,21.3,mm,21.3,21.3,mm,,,7.0,C6D1,TREATMENT,2024-07-15,141
VISION-NSCLC,FA,VISION-NSCLC-SITE001-0055,42,SAXIS,Short Axis,TUMOR ASSESSMENT,,TARGET LESION 3,7.0,mm,7.0,7.0,mm,,,7.0,C6D1,TREATMENT,2024-07-15,141
VISION-NSCLC,FA,VISION-NSCLC-SITE001-0055,43,LDIAM,Longest Diameter,TUMOR ASSESSMENT,,TARGET LESION 1,26.4,mm,26.4,26.4,mm,,,8.0,EOT,FOLLOW-UP,2024-08-12,169
VISION-NSCLC,FA,VISION-NSCLC-SITE001-0055,44,SAXIS,Short Axis,TUMOR ASSESSMENT,,TARGET LESION 1,11.2,mm,11.2,11.2,mm,,,8.0,EOT,FOLLOW-UP,2024-08-12,169
VISION-NSCLC,FA,VISION-NSCLC-SITE001-0055,45,LDIAM,Longest Diameter,TUMOR ASSESSMENT,,TARGET LESION 2,20.2,mm,20.2,20.2,mm,,,8.0,EOT,FOLLOW-UP,2024-08-12,169
VISION-NSCLC,FA,VISION-NSCLC-SITE001-0055,46,SAXIS,Short Axis,TUMOR ASSESSMENT,,TARGET LESION 2,3,mm,3,3.0,mm,,,8.0,EOT,FOLLOW-UP,2024-08-12,169
VISION-NSCLC,FA,VISION-NSCLC-SITE001-0055,47,LDIAM,Longest Diameter,TUMOR ASSESSMENT,,TARGET LESION 3,23.0,mm,23.0,23.0,mm,,,8.0,EOT,FOLLOW-UP,2024-08-12,169
VISION-NSCLC,FA,VISION-NSCLC-SITE001-0055,48,SAXIS,Short Axis,TUMOR ASSESSMENT,,TARGET LESION 3,6.8,mm,6.8,6.8,mm,,,8.0,EOT,FOLLOW-UP,2024-08-12,169
VISION-NSCLC,FA,VISION-NSCLC-SITE001-0058,1,LDIAM,Longest Diameter,TUMOR ASSESSMENT,,TARGET LESION 1,32.9,mm,32.9,32.9,mm,,Y,1.0,SCREENING,SCREENING,2024-03-03,-32
VISION-NSCLC,FA,VISION-NSCLC-SITE001-0058,2,SAXIS,Short Axis,TUMOR ASSESSMENT,,TARGET LESION 1,17.8,mm,17.8,17.8,mm,,Y,1.0,SCREENING,SCREENING,2024-03-03,-32
VISION-NSCLC,FA,VISION-NSCLC-SITE001-0058,3,LDIAM,Longest Diameter,TUMOR ASSESSMENT,,TARGET LESION 2,15.9,mm,15.9,15.9,mm,,Y,1.0,SCREENING,SCREENING,2024-03-03,-32
VISION-NSCLC,FA,VISION-NSCLC-SITE001-0058,4,SAXIS,Short Axis,TUMOR ASSESSMENT,,TARGET LESION 2,6.7,mm,6.7,6.7,mm,,Y,1.0,SCREENING,SCREENING,2024-03-03,-32
VISION-NSCLC,FA,VISION-NSCLC-SITE001-0058,5,LDIAM,Longest Diameter,TUMOR ASSESSMENT,,TARGET LESION 1,32.9,mm,32.9,32.9,mm,,,2.0,C1D1,TREATMENT,2024-04-04,1
VISION-NSCLC,FA,VISION-NSCLC-SITE001-0058,6,SAXIS,Short Axis,TUMOR ASSESSMENT,,TARGET LESION 1,16.5,mm,16.5,16.5,mm,,,2.0,C1D1,TREATMENT,2024-04-04,1
VISION-NSCLC,FA,VISION-NSCLC-SITE001-0058,7,LDIAM,Longest Diameter,TUMOR ASSESSMENT,,TARGET LESION 2,15.1,mm,15.1,15.1,mm,,,2.0,C1D1,TREATMENT,2024-04-04,1
VISION-NSCLC,FA,VISION-NSCLC-SITE001-0058,8,SAXIS,Short Axis,TUMOR ASSESSMENT,,TARGET LESION 2,7.3,mm,7.3,7.3,mm,,,2.0,C1D1,TREATMENT,2024-04-04,1
VISION-NSCLC,FA,VISION-NSCLC-SITE001-0058,9,LDIAM,Longest Diameter,TUMOR ASSESSMENT,,TARGET LESION 1,27.3,mm,27.3,27.3,mm,,,3.0,C1D15,TREATMENT,2024-04-18,15
VISION-NSCLC,FA,VISION-NSCLC-SITE001-0058,10,SAXIS,Short Axis,TUMOR ASSESSMENT,,TARGET LESION 1,15.3,mm,15.3,15.3,mm,,,3.0,C1D15,TREATMENT,2024-04-18,15
VISION-NSCLC,FA,VISION-NSCLC-SITE001-0058,11,LDIAM,Longest Diameter,TUMOR ASSESSMENT,,TARGET LESION 2,15.4,mm,15.4,15.4,mm,,,3.0,C1D15,TREATMENT,2024-04-18,15
VISION-NSCLC,FA,VISION-NSCLC-SITE001-0058,12,SAXIS,Short Axis,TUMOR ASSESSMENT,,TARGET LESION 2,6.0,mm,6.0,6.0,mm,,,3.0,C1D15,TREATMENT,2024-04-18,15
VISION-NSCLC,FA,VISION-NSCLC-SITE001-0058,13,LDIAM,Longest Diameter,TUMOR ASSESSMENT,,TARGET LESION 1,26.8,mm,26.8,26.8,mm,,,4.0,C2D1,TREATMENT,2024-05-02,29
VISION-NSCLC,FA,VISION-NSCLC-SITE001-0058,14,SAXIS,Short Axis,TUMOR ASSESSMENT,,TARGET LESION 1,14.0,mm,14.0,14.0,mm,,,4.0,C2D1,TREATMENT,2024-05-02,29
VISION-NSCLC,FA,VISION-NSCLC-SITE001-0058,15,LDIAM,Longest Diameter,TUMOR ASSESSMENT,,TARGET LESION 2,13.8,mm,13.8,13.8,mm,,,4.0,C2D1,TREATMENT,2024-05-02,29
VISION-NSCLC,FA,VISION-NSCLC-SITE001-0058,16,SAXIS,Short Axis,TUMOR ASSESSMENT,,TARGET LESION 2,4.7,mm,4.7,4.7,mm,,,4.0,C2D1,TREATMENT,2024-05-02,29
VISION-NSCLC,FA,VISION-NSCLC-SITE001-0058,17,LDIAM,Longest Diameter,TUMOR ASSESSMENT,,TARGET LESION 1,28.1,mm,28.1,28.1,mm,,,5.0,C3D1,TREATMENT,2024-05-30,57
VISION-NSCLC,FA,VISION-NSCLC-SITE001-0058,18,SAXIS,Short Axis,TUMOR ASSESSMENT,,TARGET LESION 1,13.2,mm,13.2,13.2,mm,,,5.0,C3D1,TREATMENT,2024-05-30,57
VISION-NSCLC,FA,VISION-NSCLC-SITE001-0058,19,LDIAM,Longest Diameter,TUMOR ASSESSMENT,,TARGET LESION 2,12.5,mm,12.5,12.5,mm,,,5.0,C3D1,TREATMENT,2024-05-30,57
VISION-NSCLC,FA,VISION-NSCLC-SITE001-0058,20,SAXIS,Short Axis,TUMOR ASSESSMENT,,TARGET LESION 2,4.6,mm,4.6,4.6,mm,,,5.0,C3D1,TREATMENT,2024-05-30,57
VISION-NSCLC,FA,VISION-NSCLC-SITE001-0058,21,LDIAM,Longest Diameter,TUMOR ASSESSMENT,,TARGET LESION 1,23.1,mm,23.1,23.1,mm,,,6.0,C4D1,TREATMENT,2024-06-27,85
VISION-NSCLC,FA,VISION-NSCLC-SITE001-0058,22,SAXIS,Short Axis,TUMOR ASSESSMENT,,TARGET LESION 1,12.3,mm,12.3,12.3,mm,,,6.0,C4D1,TREATMENT,2024-06-27,85
VISION-NSCLC,FA,VISION-NSCLC-SITE001-0058,23,LDIAM,Longest Diameter,TUMOR ASSESSMENT,,TARGET LESION 2,11.7,mm,11.7,11.7,mm,,,6.0,C4D1,TREATMENT,2024-06-27,85
VISION-NSCLC,FA,VISION-NSCLC-SITE001-0058,24,SAXIS,Short Axis,TUMOR ASSESSMENT,,TARGET LESION 2,5.1,mm,5.1,5.1,mm,,,6.0,C4D1,TREATMENT,2024-06-27,85
VISION-NSCLC,FA,VISION-NSCLC-SITE001-0058,25,LDIAM,Longest Diameter,TUMOR ASSESSMENT,,TARGET LESION 1,20.2,mm,20.2,20.2,mm,,,7.0,C6D1,TREATMENT,2024-08-22,141
VISION-NSCLC,FA,VISION-NSCLC-SITE001-0058,26,SAXIS,Short Axis,TUMOR ASSESSMENT,,TARGET LESION 1,12.1,mm,12.1,12.1,mm,,,7.0,C6D1,TREATMENT,2024-08-22,141
VISION-NSCLC,FA,VISION-NSCLC-SITE001-0058,27,LDIAM,Longest Diameter,TUMOR ASSESSMENT,,TARGET LESION 2,10.4,mm,10.4,10.4,mm,,,7.0,C6D1,TREATMENT,2024-08-22,141
VISION-NSCLC,FA,VISION-NSCLC-SITE001-0058,28,SAXIS,Short Axis,TUMOR ASSESSMENT,,TARGET LESION 2,4.2,mm,4.2,4.2,mm,,,7.0,C6D1,TREATMENT,2024-08-22,141
VISION-NSCLC,FA,VISION-NSCLC-SITE001-0058,29,LDIAM,Longest Diameter,TUMOR ASSESSMENT,,TARGET LESION 1,17.2,mm,17.2,17.2,mm,,,8.0,EOT,FOLLOW-UP,2024-09-19,169
VISION-NSCLC,FA,VISION-NSCLC-SITE001-0058,30,SAXIS,Short Axis,TUMOR ASSESSMENT,,TARGET LESION 1,10.6,mm,10.6,10.6,mm,,,8.0,EOT,FOLLOW-UP,2024-09-19,169
VISION-NSCLC,FA,VISION-NSCLC-SITE001-0058,31,LDIAM,Longest Diameter,TUMOR ASSESSMENT,,TARGET LESION 2,8.9,mm,8.9,8.9,mm,,,8.0,EOT,FOLLOW-UP,2024-09-19,169
VISION-NSCLC,FA,VISION-NSCLC-SITE001-0058,32,SAXIS,Short Axis,TUMOR ASSESSMENT,,TARGET LESION 2,4.1,mm,4.1,4.1,mm,,,8.0,EOT,FOLLOW-UP,2024-09-19,169
VISION-NSCLC,FA,VISION-NSCLC-SITE001-0061,1,LDIAM,Longest Diameter,TUMOR ASSESSMENT,,TARGET LESION 1,43.4,mm,43.4,43.4,mm,,Y,1.0,SCREENING,SCREENING,2024-03-11,-14
VISION-NSCLC,FA,VISION-NSCLC-SITE001-0061,2,SAXIS,Short Axis,TUMOR ASSESSMENT,,TARGET LESION 1,23.3,mm,23.3,23.3,mm,,Y,1.0,SCREENING,SCREENING,2024-03-11,-14
VISION-NSCLC,FA,VISION-NSCLC-SITE001-0061,3,LDIAM,Longest Diameter,TUMOR ASSESSMENT,,TARGET LESION 2,41.2,mm,41.2,41.2,mm,,Y,1.0,SCREENING,SCREENING,2024-03-11,-14
VISION-NSCLC,FA,VISION-NSCLC-SITE001-0061,4,SAXIS,Short Axis,TUMOR ASSESSMENT,,TARGET LESION 2,17.8,mm,17.8,17.8,mm,,Y,1.0,SCREENING,SCREENING,2024-03-11,-14
VISION-NSCLC,FA,VISION-NSCLC-SITE001-0061,5,LDIAM,Longest Diameter,TUMOR ASSESSMENT,,TARGET LESION 3,18.1,mm,18.1,18.1,mm,,Y,1.0,SCREENING,SCREENING,2024-03-11,-14
VISION-NSCLC,FA,VISION-NSCLC-SITE001-0061,6,SAXIS,Short Axis,TUMOR ASSESSMENT,,TARGET LESION 3,11.3,mm,11.3,11.3,mm,,Y,1.0,SCREENING,SCREENING,2024-03-11,-14
VISION-NSCLC,FA,VISION-NSCLC-SITE001-0061,7,LDIAM,Longest Diameter,TUMOR ASSESSMENT,,TARGET LESION 4,34.8,mm,34.8,34.8,mm,,Y,1.0,SCREENING,SCREENING,2024-03-11,-14
VISION-NSCLC,FA,VISION-NSCLC-SITE001-0061,8,SAXIS,Short Axis,TUMOR ASSESSMENT,,TARGET LESION 4,17.9,mm,17.9,17.9,mm,,Y,1.0,SCREENING,SCREENING,2024-03-11,-14
VISION-NSCLC,FA,VISION-NSCLC-SITE001-0061,9,LDIAM,Longest Diameter,TUMOR ASSESSMENT,,TARGET LESION 1,39.8,mm,39.8,39.8,mm,,,2.0,C1D1,TREATMENT,2024-03-25,1
VISION-NSCLC,FA,VISION-NSCLC-SITE001-0061,10,SAXIS,Short Axis,TUMOR ASSESSMENT,,TARGET LESION 1,22.2,mm,22.2,22.2,mm,,,2.0,C1D1,TREATMENT,2024-03-25,1
VISION-NSCLC,FA,VISION-NSCLC-SITE001-0061,11,LDIAM,Longest Diameter,TUMOR ASSESSMENT,,TARGET LESION 2,39.1,mm,39.1,39.1,mm,,,2.0,C1D1,TREATMENT,2024-03-25,1
VISION-NSCLC,FA,VISION-NSCLC-SITE001-0061,12,SAXIS,Short Axis,TUMOR ASSESSMENT,,TARGET LESION 2,15.7,mm,15.7,15.7,mm,,,2.0,C1D1,TREATMENT,2024-03-25,1
VISION-NSCLC,FA,VISION-NSCLC-SITE001-0061,13,LDIAM,Longest Diameter,TUMOR ASSESSMENT,,TARGET LESION 3,15.2,mm,15.2,15.2,mm,,,2.0,C1D1,TREATMENT,2024-03-25,1
VISION-NSCLC,FA,VISION-NSCLC-SITE001-0061,14,SAXIS,Short Axis,TUMOR ASSESSMENT,,TARGET LESION 3,10.1,mm,10.1,10.1,mm,,,2.0,C1D1,TREATMENT,2024-03-25,1
VISION-NSCLC,FA,VISION-NSCLC-SITE001-0061,15,LDIAM,Longest Diameter,TUMOR ASSESSMENT,,TARGET LESION 4,31.6,mm,31.6,31.6,mm,,,2.0,C1D1,TREATMENT,2024-03-25,1
VISION-NSCLC,FA,VISION-NSCLC-SITE001-0061,16,SAXIS,Short Axis,TUMOR ASSESSMENT,,TARGET LESION 4,16.6,mm,16.6,16.6,mm,,,2.0,C1D1,TREATMENT,2024-03-25,1
VISION-NSCLC,FA,VISION-NSCLC-SITE001-0061,17,LDIAM,Longest Diameter,TUMOR ASSESSMENT,,TARGET LESION 1,38.5,mm,38.5,38.5,mm,,,3.0,C1D15,TREATMENT,2024-04-08,15
VISION-NSCLC,FA,VISION-NSCLC-SITE001-0061,18,SAXIS,Short Axis,TUMOR ASSESSMENT,,TARGET LESION 1,21.3,mm,21.3,21.3,mm,,,3.0,C1D15,TREATMENT,2024-04-08,15
VISION-NSCLC,FA,VISION-NSCLC-SITE001-0061,19,LDIAM,Longest Diameter,TUMOR ASSESSMENT,,TARGET LESION 2,37.7,mm,37.7,37.7,mm,,,3.0,C1D15,TREATMENT,2024-04-08,15
VISION-NSCLC,FA,VISION-NSCLC-SITE001-0061,20,SAXIS,Short Axis,TUMOR ASSESSMENT,,TARGET LESION 2,16.1,mm,16.1,16.1,mm,,,3.0,C1D15,TREATMENT,2024-04-08,15
VISION-NSCLC,FA,VISION-NSCLC-SITE001-0061,21,LDIAM,Longest Diameter,TUMOR ASSESSMENT,,TARGET LESION 3,16.9,mm,16.9,16.9,mm,,,3.0,C1D15,TREATMENT,2024-04-08,15
VISION-NSCLC,FA,VISION-NSCLC-SITE001-0061,22,SAXIS,Short Axis,TUMOR ASSESSMENT,,TARGET LESION 3,9.5,mm,9.5,9.5,mm,,,3.0,C1D15,TREATMENT,2024-04-08,15
VISION-NSCLC,FA,VISION-NSCLC-SITE001-0061,23,LDIAM,Longest Diameter,TUMOR ASSESSMENT,,TARGET LESION 4,28.1,mm,28.1,28.1,mm,,,3.0,C1D15,TREATMENT,2024-04-08,15
VISION-NSCLC,FA,VISION-NSCLC-SITE001-0061,24,SAXIS,Short Axis,TUMOR ASSESSMENT,,TARGET LESION 4,16.2,mm,16.2,16.2,mm,,,3.0,C1D15,TREATMENT,2024-04-08,15
VISION-NSCLC,FA,VISION-NSCLC-SITE001-0061,25,LDIAM,Longest Diameter,TUMOR ASSESSMENT,,TARGET LESION 1,38.5,mm,38.5,38.5,mm,,,4.0,C2D1,TREATMENT,2024-04-22,29
VISION-NSCLC,FA,VISION-NSCLC-SITE001-0061,26,SAXIS,Short Axis,TUMOR ASSESSMENT,,TARGET LESION 1,19.4,mm,19.4,19.4,mm,,,4.0,C2D1,TREATMENT,2024-04-22,29
VISION-NSCLC,FA,VISION-NSCLC-SITE001-0061,27,LDIAM,Longest Diameter,TUMOR ASSESSMENT,,TARGET LESION 2,33.5,mm,33.5,33.5,mm,,,4.0,C2D1,TREATMENT,2024-04-22,29
VISION-NSCLC,FA,VISION-NSCLC-SITE001-0061,28,SAXIS,Short Axis,TUMOR ASSESSMENT,,TARGET LESION 2,14.8,mm,14.8,14.8,mm,,,4.0,C2D1,TREATMENT,2024-04-22,29
VISION-NSCLC,FA,VISION-NSCLC-SITE001-0061,29,LDIAM,Longest Diameter,TUMOR ASSESSMENT,,TARGET LESION 3,15.5,mm,15.5,15.5,mm,,,4.0,C2D1,TREATMENT,2024-04-22,29
VISION-NSCLC,FA,VISION-NSCLC-SITE001-0061,30,SAXIS,Short Axis,TUMOR ASSESSMENT,,TARGET LESION 3,8.4,mm,8.4,8.4,mm,,,4.0,C2D1,TREATMENT,2024-04-22,29
VISION-NSCLC,FA,VISION-NSCLC-SITE001-0061,31,LDIAM,Longest Diameter,TUMOR ASSESSMENT,,TARGET LESION 4,27.1,mm,27.1,27.1,mm,,,4.0,C2D1,TREATMENT,2024-04-22,29
VISION-NSCLC,FA,VISION-NSCLC-SITE001-0061,32,SAXIS,Short Axis,TUMOR ASSESSMENT,,TARGET LESION 4,14.8,mm,14.8,14.8,mm,,,4.0,C2D1,TREATMENT,2024-04-22,29
VISION-NSCLC,FA,VISION-NSCLC-SITE001-0061,33,LDIAM,Longest Diameter,TUMOR ASSESSMENT,,TARGET LESION 1,36.5,mm,36.5,36.5,mm,,,5.0,C3D1,TREATMENT,2024-05-20,57
VISION-NSCLC,FA,VISION-NSCLC-SITE001-0061,34,SAXIS,Short Axis,TUMOR ASSESSMENT,,TARGET LESION 1,17.7,mm,17.7,17.7,mm,,,5.0,C3D1,TREATMENT,2024-05-20,57
VISION-NSCLC,FA,VISION-NSCLC-SITE001-0061,35,LDIAM,Longest Diameter,TUMOR ASSESSMENT,,TARGET LESION 2,36.1,mm,36.1,36.1,mm,,,5.0,C3D1,TREATMENT,2024-05-20,57
VISION-NSCLC,FA,VISION-NSCLC-SITE001-0061,36,SAXIS,Short Axis,TUMOR ASSESSMENT,,TARGET LESION 2,14.2,mm,14.2,14.2,mm,,,5.0,C3D1,TREATMENT,2024-05-20,57
VISION-NSCLC,FA,VISION-NSCLC-SITE001-0061,37,LDIAM,Longest Diameter,TUMOR ASSESSMENT,,TARGET LESION 3,15.4,mm,15.4,15.4,mm,,,5.0,C3D1,TREATMENT,2024-05-20,57
VISION-NSCLC,FA,VISION-NSCLC-SITE001-0061,38,SAXIS,Short Axis,TUMOR ASSESSMENT,,TARGET LESION 3,9.4,mm,9.4,9.4,mm,,,5.0,C3D1,TREATMENT,2024-05-20,57
VISION-NSCLC,FA,VISION-NSCLC-SITE001-0061,39,LDIAM,Longest Diameter,TUMOR ASSESSMENT,,TARGET LESION 4,26.7,mm,26.7,26.7,mm,,,5.0,C3D1,TREATMENT,2024-05-20,57
VISION-NSCLC,FA,VISION-NSCLC-SITE001-0061,40,SAXIS,Short Axis,TUMOR ASSESSMENT,,TARGET LESION 4,13.9,mm,13.9,13.9,mm,,,5.0,C3D1,TREATMENT,2024-05-20,57
VISION-NSCLC,FA,VISION-NSCLC-SITE001-0061,41,LDIAM,Longest Diameter,TUMOR ASSESSMENT,,TARGET LESION 1,31.0,mm,31.0,31.0,mm,,,6.0,C4D1,TREATMENT,2024-06-17,85
VISION-NSCLC,FA,VISION-NSCLC-SITE001-0061,42,SAXIS,Short Axis,TUMOR ASSESSMENT,,TARGET LESION 1,16.7,mm,16.7,16.7,mm,,,6.0,C4D1,TREATMENT,2024-06-17,85
VISION-NSCLC,FA,VISION-NSCLC-SITE001-0061,43,LDIAM,Longest Diameter,TUMOR ASSESSMENT,,TARGET LESION 2,29.4,mm,29.4,29.4,mm,,,6.0,C4D1,TREATMENT,2024-06-17,85
VISION-NSCLC,FA,VISION-NSCLC-SITE001-0061,44,SAXIS,Short Axis,TUMOR ASSESSMENT,,TARGET LESION 2,12.5,mm,12.5,12.5,mm,,,6.0,C4D1,TREATMENT,2024-06-17,85
VISION-NSCLC,FA,VISION-NSCLC-SITE001-0061,45,LDIAM,Longest Diameter,TUMOR ASSESSMENT,,TARGET LESION 3,13.7,mm,13.7,13.7,mm,,,6.0,C4D1,TREATMENT,2024-06-17,85
VISION-NSCLC,FA,VISION-NSCLC-SITE001-0061,46,SAXIS,Short Axis,TUMOR ASSESSMENT,,TARGET LESION 3,8.3,mm,8.3,8.3,mm,,,6.0,C4D1,TREATMENT,2024-06-17,85
VISION-NSCLC,FA,VISION-NSCLC-SITE001-0061,47,LDIAM,Longest Diameter,TUMOR ASSESSMENT,,TARGET LESION 4,24.6,mm,24.6,24.6,mm,,,6.0,C4D1,TREATMENT,2024-06-17,85
VISION-NSCLC,FA,VISION-NSCLC-SITE001-0061,48,SAXIS,Short Axis,TUMOR ASSESSMENT,,TARGET LESION 4,13.0,mm,13.0,13.0,mm,,,6.0,C4D1,TREATMENT,2024-06-17,85
VISION-NSCLC,FA,VISION-NSCLC-SITE001-0061,49,LDIAM,Longest Diameter,TUMOR ASSESSMENT,,TARGET LESION 1,28.7,mm,28.7,28.7,mm,,,7.0,C6D1,TREATMENT,2024-08-12,141
VISION-NSCLC,FA,VISION-NSCLC-SITE001-0061,50,SAXIS,Short Axis,TUMOR ASSESSMENT,,TARGET LESION 1,15.2,mm,15.2,15.2,mm,,,7.0,C6D1,TREATMENT,2024-08-12,141
VISION-NSCLC,FA,VISION-NSCLC-SITE001-0061,51,LDIAM,Longest Diameter,TUMOR ASSESSMENT,,TARGET LESION 2,26.2,mm,26.2,26.2,mm,,,7.0,C6D1,TREATMENT,2024-08-12,141
VISION-NSCLC,FA,VISION-NSCLC-SITE001-0061,52,SAXIS,Short Axis,TUMOR ASSESSMENT,,TARGET LESION 2,9.9,mm,9.9,9.9,mm,,,7.0,C6D1,TREATMENT,2024-08-12,141
VISION-NSCLC,FA,VISION-NSCLC-SITE001-0061,53,LDIAM,Longest Diameter,TUMOR ASSESSMENT,,TARGET LESION 3,13.4,mm,13.4,13.4,mm,,,7.0,C6D1,TREATMENT,2024-08-12,141
VISION-NSCLC,FA,VISION-NSCLC-SITE001-0061,54,SAXIS,Short Axis,TUMOR ASSESSMENT,,TARGET LESION 3,7.8,mm,7.8,7.8,mm,,,7.0,C6D1,TREATMENT,2024-08-12,141
VISION-NSCLC,FA,VISION-NSCLC-SITE001-0061,55,LDIAM,Longest Diameter,TUMOR ASSESSMENT,,TARGET LESION 4,22.9,mm,22.9,22.9,mm,,,7.0,C6D1,TREATMENT,2024-08-12,141
VISION-NSCLC,FA,VISION-NSCLC-SITE001-0061,56,SAXIS,Short Axis,TUMOR ASSESSMENT,,TARGET LESION 4,11.7,mm,11.7,11.7,mm,,,7.0,C6D1,TREATMENT,2024-08-12,141
VISION-NSCLC,FA,VISION-NSCLC-SITE001-0061,57,LDIAM,Longest Diameter,TUMOR ASSESSMENT,,TARGET LESION 1,25.8,mm,25.8,25.8,mm,,,8.0,EOT,FOLLOW-UP,2024-09-09,169
VISION-NSCLC,FA,VISION-NSCLC-SITE001-0061,58,SAXIS,Short Axis,TUMOR ASSESSMENT,,TARGET LESION 1,13.8,mm,13.8,13.8,mm,,,8.0,EOT,FOLLOW-UP,2024-09-09,169
VISION-NSCLC,FA,VISION-NSCLC-SITE001-0061,59,LDIAM,Longest Diameter,TUMOR ASSESSMENT,,TARGET LESION 2,25.8,mm,25.8,25.8,mm,,,8.0,EOT,FOLLOW-UP,2024-09-09,169
VISION-NSCLC,FA,VISION-NSCLC-SITE001-0061,60,SAXIS,Short Axis,TUMOR ASSESSMENT,,TARGET LESION 2,9.8,mm,9.8,9.8,mm,,,8.0,EOT,FOLLOW-UP,2024-09-09,169
VISION-NSCLC,FA,VISION-NSCLC-SITE001-0061,61,LDIAM,Longest Diameter,TUMOR ASSESSMENT,,TARGET LESION 3,8.7,mm,8.7,8.7,mm,,,8.0,EOT,FOLLOW-UP,2024-09-09,169
VISION-NSCLC,FA,VISION-NSCLC-SITE001-0061,62,SAXIS,Short Axis,TUMOR ASSESSMENT,,TARGET LESION 3,7.6,mm,7.6,7.6,mm,,,8.0,EOT,FOLLOW-UP,2024-09-09,169
VISION-NSCLC,FA,VISION-NSCLC-SITE001-0061,63,LDIAM,Longest Diameter,TUMOR ASSESSMENT,,TARGET LESION 4,19.9,mm,19.9,19.9,mm,,,8.0,EOT,FOLLOW-UP,2024-09-09,169
VISION-NSCLC,FA,VISION-NSCLC-SITE001-0061,64,SAXIS,Short Axis,TUMOR ASSESSMENT,,TARGET LESION 4,11.2,mm,11.2,11.2,mm,,,8.0,EOT,FOLLOW-UP,2024-09-09,169
VISION-NSCLC,FA,VISION-NSCLC-SITE001-0064,1,LDIAM,Longest Diameter,TUMOR ASSESSMENT,,TARGET LESION 1,46.9,mm,46.9,46.9,mm,,Y,1.0,SCREENING,SCREENING,2024-03-06,-12
VISION-NSCLC,FA,VISION-NSCLC-SITE001-0064,2,SAXIS,Short Axis,TUMOR ASSESSMENT,,TARGET LESION 1,13.3,mm,13.3,13.3,mm,,Y,1.0,SCREENING,SCREENING,2024-03-06,-12
VISION-NSCLC,FA,VISION-NSCLC-SITE001-0064,3,LDIAM,Longest Diameter,TUMOR ASSESSMENT,,TARGET LESION 2,32.7,mm,32.7,32.7,mm,,Y,1.0,SCREENING,SCREENING,2024-03-06,-12
VISION-NSCLC,FA,VISION-NSCLC-SITE001-0064,4,SAXIS,Short Axis,TUMOR ASSESSMENT,,TARGET LESION 2,17.5,mm,17.5,17.5,mm,,Y,1.0,SCREENING,SCREENING,2024-03-06,-12
VISION-NSCLC,FA,VISION-NSCLC-SITE001-0064,5,LDIAM,Longest Diameter,TUMOR ASSESSMENT,,TARGET LESION 3,61.9,mm,61.9,61.9,mm,,Y,1.0,SCREENING,SCREENING,2024-03-06,-12
VISION-NSCLC,FA,VISION-NSCLC-SITE001-0064,6,SAXIS,Short Axis,TUMOR ASSESSMENT,,TARGET LESION 3,11.1,mm,11.1,11.1,mm,,Y,1.0,SCREENING,SCREENING,2024-03-06,-12
VISION-NSCLC,FA,VISION-NSCLC-SITE001-0064,7,LDIAM,Longest Diameter,TUMOR ASSESSMENT,,TARGET LESION 4,28.3,mm,28.3,28.3,mm,,Y,1.0,SCREENING,SCREENING,2024-03-06,-12
VISION-NSCLC,FA,VISION-NSCLC-SITE001-0064,8,SAXIS,Short Axis,TUMOR ASSESSMENT,,TARGET LESION 4,7.8,mm,7.8,7.8,mm,,Y,1.0,SCREENING,SCREENING,2024-03-06,-12
VISION-NSCLC,FA,VISION-NSCLC-SITE001-0064,9,LDIAM,Longest Diameter,TUMOR ASSESSMENT,,TARGET LESION 1,55.5,mm,55.5,55.5,mm,,,2.0,C1D1,TREATMENT,2024-03-18,1
VISION-NSCLC,FA,VISION-NSCLC-SITE001-0064,10,SAXIS,Short Axis,TUMOR ASSESSMENT,,TARGET LESION 1,16.0,mm,16.0,16.0,mm,,,2.0,C1D1,TREATMENT,2024-03-18,1
VISION-NSCLC,FA,VISION-NSCLC-SITE001-0064,11,LDIAM,Longest Diameter,TUMOR ASSESSMENT,,TARGET LESION 2,42.4,mm,42.4,42.4,mm,,,2.0,C1D1,TREATMENT,2024-03-18,1
VISION-NSCLC,FA,VISION-NSCLC-SITE001-0064,12,SAXIS,Short Axis,TUMOR ASSESSMENT,,TARGET LESION 2,20.9,mm,20.9,20.9,mm,,,2.0,C1D1,TREATMENT,2024-03-18,1
VISION-NSCLC,FA,VISION-NSCLC-SITE001-0064,13,LDIAM,Longest Diameter,TUMOR ASSESSMENT,,TARGET LESION 3,72.6,mm,72.6,72.6,mm,,,2.0,C1D1,TREATMENT,2024-03-18,1
VISION-NSCLC,FA,VISION-NSCLC-SITE001-0064,14,SAXIS,Short Axis,TUMOR ASSESSMENT,,TARGET LESION 3,12.6,mm,12.6,12.6,mm,,,2.0,C1D1,TREATMENT,2024-03-18,1
VISION-NSCLC,FA,VISION-NSCLC-SITE001-0064,15,LDIAM,Longest Diameter,TUMOR ASSESSMENT,,TARGET LESION 4,32.1,mm,32.1,32.1,mm,,,2.0,C1D1,TREATMENT,2024-03-18,1
VISION-NSCLC,FA,VISION-NSCLC-SITE001-0064,16,SAXIS,Short Axis,TUMOR ASSESSMENT,,TARGET LESION 4,9.6,mm,9.6,9.6,mm,,,2.0,C1D1,TREATMENT,2024-03-18,1
VISION-NSCLC,FA,VISION-NSCLC-SITE001-0067,1,LDIAM,Longest Diameter,TUMOR ASSESSMENT,,TARGET LESION 1,22.1,mm,22.1,22.1,mm,,Y,1.0,SCREENING,SCREENING,2024-03-30,-25
VISION-NSCLC,FA,VISION-NSCLC-SITE001-0067,2,SAXIS,Short Axis,TUMOR ASSESSMENT,,TARGET LESION 1,5.3,mm,5.3,5.3,mm,,Y,1.0,SCREENING,SCREENING,2024-03-30,-25
VISION-NSCLC,FA,VISION-NSCLC-SITE001-0067,3,LDIAM,Longest Diameter,TUMOR ASSESSMENT,,TARGET LESION 2,31.7,mm,31.7,31.7,mm,,Y,1.0,SCREENING,SCREENING,2024-03-30,-25
VISION-NSCLC,FA,VISION-NSCLC-SITE001-0067,4,SAXIS,Short Axis,TUMOR ASSESSMENT,,TARGET LESION 2,13.1,mm,13.1,13.1,mm,,Y,1.0,SCREENING,SCREENING,2024-03-30,-25
VISION-NSCLC,FA,VISION-NSCLC-SITE001-0067,5,LDIAM,Longest Diameter,TUMOR ASSESSMENT,,TARGET LESION 1,23.0,mm,23.0,23.0,mm,,,2.0,C1D1,TREATMENT,2024-04-24,1
VISION-NSCLC,FA,VISION-NSCLC-SITE001-0067,6,SAXIS,Short Axis,TUMOR ASSESSMENT,,TARGET LESION 1,5.5,mm,5.5,5.5,mm,,,2.0,C1D1,TREATMENT,2024-04-24,1
VISION-NSCLC,FA,VISION-NSCLC-SITE001-0067,7,LDIAM,Longest Diameter,TUMOR ASSESSMENT,,TARGET LESION 2,32.3,mm,32.3,32.3,mm,,,2.0,C1D1,TREATMENT,2024-04-24,1
VISION-NSCLC,FA,VISION-NSCLC-SITE001-0067,8,SAXIS,Short Axis,TUMOR ASSESSMENT,,TARGET LESION 2,13.3,mm,13.3,13.3,mm,,,2.0,C1D1,TREATMENT,2024-04-24,1
VISION-NSCLC,FA,VISION-NSCLC-SITE001-0067,9,LDIAM,Longest Diameter,TUMOR ASSESSMENT,,TARGET LESION 1,23.4,mm,23.4,23.4,mm,,,3.0,C1D15,TREATMENT,2024-05-08,15
VISION-NSCLC,FA,VISION-NSCLC-SITE001-0067,10,SAXIS,Short Axis,TUMOR ASSESSMENT,,TARGET LESION 1,5.7,mm,5.7,5.7,mm,,,3.0,C1D15,TREATMENT,2024-05-08,15
VISION-NSCLC,FA,VISION-NSCLC-SITE001-0067,11,LDIAM,Longest Diameter,TUMOR ASSESSMENT,,TARGET LESION 2,33.2,mm,33.2,33.2,mm,,,3.0,C1D15,TREATMENT,2024-05-08,15
VISION-NSCLC,FA,VISION-NSCLC-SITE001-0067,12,SAXIS,Short Axis,TUMOR ASSESSMENT,,TARGET LESION 2,13.1,mm,13.1,13.1,mm,,,3.0,C1D15,TREATMENT,2024-05-08,15
VISION-NSCLC,FA,VISION-NSCLC-SITE001-0067,13,LDIAM,Longest Diameter,TUMOR ASSESSMENT,,TARGET LESION 1,27.8,mm,27.8,27.8,mm,,,4.0,C2D1,TREATMENT,2024-05-22,29
VISION-NSCLC,FA,VISION-NSCLC-SITE001-0067,14,SAXIS,Short Axis,TUMOR ASSESSMENT,,TARGET LESION 1,6.3,mm,6.3,6.3,mm,,,4.0,C2D1,TREATMENT,2024-05-22,29
VISION-NSCLC,FA,VISION-NSCLC-SITE001-0067,15,LDIAM,Longest Diameter,TUMOR ASSESSMENT,,TARGET LESION 2,34.3,mm,34.3,34.3,mm,,,4.0,C2D1,TREATMENT,2024-05-22,29
VISION-NSCLC,FA,VISION-NSCLC-SITE001-0067,16,SAXIS,Short Axis,TUMOR ASSESSMENT,,TARGET LESION 2,14.5,mm,14.5,14.5,mm,,,4.0,C2D1,TREATMENT,2024-05-22,29
VISION-NSCLC,FA,VISION-NSCLC-SITE001-0067,17,LDIAM,Longest Diameter,TUMOR ASSESSMENT,,TARGET LESION 1,27.3,mm,27.3,27.3,mm,,,5.0,C3D1,TREATMENT,2024-06-19,57
VISION-NSCLC,FA,VISION-NSCLC-SITE001-0067,18,SAXIS,Short Axis,TUMOR ASSESSMENT,,TARGET LESION 1,6.4,mm,6.4,6.4,mm,,,5.0,C3D1,TREATMENT,2024-06-19,57
VISION-NSCLC,FA,VISION-NSCLC-SITE001-0067,19,LDIAM,Longest Diameter,TUMOR ASSESSMENT,,TARGET LESION 2,37.2,mm,37.2,37.2,mm,,,5.0,C3D1,TREATMENT,2024-06-19,57
VISION-NSCLC,FA,VISION-NSCLC-SITE001-0067,20,SAXIS,Short Axis,TUMOR ASSESSMENT,,TARGET LESION 2,14.6,mm,14.6,14.6,mm,,,5.0,C3D1,TREATMENT,2024-06-19,57
VISION-NSCLC,FA,VISION-NSCLC-SITE001-0067,21,LDIAM,Longest Diameter,TUMOR ASSESSMENT,,TARGET LESION 1,26.3,mm,26.3,26.3,mm,,,6.0,C4D1,TREATMENT,2024-07-17,85
VISION-NSCLC,FA,VISION-NSCLC-SITE001-0067,22,SAXIS,Short Axis,TUMOR ASSESSMENT,,TARGET LESION 1,5.7,mm,5.7,5.7,mm,,,6.0,C4D1,TREATMENT,2024-07-17,85
VISION-NSCLC,FA,VISION-NSCLC-SITE001-0067,23,LDIAM,Longest Diameter,TUMOR ASSESSMENT,,TARGET LESION 2,34.7,mm,34.7,34.7,mm,,,6.0,C4D1,TREATMENT,2024-07-17,85
VISION-NSCLC,FA,VISION-NSCLC-SITE001-0067,24,SAXIS,Short Axis,TUMOR ASSESSMENT,,TARGET LESION 2,14.5,mm,14.5,14.5,mm,,,6.0,C4D1,TREATMENT,2024-07-17,85
VISION-NSCLC,FA,VISION-NSCLC-SITE001-0067,25,LDIAM,Longest Diameter,TUMOR ASSESSMENT,,TARGET LESION 1,24.8,mm,24.8,24.8,mm,,,7.0,C6D1,TREATMENT,2024-09-11,141
VISION-NSCLC,FA,VISION-NSCLC-SITE001-0067,26,SAXIS,Short Axis,TUMOR ASSESSMENT,,TARGET LESION 1,6.5,mm,6.5,6.5,mm,,,7.0,C6D1,TREATMENT,2024-09-11,141
VISION-NSCLC,FA,VISION-NSCLC-SITE001-0067,27,LDIAM,Longest Diameter,TUMOR ASSESSMENT,,TARGET LESION 2,36.0,mm,36.0,36.0,mm,,,7.0,C6D1,TREATMENT,2024-09-11,141
VISION-NSCLC,FA,VISION-NSCLC-SITE001-0067,28,SAXIS,Short Axis,TUMOR ASSESSMENT,,TARGET LESION 2,15.5,mm,15.5,15.5,mm,,,7.0,C6D1,TREATMENT,2024-09-11,141
VISION-NSCLC,FA,VISION-NSCLC-SITE001-0067,29,LDIAM,Longest Diameter,TUMOR ASSESSMENT,,TARGET LESION 1,25.0,mm,25.0,25.0,mm,,,8.0,EOT,FOLLOW-UP,2024-10-09,169
VISION-NSCLC,FA,VISION-NSCLC-SITE001-0067,30,SAXIS,Short Axis,TUMOR ASSESSMENT,,TARGET LESION 1,6.1,mm,6.1,6.1,mm,,,8.0,EOT,FOLLOW-UP,2024-10-09,169
VISION-NSCLC,FA,VISION-NSCLC-SITE001-0067,31,LDIAM,Longest Diameter,TUMOR ASSESSMENT,,TARGET LESION 2,35.1,mm,35.1,35.1,mm,,,8.0,EOT,FOLLOW-UP,2024-10-09,169
VISION-NSCLC,FA,VISION-NSCLC-SITE001-0067,32,SAXIS,Short Axis,TUMOR ASSESSMENT,,TARGET LESION 2,15.4,mm,15.4,15.4,mm,,,8.0,EOT,FOLLOW-UP,2024-10-09,169
VISION-NSCLC,FA,VISION-NSCLC-SITE001-0070,1,LDIAM,Longest Diameter,TUMOR ASSESSMENT,,TARGET LESION 1,35.0,mm,35.0,35.0,mm,,Y,1.0,SCREENING,SCREENING,2024-01-19,-10
VISION-NSCLC,FA,VISION-NSCLC-SITE001-0070,2,SAXIS,Short Axis,TUMOR ASSESSMENT,,TARGET LESION 1,9.8,mm,9.8,9.8,mm,,Y,1.0,SCREENING,SCREENING,2024-01-19,-10
VISION-NSCLC,FA,VISION-NSCLC-SITE001-0070,3,LDIAM,Longest Diameter,TUMOR ASSESSMENT,,TARGET LESION 2,21.6,mm,21.6,21.6,mm,,Y,1.0,SCREENING,SCREENING,2024-01-19,-10
VISION-NSCLC,FA,VISION-NSCLC-SITE001-0070,4,SAXIS,Short Axis,TUMOR ASSESSMENT,,TARGET LESION 2,7.7,mm,7.7,7.7,mm,,Y,1.0,SCREENING,SCREENING,2024-01-19,-10
VISION-NSCLC,FA,VISION-NSCLC-SITE001-0070,5,LDIAM,Longest Diameter,TUMOR ASSESSMENT,,TARGET LESION 3,36.9,mm,36.9,36.9,mm,,Y,1.0,SCREENING,SCREENING,2024-01-19,-10
VISION-NSCLC,FA,VISION-NSCLC-SITE001-0070,6,SAXIS,Short Axis,TUMOR ASSESSMENT,,TARGET LESION 3,3,mm,3,3.0,mm,,Y,1.0,SCREENING,SCREENING,2024-01-19,-10
VISION-NSCLC,FA,VISION-NSCLC-SITE001-0070,7,LDIAM,Longest Diameter,TUMOR ASSESSMENT,,TARGET LESION 4,35.8,mm,35.8,35.8,mm,,Y,1.0,SCREENING,SCREENING,2024-01-19,-10
VISION-NSCLC,FA,VISION-NSCLC-SITE001-0070,8,SAXIS,Short Axis,TUMOR ASSESSMENT,,TARGET LESION 4,15.5,mm,15.5,15.5,mm,,Y,1.0,SCREENING,SCREENING,2024-01-19,-10
VISION-NSCLC,FA,VISION-NSCLC-SITE001-0070,9,LDIAM,Longest Diameter,TUMOR ASSESSMENT,,TARGET LESION 5,60.4,mm,60.4,60.4,mm,,Y,1.0,SCREENING,SCREENING,2024-01-19,-10
VISION-NSCLC,FA,VISION-NSCLC-SITE001-0070,10,SAXIS,Short Axis,TUMOR ASSESSMENT,,TARGET LESION 5,3.9,mm,3.9,3.9,mm,,Y,1.0,SCREENING,SCREENING,2024-01-19,-10
VISION-NSCLC,FA,VISION-NSCLC-SITE001-0070,11,LDIAM,Longest Diameter,TUMOR ASSESSMENT,,TARGET LESION 1,31.0,mm,31.0,31.0,mm,,,2.0,C1D1,TREATMENT,2024-01-29,1
VISION-NSCLC,FA,VISION-NSCLC-SITE001-0070,12,SAXIS,Short Axis,TUMOR ASSESSMENT,,TARGET LESION 1,9.0,mm,9.0,9.0,mm,,,2.0,C1D1,TREATMENT,2024-01-29,1
VISION-NSCLC,FA,VISION-NSCLC-SITE001-0070,13,LDIAM,Longest Diameter,TUMOR ASSESSMENT,,TARGET LESION 2,20.7,mm,20.7,20.7,mm,,,2.0,C1D1,TREATMENT,2024-01-29,1
VISION-NSCLC,FA,VISION-NSCLC-SITE001-0070,14,SAXIS,Short Axis,TUMOR ASSESSMENT,,TARGET LESION 2,7.1,mm,7.1,7.1,mm,,,2.0,C1D1,TREATMENT,2024-01-29,1
VISION-NSCLC,FA,VISION-NSCLC-SITE001-0070,15,LDIAM,Longest Diameter,TUMOR ASSESSMENT,,TARGET LESION 3,33.5,mm,33.5,33.5,mm,,,2.0,C1D1,TREATMENT,2024-01-29,1
VISION-NSCLC,FA,VISION-NSCLC-SITE001-0070,16,SAXIS,Short Axis,TUMOR ASSESSMENT,,TARGET LESION 3,3,mm,3,3.0,mm,,,2.0,C1D1,TREATMENT,2024-01-29,1
VISION-NSCLC,FA,VISION-NSCLC-SITE001-0070,17,LDIAM,Longest Diameter,TUMOR ASSESSMENT,,TARGET LESION 4,32.7,mm,32.7,32.7,mm,,,2.0,C1D1,TREATMENT,2024-01-29,1
VISION-NSCLC,FA,VISION-NSCLC-SITE001-0070,18,SAXIS,Short Axis,TUMOR ASSESSMENT,,TARGET LESION 4,14.7,mm,14.7,14.7,mm,,,2.0,C1D1,TREATMENT,2024-01-29,1
VISION-NSCLC,FA,VISION-NSCLC-SITE001-0070,19,LDIAM,Longest Diameter,TUMOR ASSESSMENT,,TARGET LESION 5,56.6,mm,56.6,56.6,mm,,,2.0,C1D1,TREATMENT,2024-01-29,1
VISION-NSCLC,FA,VISION-NSCLC-SITE001-0070,20,SAXIS,Short Axis,TUMOR ASSESSMENT,,TARGET LESION 5,4.1,mm,4.1,4.1,mm,,,2.0,C1D1,TREATMENT,2024-01-29,1
VISION-NSCLC,FA,VISION-NSCLC-SITE001-0070,21,LDIAM,Longest Diameter,TUMOR ASSESSMENT,,TARGET LESION 1,31.7,mm,31.7,31.7,mm,,,3.0,C1D15,TREATMENT,2024-02-12,15
VISION-NSCLC,FA,VISION-NSCLC-SITE001-0070,22,SAXIS,Short Axis,TUMOR ASSESSMENT,,TARGET LESION 1,8.9,mm,8.9,8.9,mm,,,3.0,C1D15,TREATMENT,2024-02-12,15
VISION-NSCLC,FA,VISION-NSCLC-SITE001-0070,23,LDIAM,Longest Diameter,TUMOR ASSESSMENT,,TARGET LESION 2,17.7,mm,17.7,17.7,mm,,,3.0,C1D15,TREATMENT,2024-02-12,15
VISION-NSCLC,FA,VISION-NSCLC-SITE001-0070,24,SAXIS,Short Axis,TUMOR ASSESSMENT,,TARGET LESION 2,7.0,mm,7.0,7.0,mm,,,3.0,C1D15,TREATMENT,2024-02-12,15
VISION-NSCLC,FA,VISION-NSCLC-SITE001-0070,25,LDIAM,Longest Diameter,TUMOR ASSESSMENT,,TARGET LESION 3,32.4,mm,32.4,32.4,mm,,,3.0,C1D15,TREATMENT,2024-02-12,15
VISION-NSCLC,FA,VISION-NSCLC-SITE001-0070,26,SAXIS,Short Axis,TUMOR ASSESSMENT,,TARGET LESION 3,3,mm,3,3.0,mm,,,3.0,C1D15,TREATMENT,2024-02-12,15
VISION-NSCLC,FA,VISION-NSCLC-SITE001-0070,27,LDIAM,Longest Diameter,TUMOR ASSESSMENT,,TARGET LESION 4,33.5,mm,33.5,33.5,mm,,,3.0,C1D15,TREATMENT,2024-02-12,15
VISION-NSCLC,FA,VISION-NSCLC-SITE001-0070,28,SAXIS,Short Axis,TUMOR ASSESSMENT,,TARGET LESION 4,12.8,mm,12.8,12.8,mm,,,3.0,C1D15,TREATMENT,2024-02-12,15
VISION-NSCLC,FA,VISION-NSCLC-SITE001-0070,29,LDIAM,Longest Diameter,TUMOR ASSESSMENT,,TARGET LESION 5,53.9,mm,53.9,53.9,mm,,,3.0,C1D15,TREATMENT,2024-02-12,15
VISION-NSCLC,FA,VISION-NSCLC-SITE001-0070,30,SAXIS,Short Axis,TUMOR ASSESSMENT,,TARGET LESION 5,3.2,mm,3.2,3.2,mm,,,3.0,C1D15,TREATMENT,2024-02-12,15
VISION-NSCLC,FA,VISION-NSCLC-SITE001-0070,31,LDIAM,Longest Diameter,TUMOR ASSESSMENT,,TARGET LESION 1,28.8,mm,28.8,28.8,mm,,,4.0,C2D1,TREATMENT,2024-02-26,29
VISION-NSCLC,FA,VISION-NSCLC-SITE001-0070,32,SAXIS,Short Axis,TUMOR ASSESSMENT,,TARGET LESION 1,8.0,mm,8.0,8.0,mm,,,4.0,C2D1,TREATMENT,2024-02-26,29
VISION-NSCLC,FA,VISION-NSCLC-SITE001-0070,33,LDIAM,Longest Diameter,TUMOR ASSESSMENT,,TARGET LESION 2,16.5,mm,16.5,16.5,mm,,,4.0,C2D1,TREATMENT,2024-02-26,29
VISION-NSCLC,FA,VISION-NSCLC-SITE001-0070,34,SAXIS,Short Axis,TUMOR ASSESSMENT,,TARGET LESION 2,6.6,mm,6.6,6.6,mm,,,4.0,C2D1,TREATMENT,2024-02-26,29
VISION-NSCLC,FA,VISION-NSCLC-SITE001-0070,35,LDIAM,Longest Diameter,TUMOR ASSESSMENT,,TARGET LESION 3,28.9,mm,28.9,28.9,mm,,,4.0,C2D1,TREATMENT,2024-02-26,29
VISION-NSCLC,FA,VISION-NSCLC-SITE001-0070,36,SAXIS,Short Axis,TUMOR ASSESSMENT,,TARGET LESION 3,3,mm,3,3.0,mm,,,4.0,C2D1,TREATMENT,2024-02-26,29
VISION-NSCLC,FA,VISION-NSCLC-SITE001-0070,37,LDIAM,Longest Diameter,TUMOR ASSESSMENT,,TARGET LESION 4,29.7,mm,29.7,29.7,mm,,,4.0,C2D1,TREATMENT,2024-02-26,29
VISION-NSCLC,FA,VISION-NSCLC-SITE001-0070,38,SAXIS,Short Axis,TUMOR ASSESSMENT,,TARGET LESION 4,12.7,mm,12.7,12.7,mm,,,4.0,C2D1,TREATMENT,2024-02-26,29
VISION-NSCLC,FA,VISION-NSCLC-SITE001-0070,39,LDIAM,Longest Diameter,TUMOR ASSESSMENT,,TARGET LESION 5,49.9,mm,49.9,49.9,mm,,,4.0,C2D1,TREATMENT,2024-02-26,29
VISION-NSCLC,FA,VISION-NSCLC-SITE001-0070,40,SAXIS,Short Axis,TUMOR ASSESSMENT,,TARGET LESION 5,3,mm,3,3.0,mm,,,4.0,C2D1,TREATMENT,2024-02-26,29
VISION-NSCLC,FA,VISION-NSCLC-SITE001-0070,41,LDIAM,Longest Diameter,TUMOR ASSESSMENT,,TARGET LESION 1,25.6,mm,25.6,25.6,mm,,,5.0,C3D1,TREATMENT,2024-03-25,57
VISION-NSCLC,FA,VISION-NSCLC-SITE001-0070,42,SAXIS,Short Axis,TUMOR ASSESSMENT,,TARGET LESION 1,7.0,mm,7.0,7.0,mm,,,5.0,C3D1,TREATMENT,2024-03-25,57
VISION-NSCLC,FA,VISION-NSCLC-SITE001-0070,43,LDIAM,Longest Diameter,TUMOR ASSESSMENT,,TARGET LESION 2,19.3,mm,19.3,19.3,mm,,,5.0,C3D1,TREATMENT,2024-03-25,57
VISION-NSCLC,FA,VISION-NSCLC-SITE001-0070,44,SAXIS,Short Axis,TUMOR ASSESSMENT,,TARGET LESION 2,5.7,mm,5.7,5.7,mm,,,5.0,C3D1,TREATMENT,2024-03-25,57
VISION-NSCLC,FA,VISION-NSCLC-SITE001-0070,45,LDIAM,Longest Diameter,TUMOR ASSESSMENT,,TARGET LESION 3,28.1,mm,28.1,28.1,mm,,,5.0,C3D1,TREATMENT,2024-03-25,57
VISION-NSCLC,FA,VISION-NSCLC-SITE001-0070,46,SAXIS,Short Axis,TUMOR ASSESSMENT,,TARGET LESION 3,3,mm,3,3.0,mm,,,5.0,C3D1,TREATMENT,2024-03-25,57
VISION-NSCLC,FA,VISION-NSCLC-SITE001-0070,47,LDIAM,Longest Diameter,TUMOR ASSESSMENT,,TARGET LESION 4,27.0,mm,27.0,27.0,mm,,,5.0,C3D1,TREATMENT,2024-03-25,57
VISION-NSCLC,FA,VISION-NSCLC-SITE001-0070,48,SAXIS,Short Axis,TUMOR ASSESSMENT,,TARGET LESION 4,12.1,mm,12.1,12.1,mm,,,5.0,C3D1,TREATMENT,2024-03-25,57
VISION-NSCLC,FA,VISION-NSCLC-SITE001-0070,49,LDIAM,Longest Diameter,TUMOR ASSESSMENT,,TARGET LESION 5,47.0,mm,47.0,47.0,mm,,,5.0,C3D1,TREATMENT,2024-03-25,57
VISION-NSCLC,FA,VISION-NSCLC-SITE001-0070,50,SAXIS,Short Axis,TUMOR ASSESSMENT,,TARGET LESION 5,3.3,mm,3.3,3.3,mm,,,5.0,C3D1,TREATMENT,2024-03-25,57
VISION-NSCLC,FA,VISION-NSCLC-SITE001-0070,51,LDIAM,Longest Diameter,TUMOR ASSESSMENT,,TARGET LESION 1,26.6,mm,26.6,26.6,mm,,,6.0,C4D1,TREATMENT,2024-04-22,85
VISION-NSCLC,FA,VISION-NSCLC-SITE001-0070,52,SAXIS,Short Axis,TUMOR ASSESSMENT,,TARGET LESION 1,6.4,mm,6.4,6.4,mm,,,6.0,C4D1,TREATMENT,2024-04-22,85
VISION-NSCLC,FA,VISION-NSCLC-SITE001-0070,53,LDIAM,Longest Diameter,TUMOR ASSESSMENT,,TARGET LESION 2,13.8,mm,13.8,13.8,mm,,,6.0,C4D1,TREATMENT,2024-04-22,85
VISION-NSCLC,FA,VISION-NSCLC-SITE001-0070,54,SAXIS,Short Axis,TUMOR ASSESSMENT,,TARGET LESION 2,5.6,mm,5.6,5.6,mm,,,6.0,C4D1,TREATMENT,2024-04-22,85
VISION-NSCLC,FA,VISION-NSCLC-SITE001-0070,55,LDIAM,Longest Diameter,TUMOR ASSESSMENT,,TARGET LESION 3,25.0,mm,25.0,25.0,mm,,,6.0,C4D1,TREATMENT,2024-04-22,85
VISION-NSCLC,FA,VISION-NSCLC-SITE001-0070,56,SAXIS,Short Axis,TUMOR ASSESSMENT,,TARGET LESION 3,3,mm,3,3.0,mm,,,6.0,C4D1,TREATMENT,2024-04-22,85
VISION-NSCLC,FA,VISION-NSCLC-SITE001-0070,57,LDIAM,Longest Diameter,TUMOR ASSESSMENT,,TARGET LESION 4,26.8,mm,26.8,26.8,mm,,,6.0,C4D1,TREATMENT,2024-04-22,85
VISION-NSCLC,FA,VISION-NSCLC-SITE001-0070,58,SAXIS,Short Axis,TUMOR ASSESSMENT,,TARGET LESION 4,10.7,mm,10.7,10.7,mm,,,6.0,C4D1,TREATMENT,2024-04-22,85
VISION-NSCLC,FA,VISION-NSCLC-SITE001-0070,59,LDIAM,Longest Diameter,TUMOR ASSESSMENT,,TARGET LESION 5,43.5,mm,43.5,43.5,mm,,,6.0,C4D1,TREATMENT,2024-04-22,85
VISION-NSCLC,FA,VISION-NSCLC-SITE001-0070,60,SAXIS,Short Axis,TUMOR ASSESSMENT,,TARGET LESION 5,3,mm,3,3.0,mm,,,6.0,C4D1,TREATMENT,2024-04-22,85
VISION-NSCLC,FA,VISION-NSCLC-SITE001-0070,61,LDIAM,Longest Diameter,TUMOR ASSESSMENT,,TARGET LESION 1,20.5,mm,20.5,20.5,mm,,,7.0,C6D1,TREATMENT,2024-06-17,141
VISION-NSCLC,FA,VISION-NSCLC-SITE001-0070,62,SAXIS,Short Axis,TUMOR ASSESSMENT,,TARGET LESION 1,6.4,mm,6.4,6.4,mm,,,7.0,C6D1,TREATMENT,2024-06-17,141
VISION-NSCLC,FA,VISION-NSCLC-SITE001-0070,63,LDIAM,Longest Diameter,TUMOR ASSESSMENT,,TARGET LESION 2,13.0,mm,13.0,13.0,mm,,,7.0,C6D1,TREATMENT,2024-06-17,141
VISION-NSCLC,FA,VISION-NSCLC-SITE001-0070,64,SAXIS,Short Axis,TUMOR ASSESSMENT,,TARGET LESION 2,5.0,mm,5.0,5.0,mm,,,7.0,C6D1,TREATMENT,2024-06-17,141
VISION-NSCLC,FA,VISION-NSCLC-SITE001-0070,65,LDIAM,Longest Diameter,TUMOR ASSESSMENT,,TARGET LESION 3,24.0,mm,24.0,24.0,mm,,,7.0,C6D1,TREATMENT,2024-06-17,141
VISION-NSCLC,FA,VISION-NSCLC-SITE001-0070,66,SAXIS,Short Axis,TUMOR ASSESSMENT,,TARGET LESION 3,3,mm,3,3.0,mm,,,7.0,C6D1,TREATMENT,2024-06-17,141
VISION-NSCLC,FA,VISION-NSCLC-SITE001-0070,67,LDIAM,Longest Diameter,TUMOR ASSESSMENT,,TARGET LESION 4,25.3,mm,25.3,25.3,mm,,,7.0,C6D1,TREATMENT,2024-06-17,141
VISION-NSCLC,FA,VISION-NSCLC-SITE001-0070,68,SAXIS,Short Axis,TUMOR ASSESSMENT,,TARGET LESION 4,9.8,mm,9.8,9.8,mm,,,7.0,C6D1,TREATMENT,2024-06-17,141
VISION-NSCLC,FA,VISION-NSCLC-SITE001-0070,69,LDIAM,Longest Diameter,TUMOR ASSESSMENT,,TARGET LESION 5,38.5,mm,38.5,38.5,mm,,,7.0,C6D1,TREATMENT,2024-06-17,141
VISION-NSCLC,FA,VISION-NSCLC-SITE001-0070,70,SAXIS,Short Axis,TUMOR ASSESSMENT,,TARGET LESION 5,3,mm,3,3.0,mm,,,7.0,C6D1,TREATMENT,2024-06-17,141
VISION-NSCLC,FA,VISION-NSCLC-SITE001-0070,71,LDIAM,Longest Diameter,TUMOR ASSESSMENT,,TARGET LESION 1,21.8,mm,21.8,21.8,mm,,,8.0,EOT,FOLLOW-UP,2024-07-15,169
VISION-NSCLC,FA,VISION-NSCLC-SITE001-0070,72,SAXIS,Short Axis,TUMOR ASSESSMENT,,TARGET LESION 1,6.2,mm,6.2,6.2,mm,,,8.0,EOT,FOLLOW-UP,2024-07-15,169
VISION-NSCLC,FA,VISION-NSCLC-SITE001-0070,73,LDIAM,Longest Diameter,TUMOR ASSESSMENT,,TARGET LESION 2,14.4,mm,14.4,14.4,mm,,,8.0,EOT,FOLLOW-UP,2024-07-15,169
VISION-NSCLC,FA,VISION-NSCLC-SITE001-0070,74,SAXIS,Short Axis,TUMOR ASSESSMENT,,TARGET LESION 2,5.0,mm,5.0,5.0,mm,,,8.0,EOT,FOLLOW-UP,2024-07-15,169
VISION-NSCLC,FA,VISION-NSCLC-SITE001-0070,75,LDIAM,Longest Diameter,TUMOR ASSESSMENT,,TARGET LESION 3,23.9,mm,23.9,23.9,mm,,,8.0,EOT,FOLLOW-UP,2024-07-15,169
VISION-NSCLC,FA,VISION-NSCLC-SITE001-0070,76,SAXIS,Short Axis,TUMOR ASSESSMENT,,TARGET LESION 3,3,mm,3,3.0,mm,,,8.0,EOT,FOLLOW-UP,2024-07-15,169
VISION-NSCLC,FA,VISION-NSCLC-SITE001-0070,77,LDIAM,Longest Diameter,TUMOR ASSESSMENT,,TARGET LESION 4,20.1,mm,20.1,20.1,mm,,,8.0,EOT,FOLLOW-UP,2024-07-15,169
VISION-NSCLC,FA,VISION-NSCLC-SITE001-0070,78,SAXIS,Short Axis,TUMOR ASSESSMENT,,TARGET LESION 4,9.2,mm,9.2,9.2,mm,,,8.0,EOT,FOLLOW-UP,2024-07-15,169
VISION-NSCLC,FA,VISION-NSCLC-SITE001-0070,79,LDIAM,Longest Diameter,TUMOR ASSESSMENT,,TARGET LESION 5,37.5,mm,37.5,37.5,mm,,,8.0,EOT,FOLLOW-UP,2024-07-15,169
VISION-NSCLC,FA,VISION-NSCLC-SITE001-0070,80,SAXIS,Short Axis,TUMOR ASSESSMENT,,TARGET LESION 5,3,mm,3,3.0,mm,,,8.0,EOT,FOLLOW-UP,2024-07-15,169
VISION-NSCLC,FA,VISION-NSCLC-SITE001-0073,1,LDIAM,Longest Diameter,TUMOR ASSESSMENT,,TARGET LESION 1,33.6,mm,33.6,33.6,mm,,Y,1.0,SCREENING,SCREENING,2024-01-15,-11
VISION-NSCLC,FA,VISION-NSCLC-SITE001-0073,2,SAXIS,Short Axis,TUMOR ASSESSMENT,,TARGET LESION 1,10.3,mm,10.3,10.3,mm,,Y,1.0,SCREENING,SCREENING,2024-01-15,-11
VISION-NSCLC,FA,VISION-NSCLC-SITE001-0073,3,LDIAM,Longest Diameter,TUMOR ASSESSMENT,,TARGET LESION 1,33.8,mm,33.8,33.8,mm,,,2.0,C1D1,TREATMENT,2024-01-26,1
VISION-NSCLC,FA,VISION-NSCLC-SITE001-0073,4,SAXIS,Short Axis,TUMOR ASSESSMENT,,TARGET LESION 1,11.1,mm,11.1,11.1,mm,,,2.0,C1D1,TREATMENT,2024-01-26,1
VISION-NSCLC,FA,VISION-NSCLC-SITE001-0073,5,LDIAM,Longest Diameter,TUMOR ASSESSMENT,,TARGET LESION 1,34.8,mm,34.8,34.8,mm,,,3.0,C1D15,TREATMENT,2024-02-09,15
VISION-NSCLC,FA,VISION-NSCLC-SITE001-0073,6,SAXIS,Short Axis,TUMOR ASSESSMENT,,TARGET LESION 1,11.5,mm,11.5,11.5,mm,,,3.0,C1D15,TREATMENT,2024-02-09,15
VISION-NSCLC,FA,VISION-NSCLC-SITE001-0073,7,LDIAM,Longest Diameter,TUMOR ASSESSMENT,,TARGET LESION 1,37.3,mm,37.3,37.3,mm,,,4.0,C2D1,TREATMENT,2024-02-23,29
VISION-NSCLC,FA,VISION-NSCLC-SITE001-0073,8,SAXIS,Short Axis,TUMOR ASSESSMENT,,TARGET LESION 1,10.6,mm,10.6,10.6,mm,,,4.0,C2D1,TREATMENT,2024-02-23,29
VISION-NSCLC,FA,VISION-NSCLC-SITE001-0073,9,LDIAM,Longest Diameter,TUMOR ASSESSMENT,,TARGET LESION 1,36.2,mm,36.2,36.2,mm,,,5.0,C3D1,TREATMENT,2024-03-22,57
VISION-NSCLC,FA,VISION-NSCLC-SITE001-0073,10,SAXIS,Short Axis,TUMOR ASSESSMENT,,TARGET LESION 1,11.7,mm,11.7,11.7,mm,,,5.0,C3D1,TREATMENT,2024-03-22,57
VISION-NSCLC,FA,VISION-NSCLC-SITE001-0073,11,LDIAM,Longest Diameter,TUMOR ASSESSMENT,,TARGET LESION 1,38.0,mm,38.0,38.0,mm,,,6.0,C4D1,TREATMENT,2024-04-19,85
VISION-NSCLC,FA,VISION-NSCLC-SITE001-0073,12,SAXIS,Short Axis,TUMOR ASSESSMENT,,TARGET LESION 1,11.7,mm,11.7,11.7,mm,,,6.0,C4D1,TREATMENT,2024-04-19,85
VISION-NSCLC,FA,VISION-NSCLC-SITE001-0073,13,LDIAM,Longest Diameter,TUMOR ASSESSMENT,,TARGET LESION 1,39.1,mm,39.1,39.1,mm,,,7.0,C6D1,TREATMENT,2024-06-14,141
VISION-NSCLC,FA,VISION-NSCLC-SITE001-0073,14,SAXIS,Short Axis,TUMOR ASSESSMENT,,TARGET LESION 1,11.6,mm,11.6,11.6,mm,,,7.0,C6D1,TREATMENT,2024-06-14,141
VISION-NSCLC,FA,VISION-NSCLC-SITE001-0073,15,LDIAM,Longest Diameter,TUMOR ASSESSMENT,,TARGET LESION 1,39.4,mm,39.4,39.4,mm,,,8.0,EOT,FOLLOW-UP,2024-07-12,169
VISION-NSCLC,FA,VISION-NSCLC-SITE001-0073,16,SAXIS,Short Axis,TUMOR ASSESSMENT,,TARGET LESION 1,13.1,mm,13.1,13.1,mm,,,8.0,EOT,FOLLOW-UP,2024-07-12,169
VISION-NSCLC,FA,VISION-NSCLC-SITE001-0076,1,LDIAM,Longest Diameter,TUMOR ASSESSMENT,,TARGET LESION 1,52.6,mm,52.6,52.6,mm,,Y,1.0,SCREENING,SCREENING,2024-04-09,-23
VISION-NSCLC,FA,VISION-NSCLC-SITE001-0076,2,SAXIS,Short Axis,TUMOR ASSESSMENT,,TARGET LESION 1,10.6,mm,10.6,10.6,mm,,Y,1.0,SCREENING,SCREENING,2024-04-09,-23
VISION-NSCLC,FA,VISION-NSCLC-SITE001-0076,3,LDIAM,Longest Diameter,TUMOR ASSESSMENT,,TARGET LESION 2,30.9,mm,30.9,30.9,mm,,Y,1.0,SCREENING,SCREENING,2024-04-09,-23
VISION-NSCLC,FA,VISION-NSCLC-SITE001-0076,4,SAXIS,Short Axis,TUMOR ASSESSMENT,,TARGET LESION 2,3.2,mm,3.2,3.2,mm,,Y,1.0,SCREENING,SCREENING,2024-04-09,-23
VISION-NSCLC,FA,VISION-NSCLC-SITE001-0076,5,LDIAM,Longest Diameter,TUMOR ASSESSMENT,,TARGET LESION 1,50.0,mm,50.0,50.0,mm,,,2.0,C1D1,TREATMENT,2024-05-02,1
VISION-NSCLC,FA,VISION-NSCLC-SITE001-0076,6,SAXIS,Short Axis,TUMOR ASSESSMENT,,TARGET LESION 1,10.0,mm,10.0,10.0,mm,,,2.0,C1D1,TREATMENT,2024-05-02,1
VISION-NSCLC,FA,VISION-NSCLC-SITE001-0076,7,LDIAM,Longest Diameter,TUMOR ASSESSMENT,,TARGET LESION 2,30.1,mm,30.1,30.1,mm,,,2.0,C1D1,TREATMENT,2024-05-02,1
VISION-NSCLC,FA,VISION-NSCLC-SITE001-0076,8,SAXIS,Short Axis,TUMOR ASSESSMENT,,TARGET LESION 2,3,mm,3,3.0,mm,,,2.0,C1D1,TREATMENT,2024-05-02,1
VISION-NSCLC,FA,VISION-NSCLC-SITE001-0076,9,LDIAM,Longest Diameter,TUMOR ASSESSMENT,,TARGET LESION 1,53.6,mm,53.6,53.6,mm,,,3.0,C1D15,TREATMENT,2024-05-16,15
VISION-NSCLC,FA,VISION-NSCLC-SITE001-0076,10,SAXIS,Short Axis,TUMOR ASSESSMENT,,TARGET LESION 1,9.9,mm,9.9,9.9,mm,,,3.0,C1D15,TREATMENT,2024-05-16,15
VISION-NSCLC,FA,VISION-NSCLC-SITE001-0076,11,LDIAM,Longest Diameter,TUMOR ASSESSMENT,,TARGET LESION 2,27.8,mm,27.8,27.8,mm,,,3.0,C1D15,TREATMENT,2024-05-16,15
VISION-NSCLC,FA,VISION-NSCLC-SITE001-0076,12,SAXIS,Short Axis,TUMOR ASSESSMENT,,TARGET LESION 2,3,mm,3,3.0,mm,,,3.0,C1D15,TREATMENT,2024-05-16,15
VISION-NSCLC,FA,VISION-NSCLC-SITE001-0076,13,LDIAM,Longest Diameter,TUMOR ASSESSMENT,,TARGET LESION 1,50.3,mm,50.3,50.3,mm,,,4.0,C2D1,TREATMENT,2024-05-30,29
VISION-NSCLC,FA,VISION-NSCLC-SITE001-0076,14,SAXIS,Short Axis,TUMOR ASSESSMENT,,TARGET LESION 1,10.1,mm,10.1,10.1,mm,,,4.0,C2D1,TREATMENT,2024-05-30,29
VISION-NSCLC,FA,VISION-NSCLC-SITE001-0076,15,LDIAM,Longest Diameter,TUMOR ASSESSMENT,,TARGET LESION 2,29.3,mm,29.3,29.3,mm,,,4.0,C2D1,TREATMENT,2024-05-30,29
VISION-NSCLC,FA,VISION-NSCLC-SITE001-0076,16,SAXIS,Short Axis,TUMOR ASSESSMENT,,TARGET LESION 2,3.8,mm,3.8,3.8,mm,,,4.0,C2D1,TREATMENT,2024-05-30,29
VISION-NSCLC,FA,VISION-NSCLC-SITE001-0079,1,LDIAM,Longest Diameter,TUMOR ASSESSMENT,,TARGET LESION 1,33.7,mm,33.7,33.7,mm,,Y,1.0,SCREENING,SCREENING,2024-02-18,-30
VISION-NSCLC,FA,VISION-NSCLC-SITE001-0079,2,SAXIS,Short Axis,TUMOR ASSESSMENT,,TARGET LESION 1,12.6,mm,12.6,12.6,mm,,Y,1.0,SCREENING,SCREENING,2024-02-18,-30
VISION-NSCLC,FA,VISION-NSCLC-SITE001-0079,3,LDIAM,Longest Diameter,TUMOR ASSESSMENT,,TARGET LESION 1,27.5,mm,27.5,27.5,mm,,,2.0,C1D1,TREATMENT,2024-03-19,1
VISION-NSCLC,FA,VISION-NSCLC-SITE001-0079,4,SAXIS,Short Axis,TUMOR ASSESSMENT,,TARGET LESION 1,10.7,mm,10.7,10.7,mm,,,2.0,C1D1,TREATMENT,2024-03-19,1
VISION-NSCLC,FA,VISION-NSCLC-SITE001-0079,5,LDIAM,Longest Diameter,TUMOR ASSESSMENT,,TARGET LESION 1,23.6,mm,23.6,23.6,mm,,,3.0,C1D15,TREATMENT,2024-04-02,15
VISION-NSCLC,FA,VISION-NSCLC-SITE001-0079,6,SAXIS,Short Axis,TUMOR ASSESSMENT,,TARGET LESION 1,8.9,mm,8.9,8.9,mm,,,3.0,C1D15,TREATMENT,2024-04-02,15
VISION-NSCLC,FA,VISION-NSCLC-SITE001-0079,7,LDIAM,Longest Diameter,TUMOR ASSESSMENT,,TARGET LESION 1,20.6,mm,20.6,20.6,mm,,,4.0,C2D1,TREATMENT,2024-04-16,29
VISION-NSCLC,FA,VISION-NSCLC-SITE001-0079,8,SAXIS,Short Axis,TUMOR ASSESSMENT,,TARGET LESION 1,7.9,mm,7.9,7.9,mm,,,4.0,C2D1,TREATMENT,2024-04-16,29
VISION-NSCLC,FA,VISION-NSCLC-SITE001-0082,1,LDIAM,Longest Diameter,TUMOR ASSESSMENT,,TARGET LESION 1,12.2,mm,12.2,12.2,mm,,Y,1.0,SCREENING,SCREENING,2024-01-22,-34
VISION-NSCLC,FA,VISION-NSCLC-SITE001-0082,2,SAXIS,Short Axis,TUMOR ASSESSMENT,,TARGET LESION 1,14.3,mm,14.3,14.3,mm,,Y,1.0,SCREENING,SCREENING,2024-01-22,-34
VISION-NSCLC,FA,VISION-NSCLC-SITE001-0082,3,LDIAM,Longest Diameter,TUMOR ASSESSMENT,,TARGET LESION 2,57.1,mm,57.1,57.1,mm,,Y,1.0,SCREENING,SCREENING,2024-01-22,-34
VISION-NSCLC,FA,VISION-NSCLC-SITE001-0082,4,SAXIS,Short Axis,TUMOR ASSESSMENT,,TARGET LESION 2,11.9,mm,11.9,11.9,mm,,Y,1.0,SCREENING,SCREENING,2024-01-22,-34
VISION-NSCLC,FA,VISION-NSCLC-SITE001-0082,5,LDIAM,Longest Diameter,TUMOR ASSESSMENT,,TARGET LESION 3,29.8,mm,29.8,29.8,mm,,Y,1.0,SCREENING,SCREENING,2024-01-22,-34
VISION-NSCLC,FA,VISION-NSCLC-SITE001-0082,6,SAXIS,Short Axis,TUMOR ASSESSMENT,,TARGET LESION 3,14.1,mm,14.1,14.1,mm,,Y,1.0,SCREENING,SCREENING,2024-01-22,-34
VISION-NSCLC,FA,VISION-NSCLC-SITE001-0082,7,LDIAM,Longest Diameter,TUMOR ASSESSMENT,,TARGET LESION 1,12.8,mm,12.8,12.8,mm,,,2.0,C1D1,TREATMENT,2024-02-25,1
VISION-NSCLC,FA,VISION-NSCLC-SITE001-0082,8,SAXIS,Short Axis,TUMOR ASSESSMENT,,TARGET LESION 1,14.4,mm,14.4,14.4,mm,,,2.0,C1D1,TREATMENT,2024-02-25,1
VISION-NSCLC,FA,VISION-NSCLC-SITE001-0082,9,LDIAM,Longest Diameter,TUMOR ASSESSMENT,,TARGET LESION 2,60.1,mm,60.1,60.1,mm,,,2.0,C1D1,TREATMENT,2024-02-25,1
VISION-NSCLC,FA,VISION-NSCLC-SITE001-0082,10,SAXIS,Short Axis,TUMOR ASSESSMENT,,TARGET LESION 2,12.8,mm,12.8,12.8,mm,,,2.0,C1D1,TREATMENT,2024-02-25,1
VISION-NSCLC,FA,VISION-NSCLC-SITE001-0082,11,LDIAM,Longest Diameter,TUMOR ASSESSMENT,,TARGET LESION 3,28.9,mm,28.9,28.9,mm,,,2.0,C1D1,TREATMENT,2024-02-25,1
VISION-NSCLC,FA,VISION-NSCLC-SITE001-0082,12,SAXIS,Short Axis,TUMOR ASSESSMENT,,TARGET LESION 3,14.2,mm,14.2,14.2,mm,,,2.0,C1D1,TREATMENT,2024-02-25,1
VISION-NSCLC,FA,VISION-NSCLC-SITE001-0082,13,LDIAM,Longest Diameter,TUMOR ASSESSMENT,,TARGET LESION 1,13.2,mm,13.2,13.2,mm,,,3.0,C1D15,TREATMENT,2024-03-10,15
VISION-NSCLC,FA,VISION-NSCLC-SITE001-0082,14,SAXIS,Short Axis,TUMOR ASSESSMENT,,TARGET LESION 1,15.8,mm,15.8,15.8,mm,,,3.0,C1D15,TREATMENT,2024-03-10,15
VISION-NSCLC,FA,VISION-NSCLC-SITE001-0082,15,LDIAM,Longest Diameter,TUMOR ASSESSMENT,,TARGET LESION 2,63.1,mm,63.1,63.1,mm,,,3.0,C1D15,TREATMENT,2024-03-10,15
VISION-NSCLC,FA,VISION-NSCLC-SITE001-0082,16,SAXIS,Short Axis,TUMOR ASSESSMENT,,TARGET LESION 2,12.7,mm,12.7,12.7,mm,,,3.0,C1D15,TREATMENT,2024-03-10,15
VISION-NSCLC,FA,VISION-NSCLC-SITE001-0082,17,LDIAM,Longest Diameter,TUMOR ASSESSMENT,,TARGET LESION 3,28.8,mm,28.8,28.8,mm,,,3.0,C1D15,TREATMENT,2024-03-10,15
VISION-NSCLC,FA,VISION-NSCLC-SITE001-0082,18,SAXIS,Short Axis,TUMOR ASSESSMENT,,TARGET LESION 3,14.9,mm,14.9,14.9,mm,,,3.0,C1D15,TREATMENT,2024-03-10,15
VISION-NSCLC,FA,VISION-NSCLC-SITE001-0082,19,LDIAM,Longest Diameter,TUMOR ASSESSMENT,,TARGET LESION 1,15.6,mm,15.6,15.6,mm,,,4.0,C2D1,TREATMENT,2024-03-24,29
VISION-NSCLC,FA,VISION-NSCLC-SITE001-0082,20,SAXIS,Short Axis,TUMOR ASSESSMENT,,TARGET LESION 1,16.8,mm,16.8,16.8,mm,,,4.0,C2D1,TREATMENT,2024-03-24,29
VISION-NSCLC,FA,VISION-NSCLC-SITE001-0082,21,LDIAM,Longest Diameter,TUMOR ASSESSMENT,,TARGET LESION 2,61.8,mm,61.8,61.8,mm,,,4.0,C2D1,TREATMENT,2024-03-24,29
VISION-NSCLC,FA,VISION-NSCLC-SITE001-0082,22,SAXIS,Short Axis,TUMOR ASSESSMENT,,TARGET LESION 2,12.5,mm,12.5,12.5,mm,,,4.0,C2D1,TREATMENT,2024-03-24,29
VISION-NSCLC,FA,VISION-NSCLC-SITE001-0082,23,LDIAM,Longest Diameter,TUMOR ASSESSMENT,,TARGET LESION 3,31.4,mm,31.4,31.4,mm,,,4.0,C2D1,TREATMENT,2024-03-24,29
VISION-NSCLC,FA,VISION-NSCLC-SITE001-0082,24,SAXIS,Short Axis,TUMOR ASSESSMENT,,TARGET LESION 3,15.9,mm,15.9,15.9,mm,,,4.0,C2D1,TREATMENT,2024-03-24,29
VISION-NSCLC,FA,VISION-NSCLC-SITE001-0082,25,LDIAM,Longest Diameter,TUMOR ASSESSMENT,,TARGET LESION 1,13.6,mm,13.6,13.6,mm,,,5.0,C3D1,TREATMENT,2024-04-21,57
VISION-NSCLC,FA,VISION-NSCLC-SITE001-0082,26,SAXIS,Short Axis,TUMOR ASSESSMENT,,TARGET LESION 1,16.4,mm,16.4,16.4,mm,,,5.0,C3D1,TREATMENT,2024-04-21,57
VISION-NSCLC,FA,VISION-NSCLC-SITE001-0082,27,LDIAM,Longest Diameter,TUMOR ASSESSMENT,,TARGET LESION 2,65.8,mm,65.8,65.8,mm,,,5.0,C3D1,TREATMENT,2024-04-21,57
VISION-NSCLC,FA,VISION-NSCLC-SITE001-0082,28,SAXIS,Short Axis,TUMOR ASSESSMENT,,TARGET LESION 2,13.3,mm,13.3,13.3,mm,,,5.0,C3D1,TREATMENT,2024-04-21,57
VISION-NSCLC,FA,VISION-NSCLC-SITE001-0082,29,LDIAM,Longest Diameter,TUMOR ASSESSMENT,,TARGET LESION 3,31.4,mm,31.4,31.4,mm,,,5.0,C3D1,TREATMENT,2024-04-21,57
VISION-NSCLC,FA,VISION-NSCLC-SITE001-0082,30,SAXIS,Short Axis,TUMOR ASSESSMENT,,TARGET LESION 3,15.0,mm,15.0,15.0,mm,,,5.0,C3D1,TREATMENT,2024-04-21,57
VISION-NSCLC,FA,VISION-NSCLC-SITE001-0082,31,LDIAM,Longest Diameter,TUMOR ASSESSMENT,,TARGET LESION 1,13.9,mm,13.9,13.9,mm,,,6.0,C4D1,TREATMENT,2024-05-19,85
VISION-NSCLC,FA,VISION-NSCLC-SITE001-0082,32,SAXIS,Short Axis,TUMOR ASSESSMENT,,TARGET LESION 1,15.9,mm,15.9,15.9,mm,,,6.0,C4D1,TREATMENT,2024-05-19,85
VISION-NSCLC,FA,VISION-NSCLC-SITE001-0082,33,LDIAM,Longest Diameter,TUMOR ASSESSMENT,,TARGET LESION 2,62.6,mm,62.6,62.6,mm,,,6.0,C4D1,TREATMENT,2024-05-19,85
VISION-NSCLC,FA,VISION-NSCLC-SITE001-0082,34,SAXIS,Short Axis,TUMOR ASSESSMENT,,TARGET LESION 2,13.4,mm,13.4,13.4,mm,,,6.0,C4D1,TREATMENT,2024-05-19,85
VISION-NSCLC,FA,VISION-NSCLC-SITE001-0082,35,LDIAM,Longest Diameter,TUMOR ASSESSMENT,,TARGET LESION 3,34.6,mm,34.6,34.6,mm,,,6.0,C4D1,TREATMENT,2024-05-19,85
VISION-NSCLC,FA,VISION-NSCLC-SITE001-0082,36,SAXIS,Short Axis,TUMOR ASSESSMENT,,TARGET LESION 3,15.8,mm,15.8,15.8,mm,,,6.0,C4D1,TREATMENT,2024-05-19,85
VISION-NSCLC,FA,VISION-NSCLC-SITE001-0082,37,LDIAM,Longest Diameter,TUMOR ASSESSMENT,,TARGET LESION 1,16.1,mm,16.1,16.1,mm,,,7.0,C6D1,TREATMENT,2024-07-14,141
VISION-NSCLC,FA,VISION-NSCLC-SITE001-0082,38,SAXIS,Short Axis,TUMOR ASSESSMENT,,TARGET LESION 1,16.7,mm,16.7,16.7,mm,,,7.0,C6D1,TREATMENT,2024-07-14,141
VISION-NSCLC,FA,VISION-NSCLC-SITE001-0082,39,LDIAM,Longest Diameter,TUMOR ASSESSMENT,,TARGET LESION 2,68.5,mm,68.5,68.5,mm,,,7.0,C6D1,TREATMENT,2024-07-14,141
VISION-NSCLC,FA,VISION-NSCLC-SITE001-0082,40,SAXIS,Short Axis,TUMOR ASSESSMENT,,TARGET LESION 2,14.5,mm,14.5,14.5,mm,,,7.0,C6D1,TREATMENT,2024-07-14,141
VISION-NSCLC,FA,VISION-NSCLC-SITE001-0082,41,LDIAM,Longest Diameter,TUMOR ASSESSMENT,,TARGET LESION 3,34.8,mm,34.8,34.8,mm,,,7.0,C6D1,TREATMENT,2024-07-14,141
VISION-NSCLC,FA,VISION-NSCLC-SITE001-0082,42,SAXIS,Short Axis,TUMOR ASSESSMENT,,TARGET LESION 3,16.5,mm,16.5,16.5,mm,,,7.0,C6D1,TREATMENT,2024-07-14,141
VISION-NSCLC,FA,VISION-NSCLC-SITE001-0082,43,LDIAM,Longest Diameter,TUMOR ASSESSMENT,,TARGET LESION 1,15.1,mm,15.1,15.1,mm,,,8.0,EOT,FOLLOW-UP,2024-08-11,169
VISION-NSCLC,FA,VISION-NSCLC-SITE001-0082,44,SAXIS,Short Axis,TUMOR ASSESSMENT,,TARGET LESION 1,17.3,mm,17.3,17.3,mm,,,8.0,EOT,FOLLOW-UP,2024-08-11,169
VISION-NSCLC,FA,VISION-NSCLC-SITE001-0082,45,LDIAM,Longest Diameter,TUMOR ASSESSMENT,,TARGET LESION 2,70.4,mm,70.4,70.4,mm,,,8.0,EOT,FOLLOW-UP,2024-08-11,169
VISION-NSCLC,FA,VISION-NSCLC-SITE001-0082,46,SAXIS,Short Axis,TUMOR ASSESSMENT,,TARGET LESION 2,15.0,mm,15.0,15.0,mm,,,8.0,EOT,FOLLOW-UP,2024-08-11,169
VISION-NSCLC,FA,VISION-NSCLC-SITE001-0082,47,LDIAM,Longest Diameter,TUMOR ASSESSMENT,,TARGET LESION 3,35.7,mm,35.7,35.7,mm,,,8.0,EOT,FOLLOW-UP,2024-08-11,169
VISION-NSCLC,FA,VISION-NSCLC-SITE001-0082,48,SAXIS,Short Axis,TUMOR ASSESSMENT,,TARGET LESION 3,17.0,mm,17.0,17.0,mm,,,8.0,EOT,FOLLOW-UP,2024-08-11,169
VISION-NSCLC,FA,VISION-NSCLC-SITE001-0085,1,LDIAM,Longest Diameter,TUMOR ASSESSMENT,,TARGET LESION 1,27.1,mm,27.1,27.1,mm,,Y,1.0,SCREENING,SCREENING,2024-02-02,-26
VISION-NSCLC,FA,VISION-NSCLC-SITE001-0085,2,SAXIS,Short Axis,TUMOR ASSESSMENT,,TARGET LESION 1,13.6,mm,13.6,13.6,mm,,Y,1.0,SCREENING,SCREENING,2024-02-02,-26
VISION-NSCLC,FA,VISION-NSCLC-SITE001-0085,3,LDIAM,Longest Diameter,TUMOR ASSESSMENT,,TARGET LESION 2,23.7,mm,23.7,23.7,mm,,Y,1.0,SCREENING,SCREENING,2024-02-02,-26
VISION-NSCLC,FA,VISION-NSCLC-SITE001-0085,4,SAXIS,Short Axis,TUMOR ASSESSMENT,,TARGET LESION 2,12.4,mm,12.4,12.4,mm,,Y,1.0,SCREENING,SCREENING,2024-02-02,-26
VISION-NSCLC,FA,VISION-NSCLC-SITE001-0085,5,LDIAM,Longest Diameter,TUMOR ASSESSMENT,,TARGET LESION 1,23.7,mm,23.7,23.7,mm,,,2.0,C1D1,TREATMENT,2024-02-28,1
VISION-NSCLC,FA,VISION-NSCLC-SITE001-0085,6,SAXIS,Short Axis,TUMOR ASSESSMENT,,TARGET LESION 1,12.5,mm,12.5,12.5,mm,,,2.0,C1D1,TREATMENT,2024-02-28,1
VISION-NSCLC,FA,VISION-NSCLC-SITE001-0085,7,LDIAM,Longest Diameter,TUMOR ASSESSMENT,,TARGET LESION 2,20.8,mm,20.8,20.8,mm,,,2.0,C1D1,TREATMENT,2024-02-28,1
VISION-NSCLC,FA,VISION-NSCLC-SITE001-0085,8,SAXIS,Short Axis,TUMOR ASSESSMENT,,TARGET LESION 2,12.0,mm,12.0,12.0,mm,,,2.0,C1D1,TREATMENT,2024-02-28,1
VISION-NSCLC,FA,VISION-NSCLC-SITE001-0085,9,LDIAM,Longest Diameter,TUMOR ASSESSMENT,,TARGET LESION 1,22.9,mm,22.9,22.9,mm,,,3.0,C1D15,TREATMENT,2024-03-13,15
VISION-NSCLC,FA,VISION-NSCLC-SITE001-0085,10,SAXIS,Short Axis,TUMOR ASSESSMENT,,TARGET LESION 1,11.9,mm,11.9,11.9,mm,,,3.0,C1D15,TREATMENT,2024-03-13,15
VISION-NSCLC,FA,VISION-NSCLC-SITE001-0085,11,LDIAM,Longest Diameter,TUMOR ASSESSMENT,,TARGET LESION 2,22.9,mm,22.9,22.9,mm,,,3.0,C1D15,TREATMENT,2024-03-13,15
VISION-NSCLC,FA,VISION-NSCLC-SITE001-0085,12,SAXIS,Short Axis,TUMOR ASSESSMENT,,TARGET LESION 2,11.4,mm,11.4,11.4,mm,,,3.0,C1D15,TREATMENT,2024-03-13,15
VISION-NSCLC,FA,VISION-NSCLC-SITE001-0085,13,LDIAM,Longest Diameter,TUMOR ASSESSMENT,,TARGET LESION 1,19.6,mm,19.6,19.6,mm,,,4.0,C2D1,TREATMENT,2024-03-27,29
VISION-NSCLC,FA,VISION-NSCLC-SITE001-0085,14,SAXIS,Short Axis,TUMOR ASSESSMENT,,TARGET LESION 1,11.1,mm,11.1,11.1,mm,,,4.0,C2D1,TREATMENT,2024-03-27,29
VISION-NSCLC,FA,VISION-NSCLC-SITE001-0085,15,LDIAM,Longest Diameter,TUMOR ASSESSMENT,,TARGET LESION 2,18.3,mm,18.3,18.3,mm,,,4.0,C2D1,TREATMENT,2024-03-27,29
VISION-NSCLC,FA,VISION-NSCLC-SITE001-0085,16,SAXIS,Short Axis,TUMOR ASSESSMENT,,TARGET LESION 2,10.2,mm,10.2,10.2,mm,,,4.0,C2D1,TREATMENT,2024-03-27,29
VISION-NSCLC,FA,VISION-NSCLC-SITE001-0085,17,LDIAM,Longest Diameter,TUMOR ASSESSMENT,,TARGET LESION 1,20.5,mm,20.5,20.5,mm,,,5.0,C3D1,TREATMENT,2024-04-24,57
VISION-NSCLC,FA,VISION-NSCLC-SITE001-0085,18,SAXIS,Short Axis,TUMOR ASSESSMENT,,TARGET LESION 1,9.7,mm,9.7,9.7,mm,,,5.0,C3D1,TREATMENT,2024-04-24,57
VISION-NSCLC,FA,VISION-NSCLC-SITE001-0085,19,LDIAM,Longest Diameter,TUMOR ASSESSMENT,,TARGET LESION 2,18.5,mm,18.5,18.5,mm,,,5.0,C3D1,TREATMENT,2024-04-24,57
VISION-NSCLC,FA,VISION-NSCLC-SITE001-0085,20,SAXIS,Short Axis,TUMOR ASSESSMENT,,TARGET LESION 2,9.2,mm,9.2,9.2,mm,,,5.0,C3D1,TREATMENT,2024-04-24,57
VISION-NSCLC,FA,VISION-NSCLC-SITE001-0085,21,LDIAM,Longest Diameter,TUMOR ASSESSMENT,,TARGET LESION 1,19.5,mm,19.5,19.5,mm,,,6.0,C4D1,TREATMENT,2024-05-22,85
VISION-NSCLC,FA,VISION-NSCLC-SITE001-0085,22,SAXIS,Short Axis,TUMOR ASSESSMENT,,TARGET LESION 1,9.3,mm,9.3,9.3,mm,,,6.0,C4D1,TREATMENT,2024-05-22,85
VISION-NSCLC,FA,VISION-NSCLC-SITE001-0085,23,LDIAM,Longest Diameter,TUMOR ASSESSMENT,,TARGET LESION 2,17.5,mm,17.5,17.5,mm,,,6.0,C4D1,TREATMENT,2024-05-22,85
VISION-NSCLC,FA,VISION-NSCLC-SITE001-0085,24,SAXIS,Short Axis,TUMOR ASSESSMENT,,TARGET LESION 2,8.8,mm,8.8,8.8,mm,,,6.0,C4D1,TREATMENT,2024-05-22,85
VISION-NSCLC,FA,VISION-NSCLC-SITE001-0085,25,LDIAM,Longest Diameter,TUMOR ASSESSMENT,,TARGET LESION 1,20.9,mm,20.9,20.9,mm,,,7.0,C6D1,TREATMENT,2024-07-17,141
VISION-NSCLC,FA,VISION-NSCLC-SITE001-0085,26,SAXIS,Short Axis,TUMOR ASSESSMENT,,TARGET LESION 1,8.6,mm,8.6,8.6,mm,,,7.0,C6D1,TREATMENT,2024-07-17,141
VISION-NSCLC,FA,VISION-NSCLC-SITE001-0085,27,LDIAM,Longest Diameter,TUMOR ASSESSMENT,,TARGET LESION 2,20.3,mm,20.3,20.3,mm,,,7.0,C6D1,TREATMENT,2024-07-17,141
VISION-NSCLC,FA,VISION-NSCLC-SITE001-0085,28,SAXIS,Short Axis,TUMOR ASSESSMENT,,TARGET LESION 2,8.1,mm,8.1,8.1,mm,,,7.0,C6D1,TREATMENT,2024-07-17,141
VISION-NSCLC,FA,VISION-NSCLC-SITE001-0085,29,LDIAM,Longest Diameter,TUMOR ASSESSMENT,,TARGET LESION 1,16.0,mm,16.0,16.0,mm,,,8.0,EOT,FOLLOW-UP,2024-08-14,169
VISION-NSCLC,FA,VISION-NSCLC-SITE001-0085,30,SAXIS,Short Axis,TUMOR ASSESSMENT,,TARGET LESION 1,7.9,mm,7.9,7.9,mm,,,8.0,EOT,FOLLOW-UP,2024-08-14,169
VISION-NSCLC,FA,VISION-NSCLC-SITE001-0085,31,LDIAM,Longest Diameter,TUMOR ASSESSMENT,,TARGET LESION 2,15.4,mm,15.4,15.4,mm,,,8.0,EOT,FOLLOW-UP,2024-08-14,169
VISION-NSCLC,FA,VISION-NSCLC-SITE001-0085,32,SAXIS,Short Axis,TUMOR ASSESSMENT,,TARGET LESION 2,7.8,mm,7.8,7.8,mm,,,8.0,EOT,FOLLOW-UP,2024-08-14,169
VISION-NSCLC,FA,VISION-NSCLC-SITE001-0088,1,LDIAM,Longest Diameter,TUMOR ASSESSMENT,,TARGET LESION 1,62.9,mm,62.9,62.9,mm,,Y,1.0,SCREENING,SCREENING,2024-02-11,-17
VISION-NSCLC,FA,VISION-NSCLC-SITE001-0088,2,SAXIS,Short Axis,TUMOR ASSESSMENT,,TARGET LESION 1,17.3,mm,17.3,17.3,mm,,Y,1.0,SCREENING,SCREENING,2024-02-11,-17
VISION-NSCLC,FA,VISION-NSCLC-SITE001-0088,3,LDIAM,Longest Diameter,TUMOR ASSESSMENT,,TARGET LESION 2,39.3,mm,39.3,39.3,mm,,Y,1.0,SCREENING,SCREENING,2024-02-11,-17
VISION-NSCLC,FA,VISION-NSCLC-SITE001-0088,4,SAXIS,Short Axis,TUMOR ASSESSMENT,,TARGET LESION 2,11.5,mm,11.5,11.5,mm,,Y,1.0,SCREENING,SCREENING,2024-02-11,-17
VISION-NSCLC,FA,VISION-NSCLC-SITE001-0088,5,LDIAM,Longest Diameter,TUMOR ASSESSMENT,,TARGET LESION 3,30.4,mm,30.4,30.4,mm,,Y,1.0,SCREENING,SCREENING,2024-02-11,-17
VISION-NSCLC,FA,VISION-NSCLC-SITE001-0088,6,SAXIS,Short Axis,TUMOR ASSESSMENT,,TARGET LESION 3,9.1,mm,9.1,9.1,mm,,Y,1.0,SCREENING,SCREENING,2024-02-11,-17
VISION-NSCLC,FA,VISION-NSCLC-SITE001-0088,7,LDIAM,Longest Diameter,TUMOR ASSESSMENT,,TARGET LESION 1,64.1,mm,64.1,64.1,mm,,,2.0,C1D1,TREATMENT,2024-02-28,1
VISION-NSCLC,FA,VISION-NSCLC-SITE001-0088,8,SAXIS,Short Axis,TUMOR ASSESSMENT,,TARGET LESION 1,17.8,mm,17.8,17.8,mm,,,2.0,C1D1,TREATMENT,2024-02-28,1
VISION-NSCLC,FA,VISION-NSCLC-SITE001-0088,9,LDIAM,Longest Diameter,TUMOR ASSESSMENT,,TARGET LESION 2,40.0,mm,40.0,40.0,mm,,,2.0,C1D1,TREATMENT,2024-02-28,1
VISION-NSCLC,FA,VISION-NSCLC-SITE001-0088,10,SAXIS,Short Axis,TUMOR ASSESSMENT,,TARGET LESION 2,11.7,mm,11.7,11.7,mm,,,2.0,C1D1,TREATMENT,2024-02-28,1
VISION-NSCLC,FA,VISION-NSCLC-SITE001-0088,11,LDIAM,Longest Diameter,TUMOR ASSESSMENT,,TARGET LESION 3,30.0,mm,30.0,30.0,mm,,,2.0,C1D1,TREATMENT,2024-02-28,1
VISION-NSCLC,FA,VISION-NSCLC-SITE001-0088,12,SAXIS,Short Axis,TUMOR ASSESSMENT,,TARGET LESION 3,10.0,mm,10.0,10.0,mm,,,2.0,C1D1,TREATMENT,2024-02-28,1
VISION-NSCLC,FA,VISION-NSCLC-SITE001-0088,13,LDIAM,Longest Diameter,TUMOR ASSESSMENT,,TARGET LESION 1,66.1,mm,66.1,66.1,mm,,,3.0,C1D15,TREATMENT,2024-03-13,15
VISION-NSCLC,FA,VISION-NSCLC-SITE001-0088,14,SAXIS,Short Axis,TUMOR ASSESSMENT,,TARGET LESION 1,18.3,mm,18.3,18.3,mm,,,3.0,C1D15,TREATMENT,2024-03-13,15
VISION-NSCLC,FA,VISION-NSCLC-SITE001-0088,15,LDIAM,Longest Diameter,TUMOR ASSESSMENT,,TARGET LESION 2,41.0,mm,41.0,41.0,mm,,,3.0,C1D15,TREATMENT,2024-03-13,15
VISION-NSCLC,FA,VISION-NSCLC-SITE001-0088,16,SAXIS,Short Axis,TUMOR ASSESSMENT,,TARGET LESION 2,11.4,mm,11.4,11.4,mm,,,3.0,C1D15,TREATMENT,2024-03-13,15
VISION-NSCLC,FA,VISION-NSCLC-SITE001-0088,17,LDIAM,Longest Diameter,TUMOR ASSESSMENT,,TARGET LESION 3,32.1,mm,32.1,32.1,mm,,,3.0,C1D15,TREATMENT,2024-03-13,15
VISION-NSCLC,FA,VISION-NSCLC-SITE001-0088,18,SAXIS,Short Axis,TUMOR ASSESSMENT,,TARGET LESION 3,9.4,mm,9.4,9.4,mm,,,3.0,C1D15,TREATMENT,2024-03-13,15
VISION-NSCLC,FA,VISION-NSCLC-SITE001-0088,19,LDIAM,Longest Diameter,TUMOR ASSESSMENT,,TARGET LESION 1,67.6,mm,67.6,67.6,mm,,,4.0,C2D1,TREATMENT,2024-03-27,29
VISION-NSCLC,FA,VISION-NSCLC-SITE001-0088,20,SAXIS,Short Axis,TUMOR ASSESSMENT,,TARGET LESION 1,19.0,mm,19.0,19.0,mm,,,4.0,C2D1,TREATMENT,2024-03-27,29
VISION-NSCLC,FA,VISION-NSCLC-SITE001-0088,21,LDIAM,Longest Diameter,TUMOR ASSESSMENT,,TARGET LESION 2,44.6,mm,44.6,44.6,mm,,,4.0,C2D1,TREATMENT,2024-03-27,29
VISION-NSCLC,FA,VISION-NSCLC-SITE001-0088,22,SAXIS,Short Axis,TUMOR ASSESSMENT,,TARGET LESION 2,12.7,mm,12.7,12.7,mm,,,4.0,C2D1,TREATMENT,2024-03-27,29
VISION-NSCLC,FA,VISION-NSCLC-SITE001-0088,23,LDIAM,Longest Diameter,TUMOR ASSESSMENT,,TARGET LESION 3,32.6,mm,32.6,32.6,mm,,,4.0,C2D1,TREATMENT,2024-03-27,29
VISION-NSCLC,FA,VISION-NSCLC-SITE001-0088,24,SAXIS,Short Axis,TUMOR ASSESSMENT,,TARGET LESION 3,10.4,mm,10.4,10.4,mm,,,4.0,C2D1,TREATMENT,2024-03-27,29
VISION-NSCLC,FA,VISION-NSCLC-SITE001-0088,25,LDIAM,Longest Diameter,TUMOR ASSESSMENT,,TARGET LESION 1,69.0,mm,69.0,69.0,mm,,,5.0,C3D1,TREATMENT,2024-04-24,57
VISION-NSCLC,FA,VISION-NSCLC-SITE001-0088,26,SAXIS,Short Axis,TUMOR ASSESSMENT,,TARGET LESION 1,19.9,mm,19.9,19.9,mm,,,5.0,C3D1,TREATMENT,2024-04-24,57
VISION-NSCLC,FA,VISION-NSCLC-SITE001-0088,27,LDIAM,Longest Diameter,TUMOR ASSESSMENT,,TARGET LESION 2,42.4,mm,42.4,42.4,mm,,,5.0,C3D1,TREATMENT,2024-04-24,57
VISION-NSCLC,FA,VISION-NSCLC-SITE001-0088,28,SAXIS,Short Axis,TUMOR ASSESSMENT,,TARGET LESION 2,12.4,mm,12.4,12.4,mm,,,5.0,C3D1,TREATMENT,2024-04-24,57
VISION-NSCLC,FA,VISION-NSCLC-SITE001-0088,29,LDIAM,Longest Diameter,TUMOR ASSESSMENT,,TARGET LESION 3,33.1,mm,33.1,33.1,mm,,,5.0,C3D1,TREATMENT,2024-04-24,57
VISION-NSCLC,FA,VISION-NSCLC-SITE001-0088,30,SAXIS,Short Axis,TUMOR ASSESSMENT,,TARGET LESION 3,9.9,mm,9.9,9.9,mm,,,5.0,C3D1,TREATMENT,2024-04-24,57
VISION-NSCLC,FA,VISION-NSCLC-SITE001-0088,31,LDIAM,Longest Diameter,TUMOR ASSESSMENT,,TARGET LESION 1,71.5,mm,71.5,71.5,mm,,,6.0,C4D1,TREATMENT,2024-05-22,85
VISION-NSCLC,FA,VISION-NSCLC-SITE001-0088,32,SAXIS,Short Axis,TUMOR ASSESSMENT,,TARGET LESION 1,20.3,mm,20.3,20.3,mm,,,6.0,C4D1,TREATMENT,2024-05-22,85
VISION-NSCLC,FA,VISION-NSCLC-SITE001-0088,33,LDIAM,Longest Diameter,TUMOR ASSESSMENT,,TARGET LESION 2,45.2,mm,45.2,45.2,mm,,,6.0,C4D1,TREATMENT,2024-05-22,85
VISION-NSCLC,FA,VISION-NSCLC-SITE001-0088,34,SAXIS,Short Axis,TUMOR ASSESSMENT,,TARGET LESION 2,12.9,mm,12.9,12.9,mm,,,6.0,C4D1,TREATMENT,2024-05-22,85
VISION-NSCLC,FA,VISION-NSCLC-SITE001-0088,35,LDIAM,Longest Diameter,TUMOR ASSESSMENT,,TARGET LESION 3,33.3,mm,33.3,33.3,mm,,,6.0,C4D1,TREATMENT,2024-05-22,85
VISION-NSCLC,FA,VISION-NSCLC-SITE001-0088,36,SAXIS,Short Axis,TUMOR ASSESSMENT,,TARGET LESION 3,11.5,mm,11.5,11.5,mm,,,6.0,C4D1,TREATMENT,2024-05-22,85
VISION-NSCLC,FA,VISION-NSCLC-SITE001-0088,37,LDIAM,Longest Diameter,TUMOR ASSESSMENT,,TARGET LESION 1,73.9,mm,73.9,73.9,mm,,,7.0,C6D1,TREATMENT,2024-07-17,141
VISION-NSCLC,FA,VISION-NSCLC-SITE001-0088,38,SAXIS,Short Axis,TUMOR ASSESSMENT,,TARGET LESION 1,19.4,mm,19.4,19.4,mm,,,7.0,C6D1,TREATMENT,2024-07-17,141
VISION-NSCLC,FA,VISION-NSCLC-SITE001-0088,39,LDIAM,Longest Diameter,TUMOR ASSESSMENT,,TARGET LESION 2,46.2,mm,46.2,46.2,mm,,,7.0,C6D1,TREATMENT,2024-07-17,141
VISION-NSCLC,FA,VISION-NSCLC-SITE001-0088,40,SAXIS,Short Axis,TUMOR ASSESSMENT,,TARGET LESION 2,12.9,mm,12.9,12.9,mm,,,7.0,C6D1,TREATMENT,2024-07-17,141
VISION-NSCLC,FA,VISION-NSCLC-SITE001-0088,41,LDIAM,Longest Diameter,TUMOR ASSESSMENT,,TARGET LESION 3,36.9,mm,36.9,36.9,mm,,,7.0,C6D1,TREATMENT,2024-07-17,141
VISION-NSCLC,FA,VISION-NSCLC-SITE001-0088,42,SAXIS,Short Axis,TUMOR ASSESSMENT,,TARGET LESION 3,10.0,mm,10.0,10.0,mm,,,7.0,C6D1,TREATMENT,2024-07-17,141
VISION-NSCLC,FA,VISION-NSCLC-SITE001-0088,43,LDIAM,Longest Diameter,TUMOR ASSESSMENT,,TARGET LESION 1,76.8,mm,76.8,76.8,mm,,,8.0,EOT,FOLLOW-UP,2024-08-14,169
VISION-NSCLC,FA,VISION-NSCLC-SITE001-0088,44,SAXIS,Short Axis,TUMOR ASSESSMENT,,TARGET LESION 1,20.9,mm,20.9,20.9,mm,,,8.0,EOT,FOLLOW-UP,2024-08-14,169
VISION-NSCLC,FA,VISION-NSCLC-SITE001-0088,45,LDIAM,Longest Diameter,TUMOR ASSESSMENT,,TARGET LESION 2,46.1,mm,46.1,46.1,mm,,,8.0,EOT,FOLLOW-UP,2024-08-14,169
VISION-NSCLC,FA,VISION-NSCLC-SITE001-0088,46,SAXIS,Short Axis,TUMOR ASSESSMENT,,TARGET LESION 2,13.7,mm,13.7,13.7,mm,,,8.0,EOT,FOLLOW-UP,2024-08-14,169
VISION-NSCLC,FA,VISION-NSCLC-SITE001-0088,47,LDIAM,Longest Diameter,TUMOR ASSESSMENT,,TARGET LESION 3,35.0,mm,35.0,35.0,mm,,,8.0,EOT,FOLLOW-UP,2024-08-14,169
VISION-NSCLC,FA,VISION-NSCLC-SITE001-0088,48,SAXIS,Short Axis,TUMOR ASSESSMENT,,TARGET LESION 3,10.7,mm,10.7,10.7,mm,,,8.0,EOT,FOLLOW-UP,2024-08-14,169
VISION-NSCLC,FA,VISION-NSCLC-SITE001-0091,1,LDIAM,Longest Diameter,TUMOR ASSESSMENT,,TARGET LESION 1,54.0,mm,54.0,54.0,mm,,Y,1.0,SCREENING,SCREENING,2024-02-28,-19
VISION-NSCLC,FA,VISION-NSCLC-SITE001-0091,2,SAXIS,Short Axis,TUMOR ASSESSMENT,,TARGET LESION 1,11.7,mm,11.7,11.7,mm,,Y,1.0,SCREENING,SCREENING,2024-02-28,-19
VISION-NSCLC,FA,VISION-NSCLC-SITE001-0091,3,LDIAM,Longest Diameter,TUMOR ASSESSMENT,,TARGET LESION 2,27.9,mm,27.9,27.9,mm,,Y,1.0,SCREENING,SCREENING,2024-02-28,-19
VISION-NSCLC,FA,VISION-NSCLC-SITE001-0091,4,SAXIS,Short Axis,TUMOR ASSESSMENT,,TARGET LESION 2,4.5,mm,4.5,4.5,mm,,Y,1.0,SCREENING,SCREENING,2024-02-28,-19
VISION-NSCLC,FA,VISION-NSCLC-SITE001-0091,5,LDIAM,Longest Diameter,TUMOR ASSESSMENT,,TARGET LESION 1,47.3,mm,47.3,47.3,mm,,,2.0,C1D1,TREATMENT,2024-03-18,1
VISION-NSCLC,FA,VISION-NSCLC-SITE001-0091,6,SAXIS,Short Axis,TUMOR ASSESSMENT,,TARGET LESION 1,10.4,mm,10.4,10.4,mm,,,2.0,C1D1,TREATMENT,2024-03-18,1
VISION-NSCLC,FA,VISION-NSCLC-SITE001-0091,7,LDIAM,Longest Diameter,TUMOR ASSESSMENT,,TARGET LESION 2,26.0,mm,26.0,26.0,mm,,,2.0,C1D1,TREATMENT,2024-03-18,1
VISION-NSCLC,FA,VISION-NSCLC-SITE001-0091,8,SAXIS,Short Axis,TUMOR ASSESSMENT,,TARGET LESION 2,3.7,mm,3.7,3.7,mm,,,2.0,C1D1,TREATMENT,2024-03-18,1
VISION-NSCLC,FA,VISION-NSCLC-SITE001-0091,9,LDIAM,Longest Diameter,TUMOR ASSESSMENT,,TARGET LESION 1,37.8,mm,37.8,37.8,mm,,,3.0,C1D15,TREATMENT,2024-04-01,15
VISION-NSCLC,FA,VISION-NSCLC-SITE001-0091,10,SAXIS,Short Axis,TUMOR ASSESSMENT,,TARGET LESION 1,8.6,mm,8.6,8.6,mm,,,3.0,C1D15,TREATMENT,2024-04-01,15
VISION-NSCLC,FA,VISION-NSCLC-SITE001-0091,11,LDIAM,Longest Diameter,TUMOR ASSESSMENT,,TARGET LESION 2,17.8,mm,17.8,17.8,mm,,,3.0,C1D15,TREATMENT,2024-04-01,15
VISION-NSCLC,FA,VISION-NSCLC-SITE001-0091,12,SAXIS,Short Axis,TUMOR ASSESSMENT,,TARGET LESION 2,3.2,mm,3.2,3.2,mm,,,3.0,C1D15,TREATMENT,2024-04-01,15
VISION-NSCLC,FA,VISION-NSCLC-SITE001-0091,13,LDIAM,Longest Diameter,TUMOR ASSESSMENT,,TARGET LESION 1,30.7,mm,30.7,30.7,mm,,,4.0,C2D1,TREATMENT,2024-04-15,29
VISION-NSCLC,FA,VISION-NSCLC-SITE001-0091,14,SAXIS,Short Axis,TUMOR ASSESSMENT,,TARGET LESION 1,6.9,mm,6.9,6.9,mm,,,4.0,C2D1,TREATMENT,2024-04-15,29
VISION-NSCLC,FA,VISION-NSCLC-SITE001-0091,15,LDIAM,Longest Diameter,TUMOR ASSESSMENT,,TARGET LESION 2,16.1,mm,16.1,16.1,mm,,,4.0,C2D1,TREATMENT,2024-04-15,29
VISION-NSCLC,FA,VISION-NSCLC-SITE001-0091,16,SAXIS,Short Axis,TUMOR ASSESSMENT,,TARGET LESION 2,3,mm,3,3.0,mm,,,4.0,C2D1,TREATMENT,2024-04-15,29
VISION-NSCLC,FA,VISION-NSCLC-SITE001-0091,17,LDIAM,Longest Diameter,TUMOR ASSESSMENT,,TARGET LESION 1,23.6,mm,23.6,23.6,mm,,,5.0,C3D1,TREATMENT,2024-05-13,57
VISION-NSCLC,FA,VISION-NSCLC-SITE001-0091,18,SAXIS,Short Axis,TUMOR ASSESSMENT,,TARGET LESION 1,5.2,mm,5.2,5.2,mm,,,5.0,C3D1,TREATMENT,2024-05-13,57
VISION-NSCLC,FA,VISION-NSCLC-SITE001-0091,19,LDIAM,Longest Diameter,TUMOR ASSESSMENT,,TARGET LESION 2,13.6,mm,13.6,13.6,mm,,,5.0,C3D1,TREATMENT,2024-05-13,57
VISION-NSCLC,FA,VISION-NSCLC-SITE001-0091,20,SAXIS,Short Axis,TUMOR ASSESSMENT,,TARGET LESION 2,3,mm,3,3.0,mm,,,5.0,C3D1,TREATMENT,2024-05-13,57
VISION-NSCLC,FA,VISION-NSCLC-SITE001-0091,21,LDIAM,Longest Diameter,TUMOR ASSESSMENT,,TARGET LESION 1,16.8,mm,16.8,16.8,mm,,,6.0,C4D1,TREATMENT,2024-06-10,85
VISION-NSCLC,FA,VISION-NSCLC-SITE001-0091,22,SAXIS,Short Axis,TUMOR ASSESSMENT,,TARGET LESION 1,3,mm,3,3.0,mm,,,6.0,C4D1,TREATMENT,2024-06-10,85
VISION-NSCLC,FA,VISION-NSCLC-SITE001-0091,23,LDIAM,Longest Diameter,TUMOR ASSESSMENT,,TARGET LESION 2,8.3,mm,8.3,8.3,mm,,,6.0,C4D1,TREATMENT,2024-06-10,85
VISION-NSCLC,FA,VISION-NSCLC-SITE001-0091,24,SAXIS,Short Axis,TUMOR ASSESSMENT,,TARGET LESION 2,3,mm,3,3.0,mm,,,6.0,C4D1,TREATMENT,2024-06-10,85
VISION-NSCLC,FA,VISION-NSCLC-SITE001-0091,25,LDIAM,Longest Diameter,TUMOR ASSESSMENT,,TARGET LESION 1,7.1,mm,7.1,7.1,mm,,,7.0,C6D1,TREATMENT,2024-08-05,141
VISION-NSCLC,FA,VISION-NSCLC-SITE001-0091,26,SAXIS,Short Axis,TUMOR ASSESSMENT,,TARGET LESION 1,3,mm,3,3.0,mm,,,7.0,C6D1,TREATMENT,2024-08-05,141
VISION-NSCLC,FA,VISION-NSCLC-SITE001-0091,27,LDIAM,Longest Diameter,TUMOR ASSESSMENT,,TARGET LESION 2,5,mm,5,5.0,mm,,,7.0,C6D1,TREATMENT,2024-08-05,141
VISION-NSCLC,FA,VISION-NSCLC-SITE001-0091,28,SAXIS,Short Axis,TUMOR ASSESSMENT,,TARGET LESION 2,3,mm,3,3.0,mm,,,7.0,C6D1,TREATMENT,2024-08-05,141
