{"subject_id":"VISION-NSCLC-SITE003-0471","study_id":"VISION-NSCLC","generated_at":"2026-06-09T04:14:45.066949+00:00","sdtmig_version":"3.4","flags":{"has_serious_ae":true,"has_fatal_ae":false,"has_protocol_deviation":true,"n_protocol_deviations":1,"n_adverse_events":2,"n_concomitant_meds":2,"max_ae_severity":"SEVERE","screen_failure":false,"discontinued_early":true,"discontinuation_reason":"ADVERSE EVENT","death":false,"exposure_days":21},"timeline":[{"dtc":"2022-03-23","dy":"-749","event":"CM START: ESOMEPRAZOLE","domain":"CM","category":"concomitant_med"},{"dtc":"2024-02-22","dy":"-48","event":"VISIT: SCREENING","domain":"SV","category":"visit"},{"dtc":"2024-03-22","dy":"-19","event":"INFORMED CONSENT OBTAINED","domain":"DS","category":"milestone"},{"dtc":"2024-04-10","dy":"1","event":"RANDOMIZED","domain":"DS","category":"milestone"},{"dtc":"2024-04-10","dy":"1","event":"FIRST DOSE: TEPOTINIB","domain":"EX","category":"exposure"},{"dtc":"2024-04-10","dy":"1","event":"AE: Pneumonia (MILD)","domain":"AE","category":"adverse_event"},{"dtc":"2024-04-10","dy":"1","event":"VISIT: C1D1","domain":"SV","category":"visit"},{"dtc":"2024-04-22","dy":"13","event":"DEVIATION: VISIT OCCURRED OUTSIDE VISIT WINDOW","domain":"DV","category":"deviation"},{"dtc":"2024-04-22","dy":"13","event":"VISIT: C1D15","domain":"SV","category":"visit"},{"dtc":"2024-05-06","dy":"27","event":"VISIT: C2D1","domain":"SV","category":"visit"},{"dtc":"2024-05-18","dy":"39","event":"ADVERSE EVENT","domain":"DS","category":"milestone"},{"dtc":"2024-05-18","dy":"39","event":"AE: Nausea (SEVERE) [SERIOUS]","domain":"AE","category":"adverse_event"},{"dtc":"2024-05-18","dy":"39","event":"CM START: METOCLOPRAMIDE","domain":"CM","category":"concomitant_med"}],"section_1_demographics":{"usubjid":"VISION-NSCLC-SITE003-0471","subjid":"0471","siteid":"SITE003","age":"65","ageu":"YEARS","sex":"M","race":"WHITE","ethnicity":"HISPANIC OR LATINO","country":"USA","arm":"Tepotinib 500mg QD","armcd":"TEP500","actarm":"Tepotinib 500mg QD","actarmcd":"TEP500","randomization_date":null,"informed_consent_date":"2024-03-22","reference_start_date":"2024-04-10","reference_end_date":"2024-05-18","screen_failure":false,"death_flag":null,"death_date":null,"subject_characteristics":[{"testcd":"ALCUSE","test":"Alcohol Use","orres":"CURRENT DRINKER","stresc":"CURRENT DRINKER","visit":null,"dtc":"2024-03-22"},{"testcd":"BMI","test":"Body Mass Index","orres":"19.4","stresc":"19.4","visit":null,"dtc":"2024-03-22"},{"testcd":"DURDIS","test":"Duration of Disease","orres":"24 months","stresc":"24","visit":null,"dtc":"2024-03-22"},{"testcd":"TOBUSE","test":"Tobacco Use","orres":"NEVER SMOKED","stresc":"NEVER SMOKED","visit":null,"dtc":"2024-03-22"}]},"section_2_medical_history":{"items":[{"seq":"1","term":"GASTROESOPHAGEAL REFLUX DISEASE","decod":"GASTROESOPHAGEAL REFLUX DISEASE","cat":"GASTROINTESTINAL","scat":null,"presp":null,"occur":null,"status":null,"onset_dtc":"2022-03-23","end_dtc":null,"visit":null}]},"section_3_inclusion_exclusion":{"criteria":[]},"section_4_trial_participation":{"visits":[{"visitnum":"1.0","visit":"SCREENING","start_dtc":"2024-02-22","end_dtc":"2024-02-22","updes":null},{"visitnum":"2.0","visit":"C1D1","start_dtc":"2024-04-10","end_dtc":"2024-04-10","updes":null},{"visitnum":"3.0","visit":"C1D15","start_dtc":"2024-04-22","end_dtc":"2024-04-22","updes":null},{"visitnum":"4.0","visit":"C2D1","start_dtc":"2024-05-06","end_dtc":"2024-05-06","updes":null}],"epochs":[{"seq":"1","etcd":"SCRN","element":"Screening","start_dtc":"2024-03-13","end_dtc":"2024-04-10","updes":null},{"seq":"2","etcd":"TRT","element":"Treatment","start_dtc":"2024-04-10","end_dtc":"2024-05-18","updes":null}],"visit_count":4},"section_5_concomitant_medications":{"medications":[{"seq":"1","trt":"ESOMEPRAZOLE","decod":"ESOMEPRAZOLE","cat":"PRIOR","dose":"40","doseu":null,"dosef":"QD","route":"ORAL","indication":"GASTROESOPHAGEAL REFLUX DISEASE","start_dtc":"2022-03-23","end_dtc":"2024-05-18","ongoing":null,"visit":null},{"seq":"2","trt":"METOCLOPRAMIDE","decod":"METOCLOPRAMIDE","cat":"CONCOMITANT","dose":"10","doseu":null,"dosef":"TID","route":"ORAL","indication":"NAUSEA","start_dtc":"2024-05-18","end_dtc":"2024-05-18","ongoing":null,"visit":null}]},"section_6_exposure":{"exposure_as_administered":[{"seq":"1","trt":"TEPOTINIB","dose":"500.0","doseu":null,"dosef":"QD","route":"ORAL","lot":null,"start_dtc":"2024-04-10","end_dtc":"2024-05-01","start_dy":"1","end_dy":"22","epoch":"TREATMENT","visit":null}],"exposure_as_collected":[{"seq":"1","trt":"TEPOTINIB","dose":"500.0","doseu":null,"dosef":"QD","route":"ORAL","start_dtc":"2024-04-10","end_dtc":"2024-04-10","visit":"C1D1"},{"seq":"2","trt":"TEPOTINIB","dose":"500.0","doseu":null,"dosef":"QD","route":"ORAL","start_dtc":"2024-04-11","end_dtc":"2024-04-11","visit":"C1D1"},{"seq":"3","trt":"TEPOTINIB","dose":"500.0","doseu":null,"dosef":"QD","route":"ORAL","start_dtc":"2024-04-12","end_dtc":"2024-04-12","visit":"C1D1"},{"seq":"4","trt":"TEPOTINIB","dose":"500.0","doseu":null,"dosef":"QD","route":"ORAL","start_dtc":"2024-04-13","end_dtc":"2024-04-13","visit":"C1D1"},{"seq":"5","trt":"TEPOTINIB","dose":"500.0","doseu":null,"dosef":"QD","route":"ORAL","start_dtc":"2024-04-14","end_dtc":"2024-04-14","visit":null},{"seq":"6","trt":"TEPOTINIB","dose":"500.0","doseu":null,"dosef":"QD","route":"ORAL","start_dtc":"2024-04-15","end_dtc":"2024-04-15","visit":null},{"seq":"7","trt":"TEPOTINIB","dose":"500.0","doseu":null,"dosef":"QD","route":"ORAL","start_dtc":"2024-04-16","end_dtc":"2024-04-16","visit":null},{"seq":"8","trt":"TEPOTINIB","dose":"500.0","doseu":null,"dosef":"QD","route":"ORAL","start_dtc":"2024-04-17","end_dtc":"2024-04-17","visit":null},{"seq":"9","trt":"TEPOTINIB","dose":"500.0","doseu":null,"dosef":"QD","route":"ORAL","start_dtc":"2024-04-18","end_dtc":"2024-04-18","visit":null},{"seq":"10","trt":"TEPOTINIB","dose":"500.0","doseu":null,"dosef":"QD","route":"ORAL","start_dtc":"2024-04-19","end_dtc":"2024-04-19","visit":null},{"seq":"11","trt":"TEPOTINIB","dose":"500.0","doseu":null,"dosef":"QD","route":"ORAL","start_dtc":"2024-04-20","end_dtc":"2024-04-20","visit":null},{"seq":"12","trt":"TEPOTINIB","dose":"500.0","doseu":null,"dosef":"QD","route":"ORAL","start_dtc":"2024-04-21","end_dtc":"2024-04-21","visit":"C1D15"},{"seq":"13","trt":"TEPOTINIB","dose":"500.0","doseu":null,"dosef":"QD","route":"ORAL","start_dtc":"2024-04-22","end_dtc":"2024-04-22","visit":"C1D15"},{"seq":"14","trt":"TEPOTINIB","dose":"500.0","doseu":null,"dosef":"QD","route":"ORAL","start_dtc":"2024-04-23","end_dtc":"2024-04-23","visit":"C1D15"},{"seq":"15","trt":"TEPOTINIB","dose":"500.0","doseu":null,"dosef":"QD","route":"ORAL","start_dtc":"2024-04-24","end_dtc":"2024-04-24","visit":"C1D15"},{"seq":"16","trt":"TEPOTINIB","dose":"500.0","doseu":null,"dosef":"QD","route":"ORAL","start_dtc":"2024-04-25","end_dtc":"2024-04-25","visit":"C1D15"},{"seq":"17","trt":"TEPOTINIB","dose":"500.0","doseu":null,"dosef":"QD","route":"ORAL","start_dtc":"2024-04-26","end_dtc":"2024-04-26","visit":"C1D15"},{"seq":"18","trt":"TEPOTINIB","dose":"500.0","doseu":null,"dosef":"QD","route":"ORAL","start_dtc":"2024-04-27","end_dtc":"2024-04-27","visit":"C1D15"},{"seq":"19","trt":"TEPOTINIB","dose":"500.0","doseu":null,"dosef":"QD","route":"ORAL","start_dtc":"2024-04-28","end_dtc":"2024-04-28","visit":null},{"seq":"20","trt":"TEPOTINIB","dose":"500.0","doseu":null,"dosef":"QD","route":"ORAL","start_dtc":"2024-04-29","end_dtc":"2024-04-29","visit":null},{"seq":"21","trt":"TEPOTINIB","dose":"500.0","doseu":null,"dosef":"QD","route":"ORAL","start_dtc":"2024-04-30","end_dtc":"2024-04-30","visit":null},{"seq":"22","trt":"TEPOTINIB","dose":"500.0","doseu":null,"dosef":"QD","route":"ORAL","start_dtc":"2024-05-01","end_dtc":"2024-05-01","visit":null}]},"section_7_adverse_events":{"summary":{"total_aes":2,"serious_aes":1,"fatal_aes":0,"by_severity":{"MILD":1,"SEVERE":1},"by_soc":{"Infections and infestations":1,"Gastrointestinal disorders":1}},"events":[{"seq":"1","term":"PNEUMONIA","decod":"Pneumonia","llt":"Pneumonia","hlt":"Lower respiratory and lung infections","hlgt":"Infections NEC","soc":"Infections and infestations","bodsys":"Infections and infestations","severity":"MILD","serious":"N","causality":"UNLIKELY RELATED","action_taken":"DOSE NOT CHANGED","outcome":"RECOVERING/RESOLVING","fatal":"N","hospitalization":"N","life_threatening":"N","onset_dtc":"2024-04-10","end_dtc":"2024-04-16","onset_dy":"1","end_dy":"7","duration":null,"epoch":"TREATMENT","visit":null,"supplemental":{}},{"seq":"2","term":"NAUSEA","decod":"Nausea","llt":"Nausea","hlt":"Nausea and vomiting symptoms","hlgt":"Gastrointestinal signs and symptoms","soc":"Gastrointestinal disorders","bodsys":"Gastrointestinal disorders","severity":"SEVERE","serious":"Y","causality":"POSSIBLY RELATED","action_taken":"DRUG WITHDRAWN","outcome":"RECOVERED/RESOLVED","fatal":"N","hospitalization":"Y","life_threatening":"N","onset_dtc":"2024-05-18","end_dtc":"2024-05-18","onset_dy":"39","end_dy":"39","duration":null,"epoch":"TREATMENT","visit":null,"supplemental":{}}]},"section_8_laboratory_results":{"summary":{"total_records":21,"abnormal_count":2,"abnormal_pct":9.5},"shift_summary":[{"testcd":"ALT","baseline_value":37.19,"baseline_nrind":"NORMAL","worst_post_baseline_value":39.24,"worst_post_baseline_nrind":"NORMAL","worst_visit":"C1D15"},{"testcd":"AST","baseline_value":32.53,"baseline_nrind":"NORMAL","worst_post_baseline_value":32.69,"worst_post_baseline_nrind":"NORMAL","worst_visit":"C1D15"},{"testcd":"CREAT","baseline_value":114.83,"baseline_nrind":"HIGH","worst_post_baseline_value":118.96,"worst_post_baseline_nrind":"HIGH","worst_visit":"C1D15"},{"testcd":"GLUC","baseline_value":4.41,"baseline_nrind":"NORMAL","worst_post_baseline_value":4.39,"worst_post_baseline_nrind":"NORMAL","worst_visit":"C1D15"},{"testcd":"HGB","baseline_value":164.07,"baseline_nrind":"NORMAL","worst_post_baseline_value":163.9,"worst_post_baseline_nrind":"NORMAL","worst_visit":"C1D1"},{"testcd":"PLAT","baseline_value":211.83,"baseline_nrind":"NORMAL","worst_post_baseline_value":234.71,"worst_post_baseline_nrind":"NORMAL","worst_visit":"C1D15"},{"testcd":"WBC","baseline_value":5.31,"baseline_nrind":"NORMAL","worst_post_baseline_value":5.76,"worst_post_baseline_nrind":"NORMAL","worst_visit":"C1D15"}],"results":[{"seq":"1","testcd":"ALT","test":"Alanine Aminotransferase","cat":"CHEMISTRY","orres":"37.19","orresu":"U/L","stresc":"37.19","stresn":"37.19","stresu":"U/L","stnrlo":"7","stnrhi":"56","nrind":"NORMAL","fast":null,"dtc":"2024-02-22","dy":"-48","visit":"SCREENING","visitnum":"1.0","epoch":"SCREENING","spec":null,"method":null},{"seq":"2","testcd":"AST","test":"Aspartate Aminotransferase","cat":"CHEMISTRY","orres":"32.53","orresu":"U/L","stresc":"32.53","stresn":"32.53","stresu":"U/L","stnrlo":"10","stnrhi":"40","nrind":"NORMAL","fast":null,"dtc":"2024-02-22","dy":"-48","visit":"SCREENING","visitnum":"1.0","epoch":"SCREENING","spec":null,"method":null},{"seq":"3","testcd":"CREAT","test":"Creatinine","cat":"CHEMISTRY","orres":null,"orresu":null,"stresc":null,"stresn":null,"stresu":null,"stnrlo":null,"stnrhi":null,"nrind":null,"fast":null,"dtc":"2024-02-22","dy":"-48","visit":"SCREENING","visitnum":"1.0","epoch":"SCREENING","spec":null,"method":null},{"seq":"4","testcd":"GLUC","test":"Glucose","cat":"CHEMISTRY","orres":"4.41","orresu":"mmol/L","stresc":"4.41","stresn":"4.41","stresu":"mmol/L","stnrlo":"3.9","stnrhi":"5.6","nrind":"NORMAL","fast":null,"dtc":"2024-02-22","dy":"-48","visit":"SCREENING","visitnum":"1.0","epoch":"SCREENING","spec":null,"method":null},{"seq":"5","testcd":"HGB","test":"Hemoglobin","cat":"HEMATOLOGY","orres":"164.07","orresu":"g/L","stresc":"164.07","stresn":"164.07","stresu":"g/L","stnrlo":"130","stnrhi":"175","nrind":"NORMAL","fast":null,"dtc":"2024-02-22","dy":"-48","visit":"SCREENING","visitnum":"1.0","epoch":"SCREENING","spec":null,"method":null},{"seq":"6","testcd":"PLAT","test":"Platelets","cat":"HEMATOLOGY","orres":"211.83","orresu":"10^9/L","stresc":"211.83","stresn":"211.83","stresu":"10^9/L","stnrlo":"150","stnrhi":"400","nrind":"NORMAL","fast":null,"dtc":"2024-02-22","dy":"-48","visit":"SCREENING","visitnum":"1.0","epoch":"SCREENING","spec":null,"method":null},{"seq":"7","testcd":"WBC","test":"Leukocytes","cat":"HEMATOLOGY","orres":"5.31","orresu":"10^9/L","stresc":"5.31","stresn":"5.31","stresu":"10^9/L","stnrlo":"4.0","stnrhi":"11.0","nrind":"NORMAL","fast":null,"dtc":"2024-02-22","dy":"-48","visit":"SCREENING","visitnum":"1.0","epoch":"SCREENING","spec":null,"method":null},{"seq":"8","testcd":"ALT","test":"Alanine Aminotransferase","cat":"CHEMISTRY","orres":"38.65","orresu":"U/L","stresc":"38.65","stresn":"38.65","stresu":"U/L","stnrlo":"7","stnrhi":"56","nrind":"NORMAL","fast":null,"dtc":"2024-04-10","dy":"1","visit":"C1D1","visitnum":"2.0","epoch":"TREATMENT","spec":null,"method":null},{"seq":"9","testcd":"AST","test":"Aspartate Aminotransferase","cat":"CHEMISTRY","orres":"32.29","orresu":"U/L","stresc":"32.29","stresn":"32.29","stresu":"U/L","stnrlo":"10","stnrhi":"40","nrind":"NORMAL","fast":null,"dtc":"2024-04-10","dy":"1","visit":"C1D1","visitnum":"2.0","epoch":"TREATMENT","spec":null,"method":null},{"seq":"10","testcd":"CREAT","test":"Creatinine","cat":"CHEMISTRY","orres":"114.83","orresu":"umol/L","stresc":"114.83","stresn":"114.83","stresu":"umol/L","stnrlo":"62","stnrhi":"106","nrind":"HIGH","fast":null,"dtc":"2024-04-10","dy":"1","visit":"C1D1","visitnum":"2.0","epoch":"TREATMENT","spec":null,"method":null},{"seq":"11","testcd":"GLUC","test":"Glucose","cat":"CHEMISTRY","orres":"4.33","orresu":"mmol/L","stresc":"4.33","stresn":"4.33","stresu":"mmol/L","stnrlo":"3.9","stnrhi":"5.6","nrind":"NORMAL","fast":null,"dtc":"2024-04-10","dy":"1","visit":"C1D1","visitnum":"2.0","epoch":"TREATMENT","spec":null,"method":null},{"seq":"12","testcd":"HGB","test":"Hemoglobin","cat":"HEMATOLOGY","orres":"163.9","orresu":"g/L","stresc":"163.9","stresn":"163.9","stresu":"g/L","stnrlo":"130","stnrhi":"175","nrind":"NORMAL","fast":null,"dtc":"2024-04-10","dy":"1","visit":"C1D1","visitnum":"2.0","epoch":"TREATMENT","spec":null,"method":null},{"seq":"13","testcd":"PLAT","test":"Platelets","cat":"HEMATOLOGY","orres":"227.26","orresu":"10^9/L","stresc":"227.26","stresn":"227.26","stresu":"10^9/L","stnrlo":"150","stnrhi":"400","nrind":"NORMAL","fast":null,"dtc":"2024-04-10","dy":"1","visit":"C1D1","visitnum":"2.0","epoch":"TREATMENT","spec":null,"method":null},{"seq":"14","testcd":"WBC","test":"Leukocytes","cat":"HEMATOLOGY","orres":"5.52","orresu":"10^9/L","stresc":"5.52","stresn":"5.52","stresu":"10^9/L","stnrlo":"4.0","stnrhi":"11.0","nrind":"NORMAL","fast":null,"dtc":"2024-04-10","dy":"1","visit":"C1D1","visitnum":"2.0","epoch":"TREATMENT","spec":null,"method":null},{"seq":"15","testcd":"ALT","test":"Alanine Aminotransferase","cat":"CHEMISTRY","orres":"39.24","orresu":"U/L","stresc":"39.24","stresn":"39.24","stresu":"U/L","stnrlo":"7","stnrhi":"56","nrind":"NORMAL","fast":null,"dtc":"2024-04-22","dy":"13","visit":"C1D15","visitnum":"3.0","epoch":"TREATMENT","spec":null,"method":null},{"seq":"16","testcd":"AST","test":"Aspartate Aminotransferase","cat":"CHEMISTRY","orres":"32.69","orresu":"U/L","stresc":"32.69","stresn":"32.69","stresu":"U/L","stnrlo":"10","stnrhi":"40","nrind":"NORMAL","fast":null,"dtc":"2024-04-22","dy":"13","visit":"C1D15","visitnum":"3.0","epoch":"TREATMENT","spec":null,"method":null},{"seq":"17","testcd":"CREAT","test":"Creatinine","cat":"CHEMISTRY","orres":"118.96","orresu":"umol/L","stresc":"118.96","stresn":"118.96","stresu":"umol/L","stnrlo":"62","stnrhi":"106","nrind":"HIGH","fast":null,"dtc":"2024-04-22","dy":"13","visit":"C1D15","visitnum":"3.0","epoch":"TREATMENT","spec":null,"method":null},{"seq":"18","testcd":"GLUC","test":"Glucose","cat":"CHEMISTRY","orres":"4.39","orresu":"mmol/L","stresc":"4.39","stresn":"4.39","stresu":"mmol/L","stnrlo":"3.9","stnrhi":"5.6","nrind":"NORMAL","fast":null,"dtc":"2024-04-22","dy":"13","visit":"C1D15","visitnum":"3.0","epoch":"TREATMENT","spec":null,"method":null},{"seq":"19","testcd":"HGB","test":"Hemoglobin","cat":"HEMATOLOGY","orres":"165.02","orresu":"g/L","stresc":"165.02","stresn":"165.02","stresu":"g/L","stnrlo":"130","stnrhi":"175","nrind":"NORMAL","fast":null,"dtc":"2024-04-22","dy":"13","visit":"C1D15","visitnum":"3.0","epoch":"TREATMENT","spec":null,"method":null},{"seq":"20","testcd":"PLAT","test":"Platelets","cat":"HEMATOLOGY","orres":"234.71","orresu":"10^9/L","stresc":"234.71","stresn":"234.71","stresu":"10^9/L","stnrlo":"150","stnrhi":"400","nrind":"NORMAL","fast":null,"dtc":"2024-04-22","dy":"13","visit":"C1D15","visitnum":"3.0","epoch":"TREATMENT","spec":null,"method":null},{"seq":"21","testcd":"WBC","test":"Leukocytes","cat":"HEMATOLOGY","orres":"5.76","orresu":"10^9/L","stresc":"5.76","stresn":"5.76","stresu":"10^9/L","stnrlo":"4.0","stnrhi":"11.0","nrind":"NORMAL","fast":null,"dtc":"2024-04-22","dy":"13","visit":"C1D15","visitnum":"3.0","epoch":"TREATMENT","spec":null,"method":null}]},"section_9_vital_signs":{"summary":{"total_records":31},"trends":{"BMI":[{"visit":"SCREENING","visitnum":"1.0","dtc":"2024-02-22","value":"19.4","unit":"kg/m2"},{"visit":"C1D1","visitnum":"2.0","dtc":"2024-04-10","value":"20.0","unit":"kg/m2"},{"visit":"C2D1","visitnum":"4.0","dtc":"2024-05-06","value":"19.8","unit":"kg/m2"}],"DIABP":[{"visit":"SCREENING","visitnum":"1.0","dtc":"2024-02-22","value":"78.9","unit":"mmHg"},{"visit":"C1D1","visitnum":"2.0","dtc":"2024-04-10","value":"77.3","unit":"mmHg"},{"visit":"C1D15","visitnum":"3.0","dtc":"2024-04-22","value":"75.8","unit":"mmHg"},{"visit":"C2D1","visitnum":"4.0","dtc":"2024-05-06","value":"75.9","unit":"mmHg"}],"HEIGHT":[{"visit":"SCREENING","visitnum":"1.0","dtc":"2024-02-22","value":"165.0","unit":"cm"},{"visit":"C1D1","visitnum":"2.0","dtc":"2024-04-10","value":"165.7","unit":"cm"},{"visit":"C1D15","visitnum":"3.0","dtc":"2024-04-22","value":"166.0","unit":"cm"},{"visit":"C2D1","visitnum":"4.0","dtc":"2024-05-06","value":"165.9","unit":"cm"}],"PULSE":[{"visit":"SCREENING","visitnum":"1.0","dtc":"2024-02-22","value":"67.3","unit":"beats/min"},{"visit":"C1D1","visitnum":"2.0","dtc":"2024-04-10","value":"70.3","unit":"beats/min"},{"visit":"C1D15","visitnum":"3.0","dtc":"2024-04-22","value":"68.9","unit":"beats/min"},{"visit":"C2D1","visitnum":"4.0","dtc":"2024-05-06","value":"73.1","unit":"beats/min"}],"RESP":[{"visit":"C1D1","visitnum":"2.0","dtc":"2024-04-10","value":"17.0","unit":"breaths/min"},{"visit":"C1D15","visitnum":"3.0","dtc":"2024-04-22","value":"17.1","unit":"breaths/min"},{"visit":"C2D1","visitnum":"4.0","dtc":"2024-05-06","value":"17.6","unit":"breaths/min"}],"SYSBP":[{"visit":"SCREENING","visitnum":"1.0","dtc":"2024-02-22","value":"145.7","unit":"mmHg"},{"visit":"C1D1","visitnum":"2.0","dtc":"2024-04-10","value":"145.3","unit":"mmHg"},{"visit":"C1D15","visitnum":"3.0","dtc":"2024-04-22","value":"143.4","unit":"mmHg"},{"visit":"C2D1","visitnum":"4.0","dtc":"2024-05-06","value":"143.4","unit":"mmHg"}],"TEMP":[{"visit":"SCREENING","visitnum":"1.0","dtc":"2024-02-22","value":"36.2","unit":"C"},{"visit":"C1D1","visitnum":"2.0","dtc":"2024-04-10","value":"36.1","unit":"C"},{"visit":"C1D15","visitnum":"3.0","dtc":"2024-04-22","value":"36.1","unit":"C"},{"visit":"C2D1","visitnum":"4.0","dtc":"2024-05-06","value":"36.3","unit":"C"}],"WEIGHT":[{"visit":"SCREENING","visitnum":"1.0","dtc":"2024-02-22","value":"52.7","unit":"kg"},{"visit":"C1D1","visitnum":"2.0","dtc":"2024-04-10","value":"54.9","unit":"kg"},{"visit":"C2D1","visitnum":"4.0","dtc":"2024-05-06","value":"54.4","unit":"kg"}]},"results":[{"seq":"1","testcd":"BMI","test":"BMI","cat":null,"orres":"19.4","orresu":"kg/m2","stresc":"19.4","stresn":"19.4","stresu":"kg/m2","stnrlo":null,"stnrhi":null,"nrind":null,"pos":null,"loc":null,"dtc":"2024-02-22","dy":"-48","visit":"SCREENING","visitnum":"1.0","epoch":"SCREENING"},{"seq":"2","testcd":"DIABP","test":"Diastolic Blood Pressure","cat":null,"orres":"78.9","orresu":"mmHg","stresc":"78.9","stresn":"78.9","stresu":"mmHg","stnrlo":null,"stnrhi":null,"nrind":null,"pos":null,"loc":null,"dtc":"2024-02-22","dy":"-48","visit":"SCREENING","visitnum":"1.0","epoch":"SCREENING"},{"seq":"3","testcd":"HEIGHT","test":"Height","cat":null,"orres":"165.0","orresu":"cm","stresc":"165.0","stresn":"165.0","stresu":"cm","stnrlo":null,"stnrhi":null,"nrind":null,"pos":null,"loc":null,"dtc":"2024-02-22","dy":"-48","visit":"SCREENING","visitnum":"1.0","epoch":"SCREENING"},{"seq":"4","testcd":"PULSE","test":"Pulse Rate","cat":null,"orres":"67.3","orresu":"beats/min","stresc":"67.3","stresn":"67.3","stresu":"beats/min","stnrlo":null,"stnrhi":null,"nrind":null,"pos":null,"loc":null,"dtc":"2024-02-22","dy":"-48","visit":"SCREENING","visitnum":"1.0","epoch":"SCREENING"},{"seq":"5","testcd":"RESP","test":"Respiratory Rate","cat":null,"orres":null,"orresu":null,"stresc":null,"stresn":null,"stresu":null,"stnrlo":null,"stnrhi":null,"nrind":null,"pos":null,"loc":null,"dtc":"2024-02-22","dy":"-48","visit":"SCREENING","visitnum":"1.0","epoch":"SCREENING"},{"seq":"6","testcd":"SYSBP","test":"Systolic Blood Pressure","cat":null,"orres":"145.7","orresu":"mmHg","stresc":"145.7","stresn":"145.7","stresu":"mmHg","stnrlo":null,"stnrhi":null,"nrind":null,"pos":null,"loc":null,"dtc":"2024-02-22","dy":"-48","visit":"SCREENING","visitnum":"1.0","epoch":"SCREENING"},{"seq":"7","testcd":"TEMP","test":"Temperature","cat":null,"orres":"36.2","orresu":"C","stresc":"36.2","stresn":"36.2","stresu":"C","stnrlo":null,"stnrhi":null,"nrind":null,"pos":null,"loc":null,"dtc":"2024-02-22","dy":"-48","visit":"SCREENING","visitnum":"1.0","epoch":"SCREENING"},{"seq":"8","testcd":"WEIGHT","test":"Weight","cat":null,"orres":"52.7","orresu":"kg","stresc":"52.7","stresn":"52.7","stresu":"kg","stnrlo":null,"stnrhi":null,"nrind":null,"pos":null,"loc":null,"dtc":"2024-02-22","dy":"-48","visit":"SCREENING","visitnum":"1.0","epoch":"SCREENING"},{"seq":"9","testcd":"BMI","test":"BMI","cat":null,"orres":"20.0","orresu":"kg/m2","stresc":"20.0","stresn":"20.0","stresu":"kg/m2","stnrlo":null,"stnrhi":null,"nrind":null,"pos":null,"loc":null,"dtc":"2024-04-10","dy":"1","visit":"C1D1","visitnum":"2.0","epoch":"TREATMENT"},{"seq":"10","testcd":"DIABP","test":"Diastolic Blood Pressure","cat":null,"orres":"77.3","orresu":"mmHg","stresc":"77.3","stresn":"77.3","stresu":"mmHg","stnrlo":null,"stnrhi":null,"nrind":null,"pos":null,"loc":null,"dtc":"2024-04-10","dy":"1","visit":"C1D1","visitnum":"2.0","epoch":"TREATMENT"},{"seq":"11","testcd":"HEIGHT","test":"Height","cat":null,"orres":"165.7","orresu":"cm","stresc":"165.7","stresn":"165.7","stresu":"cm","stnrlo":null,"stnrhi":null,"nrind":null,"pos":null,"loc":null,"dtc":"2024-04-10","dy":"1","visit":"C1D1","visitnum":"2.0","epoch":"TREATMENT"},{"seq":"12","testcd":"PULSE","test":"Pulse Rate","cat":null,"orres":"70.3","orresu":"beats/min","stresc":"70.3","stresn":"70.3","stresu":"beats/min","stnrlo":null,"stnrhi":null,"nrind":null,"pos":null,"loc":null,"dtc":"2024-04-10","dy":"1","visit":"C1D1","visitnum":"2.0","epoch":"TREATMENT"},{"seq":"13","testcd":"RESP","test":"Respiratory Rate","cat":null,"orres":"17.0","orresu":"breaths/min","stresc":"17.0","stresn":"17.0","stresu":"breaths/min","stnrlo":null,"stnrhi":null,"nrind":null,"pos":null,"loc":null,"dtc":"2024-04-10","dy":"1","visit":"C1D1","visitnum":"2.0","epoch":"TREATMENT"},{"seq":"14","testcd":"SYSBP","test":"Systolic Blood Pressure","cat":null,"orres":"145.3","orresu":"mmHg","stresc":"145.3","stresn":"145.3","stresu":"mmHg","stnrlo":null,"stnrhi":null,"nrind":null,"pos":null,"loc":null,"dtc":"2024-04-10","dy":"1","visit":"C1D1","visitnum":"2.0","epoch":"TREATMENT"},{"seq":"15","testcd":"TEMP","test":"Temperature","cat":null,"orres":"36.1","orresu":"C","stresc":"36.1","stresn":"36.1","stresu":"C","stnrlo":null,"stnrhi":null,"nrind":null,"pos":null,"loc":null,"dtc":"2024-04-10","dy":"1","visit":"C1D1","visitnum":"2.0","epoch":"TREATMENT"},{"seq":"16","testcd":"WEIGHT","test":"Weight","cat":null,"orres":"54.9","orresu":"kg","stresc":"54.9","stresn":"54.9","stresu":"kg","stnrlo":null,"stnrhi":null,"nrind":null,"pos":null,"loc":null,"dtc":"2024-04-10","dy":"1","visit":"C1D1","visitnum":"2.0","epoch":"TREATMENT"},{"seq":"17","testcd":"DIABP","test":"Diastolic Blood Pressure","cat":null,"orres":"75.8","orresu":"mmHg","stresc":"75.8","stresn":"75.8","stresu":"mmHg","stnrlo":null,"stnrhi":null,"nrind":null,"pos":null,"loc":null,"dtc":"2024-04-22","dy":"13","visit":"C1D15","visitnum":"3.0","epoch":"TREATMENT"},{"seq":"18","testcd":"HEIGHT","test":"Height","cat":null,"orres":"166.0","orresu":"cm","stresc":"166.0","stresn":"166.0","stresu":"cm","stnrlo":null,"stnrhi":null,"nrind":null,"pos":null,"loc":null,"dtc":"2024-04-22","dy":"13","visit":"C1D15","visitnum":"3.0","epoch":"TREATMENT"},{"seq":"19","testcd":"PULSE","test":"Pulse Rate","cat":null,"orres":"68.9","orresu":"beats/min","stresc":"68.9","stresn":"68.9","stresu":"beats/min","stnrlo":null,"stnrhi":null,"nrind":null,"pos":null,"loc":null,"dtc":"2024-04-22","dy":"13","visit":"C1D15","visitnum":"3.0","epoch":"TREATMENT"},{"seq":"20","testcd":"RESP","test":"Respiratory Rate","cat":null,"orres":"17.1","orresu":"breaths/min","stresc":"17.1","stresn":"17.1","stresu":"breaths/min","stnrlo":null,"stnrhi":null,"nrind":null,"pos":null,"loc":null,"dtc":"2024-04-22","dy":"13","visit":"C1D15","visitnum":"3.0","epoch":"TREATMENT"},{"seq":"21","testcd":"SYSBP","test":"Systolic Blood Pressure","cat":null,"orres":"143.4","orresu":"mmHg","stresc":"143.4","stresn":"143.4","stresu":"mmHg","stnrlo":null,"stnrhi":null,"nrind":null,"pos":null,"loc":null,"dtc":"2024-04-22","dy":"13","visit":"C1D15","visitnum":"3.0","epoch":"TREATMENT"},{"seq":"22","testcd":"TEMP","test":"Temperature","cat":null,"orres":"36.1","orresu":"C","stresc":"36.1","stresn":"36.1","stresu":"C","stnrlo":null,"stnrhi":null,"nrind":null,"pos":null,"loc":null,"dtc":"2024-04-22","dy":"13","visit":"C1D15","visitnum":"3.0","epoch":"TREATMENT"},{"seq":"23","testcd":"WEIGHT","test":"Weight","cat":null,"orres":null,"orresu":null,"stresc":null,"stresn":null,"stresu":null,"stnrlo":null,"stnrhi":null,"nrind":null,"pos":null,"loc":null,"dtc":"2024-04-22","dy":"13","visit":"C1D15","visitnum":"3.0","epoch":"TREATMENT"},{"seq":"24","testcd":"BMI","test":"BMI","cat":null,"orres":"19.8","orresu":"kg/m2","stresc":"19.8","stresn":"19.8","stresu":"kg/m2","stnrlo":null,"stnrhi":null,"nrind":null,"pos":null,"loc":null,"dtc":"2024-05-06","dy":"27","visit":"C2D1","visitnum":"4.0","epoch":"TREATMENT"},{"seq":"25","testcd":"DIABP","test":"Diastolic Blood Pressure","cat":null,"orres":"75.9","orresu":"mmHg","stresc":"75.9","stresn":"75.9","stresu":"mmHg","stnrlo":null,"stnrhi":null,"nrind":null,"pos":null,"loc":null,"dtc":"2024-05-06","dy":"27","visit":"C2D1","visitnum":"4.0","epoch":"TREATMENT"},{"seq":"26","testcd":"HEIGHT","test":"Height","cat":null,"orres":"165.9","orresu":"cm","stresc":"165.9","stresn":"165.9","stresu":"cm","stnrlo":null,"stnrhi":null,"nrind":null,"pos":null,"loc":null,"dtc":"2024-05-06","dy":"27","visit":"C2D1","visitnum":"4.0","epoch":"TREATMENT"},{"seq":"27","testcd":"PULSE","test":"Pulse Rate","cat":null,"orres":"73.1","orresu":"beats/min","stresc":"73.1","stresn":"73.1","stresu":"beats/min","stnrlo":null,"stnrhi":null,"nrind":null,"pos":null,"loc":null,"dtc":"2024-05-06","dy":"27","visit":"C2D1","visitnum":"4.0","epoch":"TREATMENT"},{"seq":"28","testcd":"RESP","test":"Respiratory Rate","cat":null,"orres":"17.6","orresu":"breaths/min","stresc":"17.6","stresn":"17.6","stresu":"breaths/min","stnrlo":null,"stnrhi":null,"nrind":null,"pos":null,"loc":null,"dtc":"2024-05-06","dy":"27","visit":"C2D1","visitnum":"4.0","epoch":"TREATMENT"},{"seq":"29","testcd":"SYSBP","test":"Systolic Blood Pressure","cat":null,"orres":"143.4","orresu":"mmHg","stresc":"143.4","stresn":"143.4","stresu":"mmHg","stnrlo":null,"stnrhi":null,"nrind":null,"pos":null,"loc":null,"dtc":"2024-05-06","dy":"27","visit":"C2D1","visitnum":"4.0","epoch":"TREATMENT"},{"seq":"30","testcd":"TEMP","test":"Temperature","cat":null,"orres":"36.3","orresu":"C","stresc":"36.3","stresn":"36.3","stresu":"C","stnrlo":null,"stnrhi":null,"nrind":null,"pos":null,"loc":null,"dtc":"2024-05-06","dy":"27","visit":"C2D1","visitnum":"4.0","epoch":"TREATMENT"},{"seq":"31","testcd":"WEIGHT","test":"Weight","cat":null,"orres":"54.4","orresu":"kg","stresc":"54.4","stresn":"54.4","stresu":"kg","stnrlo":null,"stnrhi":null,"nrind":null,"pos":null,"loc":null,"dtc":"2024-05-06","dy":"27","visit":"C2D1","visitnum":"4.0","epoch":"TREATMENT"}]},"section_10_questionnaires_and_scores":{"questionnaires":[],"findings_about":[{"seq":"1","testcd":"LDIAM","test":"Longest Diameter","cat":"TUMOR ASSESSMENT","orres":"19.6","stresc":"19.6","stresn":"19.6","dtc":"2024-03-22","visit":"SCREENING"},{"seq":"2","testcd":"SAXIS","test":"Short Axis","cat":"TUMOR ASSESSMENT","orres":"5.1","stresc":"5.1","stresn":"5.1","dtc":"2024-03-22","visit":"SCREENING"},{"seq":"3","testcd":"LDIAM","test":"Longest Diameter","cat":"TUMOR ASSESSMENT","orres":"18.9","stresc":"18.9","stresn":"18.9","dtc":"2024-04-10","visit":"C1D1"},{"seq":"4","testcd":"SAXIS","test":"Short Axis","cat":"TUMOR ASSESSMENT","orres":"5.7","stresc":"5.7","stresn":"5.7","dtc":"2024-04-10","visit":"C1D1"},{"seq":"5","testcd":"LDIAM","test":"Longest Diameter","cat":"TUMOR ASSESSMENT","orres":"19.1","stresc":"19.1","stresn":"19.1","dtc":"2024-04-24","visit":"C1D15"},{"seq":"6","testcd":"SAXIS","test":"Short Axis","cat":"TUMOR ASSESSMENT","orres":"5.9","stresc":"5.9","stresn":"5.9","dtc":"2024-04-24","visit":"C1D15"},{"seq":"7","testcd":"LDIAM","test":"Longest Diameter","cat":"TUMOR ASSESSMENT","orres":"18.5","stresc":"18.5","stresn":"18.5","dtc":"2024-05-08","visit":"C2D1"},{"seq":"8","testcd":"SAXIS","test":"Short Axis","cat":"TUMOR ASSESSMENT","orres":"4.8","stresc":"4.8","stresn":"4.8","dtc":"2024-05-08","visit":"C2D1"}]},"section_11_protocol_deviations":{"deviations":[{"seq":"1","term":"Visit C1D15 occurred 2 days early (Day 13 vs planned Day 15)","decod":"VISIT OCCURRED OUTSIDE VISIT WINDOW","cat":"MINOR","scat":"VISIT WINDOW","start_dtc":"2024-04-22","end_dtc":null,"visit":null}],"total":1},"section_12_disposition":{"completion_status":"INFORMED CONSENT OBTAINED","disposition_records":[{"seq":"1","term":"INFORMED CONSENT OBTAINED","decod":"INFORMED CONSENT OBTAINED","cat":"PROTOCOL MILESTONE","scat":null,"dtc":"2024-03-22","dy":null,"visit":null,"epoch":"SCREENING"},{"seq":"2","term":"RANDOMIZED","decod":"RANDOMIZED","cat":"PROTOCOL MILESTONE","scat":null,"dtc":"2024-04-10","dy":null,"visit":null,"epoch":"TREATMENT"},{"seq":"3","term":"ADVERSE EVENT","decod":"ADVERSE EVENT","cat":"DISPOSITION EVENT","scat":null,"dtc":"2024-05-18","dy":null,"visit":null,"epoch":"TREATMENT"}],"death":null},"section_13_hospitalizations":{"items":[{"seq":"1","term":"Nausea","decod":"Nausea","cat":"EMERGENCY ROOM VISIT","start_dtc":"2024-05-18","end_dtc":"2024-05-18","epoch":"TREATMENT"}],"total":1},"section_14_substance_use":{"items":[{"seq":"1","substance":"ALCOHOL","decod":"ALCOHOL","cat":"ALCOHOL","scat":null,"usage":"Y","dose":"8.0","dosu":"DRINKS/WEEK","freq":"QW","start_dtc":"2006-03-27","end_dtc":null},{"seq":"2","substance":"COFFEE","decod":"COFFEE","cat":"CAFFEINE","scat":null,"usage":"Y","dose":"3.0","dosu":"CUPS/DAY","freq":"QD","start_dtc":"2023-03-23","end_dtc":null},{"seq":"3","substance":"CIGARETTES","decod":"CIGARETTES","cat":"TOBACCO","scat":"CIGARETTES","usage":"N","dose":null,"dosu":null,"freq":null,"start_dtc":null,"end_dtc":null}],"total":3},"section_15_subject_status":{"items":[],"total":0}}