{"subject_id":"VISION-NSCLC-SITE002-0434","study_id":"VISION-NSCLC","generated_at":"2026-06-09T04:14:26.332327+00:00","sdtmig_version":"3.4","flags":{"has_serious_ae":false,"has_fatal_ae":false,"has_protocol_deviation":true,"n_protocol_deviations":11,"n_adverse_events":6,"n_concomitant_meds":3,"max_ae_severity":"MODERATE","screen_failure":false,"discontinued_early":false,"discontinuation_reason":null,"death":false,"exposure_days":141},"timeline":[{"dtc":"2024-02-07","dy":"-53","event":"VISIT: SCREENING","domain":"SV","category":"visit"},{"dtc":"2024-02-27","dy":"-33","event":"INFORMED CONSENT OBTAINED","domain":"DS","category":"milestone"},{"dtc":"2024-03-31","dy":"1","event":"RANDOMIZED","domain":"DS","category":"milestone"},{"dtc":"2024-03-31","dy":"1","event":"FIRST DOSE: TEPOTINIB","domain":"EX","category":"exposure"},{"dtc":"2024-03-31","dy":"1","event":"VISIT: C1D1","domain":"SV","category":"visit"},{"dtc":"2024-04-05","dy":"6","event":"DEVIATION: MISSED DOSE","domain":"DV","category":"deviation"},{"dtc":"2024-04-14","dy":"15","event":"AE: Diarrhoea (MILD)","domain":"AE","category":"adverse_event"},{"dtc":"2024-04-15","dy":"16","event":"VISIT: C1D15","domain":"SV","category":"visit"},{"dtc":"2024-04-27","dy":"28","event":"DEVIATION: VISIT OCCURRED OUTSIDE VISIT WINDOW","domain":"DV","category":"deviation"},{"dtc":"2024-04-27","dy":"28","event":"VISIT: C2D1","domain":"SV","category":"visit"},{"dtc":"2024-05-15","dy":"46","event":"AE: Decreased appetite (MILD)","domain":"AE","category":"adverse_event"},{"dtc":"2024-05-20","dy":"51","event":"DEVIATION: MISSED DOSE","domain":"DV","category":"deviation"},{"dtc":"2024-05-21","dy":"52","event":"AE: Nausea (MODERATE)","domain":"AE","category":"adverse_event"},{"dtc":"2024-05-21","dy":"52","event":"CM START: METOCLOPRAMIDE","domain":"CM","category":"concomitant_med"},{"dtc":"2024-05-26","dy":"57","event":"DEVIATION: MISSED DOSE","domain":"DV","category":"deviation"},{"dtc":"2024-05-27","dy":"58","event":"DEVIATION: VISIT OCCURRED OUTSIDE VISIT WINDOW","domain":"DV","category":"deviation"},{"dtc":"2024-05-27","dy":"58","event":"VISIT: C3D1","domain":"SV","category":"visit"},{"dtc":"2024-05-31","dy":"62","event":"DEVIATION: MISSED DOSE","domain":"DV","category":"deviation"},{"dtc":"2024-06-20","dy":"82","event":"DEVIATION: MISSED DOSE","domain":"DV","category":"deviation"},{"dtc":"2024-06-20","dy":"82","event":"VISIT: C4D1","domain":"SV","category":"visit"},{"dtc":"2024-07-02","dy":"94","event":"DEVIATION: MISSED DOSE","domain":"DV","category":"deviation"},{"dtc":"2024-07-13","dy":"105","event":"AE: Hypoalbuminaemia (MODERATE)","domain":"AE","category":"adverse_event"},{"dtc":"2024-07-13","dy":"105","event":"CM START: IBUPROFEN","domain":"CM","category":"concomitant_med"},{"dtc":"2024-07-26","dy":"118","event":"AE: Pleural effusion (MILD)","domain":"AE","category":"adverse_event"},{"dtc":"2024-07-26","dy":"118","event":"CM START: PARACETAMOL","domain":"CM","category":"concomitant_med"},{"dtc":"2024-08-03","dy":"126","event":"DEVIATION: MISSED DOSE","domain":"DV","category":"deviation"},{"dtc":"2024-08-05","dy":"128","event":"DEVIATION: MISSED DOSE","domain":"DV","category":"deviation"},{"dtc":"2024-08-19","dy":"142","event":"LAST DOSE: TEPOTINIB","domain":"EX","category":"exposure"},{"dtc":"2024-08-24","dy":"147","event":"VISIT: C6D1","domain":"SV","category":"visit"},{"dtc":"2024-08-28","dy":"151","event":"AE: Nausea (MODERATE)","domain":"AE","category":"adverse_event"},{"dtc":"2024-09-22","dy":"176","event":"VISIT: EOT","domain":"SV","category":"visit"},{"dtc":"2024-10-08","dy":"192","event":"DEVIATION: VISIT OCCURRED OUTSIDE VISIT WINDOW","domain":"DV","category":"deviation"},{"dtc":"2024-10-08","dy":"192","event":"VISIT: FOLLOW-UP","domain":"SV","category":"visit"},{"dtc":"2024-11-11","dy":"226","event":"COMPLETED","domain":"DS","category":"milestone"}],"section_1_demographics":{"usubjid":"VISION-NSCLC-SITE002-0434","subjid":"0434","siteid":"SITE002","age":"18","ageu":"YEARS","sex":"F","race":"WHITE","ethnicity":"NOT HISPANIC OR LATINO","country":"USA","arm":"Tepotinib 500mg QD","armcd":"TEP500","actarm":"Tepotinib 500mg QD","actarmcd":"TEP500","randomization_date":null,"informed_consent_date":"2024-02-27","reference_start_date":"2024-03-31","reference_end_date":"2024-11-11","screen_failure":false,"death_flag":null,"death_date":null,"subject_characteristics":[{"testcd":"ALCUSE","test":"Alcohol Use","orres":"CURRENT DRINKER","stresc":"CURRENT DRINKER","visit":null,"dtc":"2024-02-27"},{"testcd":"BMI","test":"Body Mass Index","orres":"24.7","stresc":"24.7","visit":null,"dtc":"2024-02-27"},{"testcd":"DURDIS","test":"Duration of Disease","orres":"121 months","stresc":"121","visit":null,"dtc":"2024-02-27"},{"testcd":"TOBPKYR","test":"Tobacco Pack-Years","orres":"9","stresc":"9","visit":null,"dtc":"2024-02-27"},{"testcd":"TOBUSE","test":"Tobacco Use","orres":"CURRENT SMOKER","stresc":"CURRENT SMOKER","visit":null,"dtc":"2024-02-27"}]},"section_2_medical_history":{"items":[{"seq":"1","term":"ASTHMA","decod":"ASTHMA","cat":"RESPIRATORY","scat":null,"presp":null,"occur":null,"status":null,"onset_dtc":"2017-02-28","end_dtc":"2020-12-19","visit":null},{"seq":"2","term":"DIABETES MELLITUS TYPE 2","decod":"DIABETES MELLITUS TYPE 2","cat":"ENDOCRINE","scat":null,"presp":null,"occur":null,"status":null,"onset_dtc":"2014-03","end_dtc":"2018-07-17","visit":null},{"seq":"3","term":"HYPERLIPIDEMIA","decod":"HYPERLIPIDEMIA","cat":"METABOLIC","scat":null,"presp":null,"occur":null,"status":null,"onset_dtc":"2014-03-01","end_dtc":"2021-10-05","visit":null}]},"section_3_inclusion_exclusion":{"criteria":[]},"section_4_trial_participation":{"visits":[{"visitnum":"1.0","visit":"SCREENING","start_dtc":"2024-02-07","end_dtc":"2024-02-07","updes":null},{"visitnum":"2.0","visit":"C1D1","start_dtc":"2024-03-31","end_dtc":"2024-03-31","updes":null},{"visitnum":"3.0","visit":"C1D15","start_dtc":"2024-04-15","end_dtc":"2024-04-15","updes":null},{"visitnum":"4.0","visit":"C2D1","start_dtc":"2024-04-27","end_dtc":"2024-04-27","updes":null},{"visitnum":"5.0","visit":"C3D1","start_dtc":"2024-05-27","end_dtc":"2024-05-27","updes":null},{"visitnum":"6.0","visit":"C4D1","start_dtc":"2024-06-20","end_dtc":"2024-06-20","updes":null},{"visitnum":"7.0","visit":"C6D1","start_dtc":"2024-08-24","end_dtc":"2024-08-24","updes":null},{"visitnum":"8.0","visit":"EOT","start_dtc":"2024-09-22","end_dtc":"2024-09-22","updes":null},{"visitnum":"9.0","visit":"FOLLOW-UP","start_dtc":"2024-10-08","end_dtc":"2024-10-08","updes":null}],"epochs":[{"seq":"1","etcd":"SCRN","element":"Screening","start_dtc":"2024-03-03","end_dtc":"2024-03-31","updes":null},{"seq":"2","etcd":"TRT","element":"Treatment","start_dtc":"2024-03-31","end_dtc":"2024-09-15","updes":null},{"seq":"3","etcd":"FU","element":"Follow-up","start_dtc":"2024-09-15","end_dtc":"2024-10-14","updes":null}],"visit_count":9},"section_5_concomitant_medications":{"medications":[{"seq":"1","trt":"METOCLOPRAMIDE","decod":"METOCLOPRAMIDE","cat":"CONCOMITANT","dose":"10","doseu":null,"dosef":"TID","route":"ORAL","indication":"NAUSEA","start_dtc":"2024-05-21","end_dtc":"2024-06-02","ongoing":null,"visit":null},{"seq":"2","trt":"IBUPROFEN","decod":"IBUPROFEN","cat":"CONCOMITANT","dose":"400","doseu":null,"dosef":"PRN","route":"ORAL","indication":"HYPOALBUMINAEMIA","start_dtc":"2024-07-13","end_dtc":"2024-07-30","ongoing":null,"visit":null},{"seq":"3","trt":"PARACETAMOL","decod":"PARACETAMOL","cat":"CONCOMITANT","dose":"500","doseu":null,"dosef":"PRN","route":"ORAL","indication":"PLEURAL EFFUSION","start_dtc":"2024-07-26","end_dtc":"2024-08-04","ongoing":null,"visit":null}]},"section_6_exposure":{"exposure_as_administered":[{"seq":"1","trt":"TEPOTINIB","dose":"500.0","doseu":null,"dosef":"QD","route":"ORAL","lot":null,"start_dtc":"2024-03-31","end_dtc":"2024-07-12","start_dy":"1","end_dy":"104","epoch":"TREATMENT","visit":null},{"seq":"2","trt":"TEPOTINIB","dose":"500.0","doseu":null,"dosef":"QD","route":"ORAL","lot":null,"start_dtc":"2024-08-03","end_dtc":"2024-08-19","start_dy":"126","end_dy":"142","epoch":"TREATMENT","visit":null}],"exposure_as_collected":[{"seq":"1","trt":"TEPOTINIB","dose":"500.0","doseu":null,"dosef":"QD","route":"ORAL","start_dtc":"2024-03-31","end_dtc":"2024-03-31","visit":"C1D1"},{"seq":"2","trt":"TEPOTINIB","dose":"500.0","doseu":null,"dosef":"QD","route":"ORAL","start_dtc":"2024-04-01","end_dtc":"2024-04-01","visit":"C1D1"},{"seq":"3","trt":"TEPOTINIB","dose":"500.0","doseu":null,"dosef":"QD","route":"ORAL","start_dtc":"2024-04-02","end_dtc":"2024-04-02","visit":"C1D1"},{"seq":"4","trt":"TEPOTINIB","dose":"500.0","doseu":null,"dosef":"QD","route":"ORAL","start_dtc":"2024-04-03","end_dtc":"2024-04-03","visit":"C1D1"},{"seq":"5","trt":"TEPOTINIB","dose":"500.0","doseu":null,"dosef":"QD","route":"ORAL","start_dtc":"2024-04-04","end_dtc":"2024-04-04","visit":null},{"seq":"6","trt":"TEPOTINIB","dose":null,"doseu":null,"dosef":"QD","route":"ORAL","start_dtc":"2024-04-05","end_dtc":"2024-04-05","visit":null},{"seq":"7","trt":"TEPOTINIB","dose":"500.0","doseu":null,"dosef":"QD","route":"ORAL","start_dtc":"2024-04-06","end_dtc":"2024-04-06","visit":null},{"seq":"8","trt":"TEPOTINIB","dose":"500.0","doseu":null,"dosef":"QD","route":"ORAL","start_dtc":"2024-04-07","end_dtc":"2024-04-07","visit":null},{"seq":"9","trt":"TEPOTINIB","dose":"500.0","doseu":null,"dosef":"QD","route":"ORAL","start_dtc":"2024-04-08","end_dtc":"2024-04-08","visit":null},{"seq":"10","trt":"TEPOTINIB","dose":"500.0","doseu":null,"dosef":"QD","route":"ORAL","start_dtc":"2024-04-09","end_dtc":"2024-04-09","visit":null},{"seq":"11","trt":"TEPOTINIB","dose":"500.0","doseu":null,"dosef":"QD","route":"ORAL","start_dtc":"2024-04-10","end_dtc":"2024-04-10","visit":null},{"seq":"12","trt":"TEPOTINIB","dose":"500.0","doseu":null,"dosef":"QD","route":"ORAL","start_dtc":"2024-04-11","end_dtc":"2024-04-11","visit":"C1D15"},{"seq":"13","trt":"TEPOTINIB","dose":"500.0","doseu":null,"dosef":"QD","route":"ORAL","start_dtc":"2024-04-12","end_dtc":"2024-04-12","visit":"C1D15"},{"seq":"14","trt":"TEPOTINIB","dose":"500.0","doseu":null,"dosef":"QD","route":"ORAL","start_dtc":"2024-04-13","end_dtc":"2024-04-13","visit":"C1D15"},{"seq":"15","trt":"TEPOTINIB","dose":"500.0","doseu":null,"dosef":"QD","route":"ORAL","start_dtc":"2024-04-14","end_dtc":"2024-04-14","visit":"C1D15"},{"seq":"16","trt":"TEPOTINIB","dose":"500.0","doseu":null,"dosef":"QD","route":"ORAL","start_dtc":"2024-04-15","end_dtc":"2024-04-15","visit":"C1D15"},{"seq":"17","trt":"TEPOTINIB","dose":"500.0","doseu":null,"dosef":"QD","route":"ORAL","start_dtc":"2024-04-16","end_dtc":"2024-04-16","visit":"C1D15"},{"seq":"18","trt":"TEPOTINIB","dose":"500.0","doseu":null,"dosef":"QD","route":"ORAL","start_dtc":"2024-04-17","end_dtc":"2024-04-17","visit":"C1D15"},{"seq":"19","trt":"TEPOTINIB","dose":"500.0","doseu":null,"dosef":"QD","route":"ORAL","start_dtc":"2024-04-18","end_dtc":"2024-04-18","visit":null},{"seq":"20","trt":"TEPOTINIB","dose":"500.0","doseu":null,"dosef":"QD","route":"ORAL","start_dtc":"2024-04-19","end_dtc":"2024-04-19","visit":null},{"seq":"21","trt":"TEPOTINIB","dose":"500.0","doseu":null,"dosef":"QD","route":"ORAL","start_dtc":"2024-04-20","end_dtc":"2024-04-20","visit":null},{"seq":"22","trt":"TEPOTINIB","dose":"500.0","doseu":null,"dosef":"QD","route":"ORAL","start_dtc":"2024-04-21","end_dtc":"2024-04-21","visit":null},{"seq":"23","trt":"TEPOTINIB","dose":"500.0","doseu":null,"dosef":"QD","route":"ORAL","start_dtc":"2024-04-22","end_dtc":"2024-04-22","visit":null},{"seq":"24","trt":"TEPOTINIB","dose":"500.0","doseu":null,"dosef":"QD","route":"ORAL","start_dtc":"2024-04-23","end_dtc":"2024-04-23","visit":null},{"seq":"25","trt":"TEPOTINIB","dose":"500.0","doseu":null,"dosef":"QD","route":"ORAL","start_dtc":"2024-04-24","end_dtc":"2024-04-24","visit":null},{"seq":"26","trt":"TEPOTINIB","dose":"500.0","doseu":null,"dosef":"QD","route":"ORAL","start_dtc":"2024-04-25","end_dtc":"2024-04-25","visit":"C2D1"},{"seq":"27","trt":"TEPOTINIB","dose":"500.0","doseu":null,"dosef":"QD","route":"ORAL","start_dtc":"2024-04-26","end_dtc":"2024-04-26","visit":"C2D1"},{"seq":"28","trt":"TEPOTINIB","dose":"500.0","doseu":null,"dosef":"QD","route":"ORAL","start_dtc":"2024-04-27","end_dtc":"2024-04-27","visit":"C2D1"},{"seq":"29","trt":"TEPOTINIB","dose":"500.0","doseu":null,"dosef":"QD","route":"ORAL","start_dtc":"2024-04-28","end_dtc":"2024-04-28","visit":"C2D1"},{"seq":"30","trt":"TEPOTINIB","dose":"500.0","doseu":null,"dosef":"QD","route":"ORAL","start_dtc":"2024-04-29","end_dtc":"2024-04-29","visit":"C2D1"},{"seq":"31","trt":"TEPOTINIB","dose":"500.0","doseu":null,"dosef":"QD","route":"ORAL","start_dtc":"2024-04-30","end_dtc":"2024-04-30","visit":"C2D1"},{"seq":"32","trt":"TEPOTINIB","dose":"500.0","doseu":null,"dosef":"QD","route":"ORAL","start_dtc":"2024-05-01","end_dtc":"2024-05-01","visit":"C2D1"},{"seq":"33","trt":"TEPOTINIB","dose":"500.0","doseu":null,"dosef":"QD","route":"ORAL","start_dtc":"2024-05-02","end_dtc":"2024-05-02","visit":null},{"seq":"34","trt":"TEPOTINIB","dose":"500.0","doseu":null,"dosef":"QD","route":"ORAL","start_dtc":"2024-05-03","end_dtc":"2024-05-03","visit":null},{"seq":"35","trt":"TEPOTINIB","dose":"500.0","doseu":null,"dosef":"QD","route":"ORAL","start_dtc":"2024-05-04","end_dtc":"2024-05-04","visit":null},{"seq":"36","trt":"TEPOTINIB","dose":"500.0","doseu":null,"dosef":"QD","route":"ORAL","start_dtc":"2024-05-05","end_dtc":"2024-05-05","visit":null},{"seq":"37","trt":"TEPOTINIB","dose":"500.0","doseu":null,"dosef":"QD","route":"ORAL","start_dtc":"2024-05-06","end_dtc":"2024-05-06","visit":null},{"seq":"38","trt":"TEPOTINIB","dose":"500.0","doseu":null,"dosef":"QD","route":"ORAL","start_dtc":"2024-05-07","end_dtc":"2024-05-07","visit":null},{"seq":"39","trt":"TEPOTINIB","dose":"500.0","doseu":null,"dosef":"QD","route":"ORAL","start_dtc":"2024-05-08","end_dtc":"2024-05-08","visit":null},{"seq":"40","trt":"TEPOTINIB","dose":"500.0","doseu":null,"dosef":"QD","route":"ORAL","start_dtc":"2024-05-09","end_dtc":"2024-05-09","visit":null},{"seq":"41","trt":"TEPOTINIB","dose":"500.0","doseu":null,"dosef":"QD","route":"ORAL","start_dtc":"2024-05-10","end_dtc":"2024-05-10","visit":null},{"seq":"42","trt":"TEPOTINIB","dose":"500.0","doseu":null,"dosef":"QD","route":"ORAL","start_dtc":"2024-05-11","end_dtc":"2024-05-11","visit":null},{"seq":"43","trt":"TEPOTINIB","dose":"500.0","doseu":null,"dosef":"QD","route":"ORAL","start_dtc":"2024-05-12","end_dtc":"2024-05-12","visit":null},{"seq":"44","trt":"TEPOTINIB","dose":"500.0","doseu":null,"dosef":"QD","route":"ORAL","start_dtc":"2024-05-13","end_dtc":"2024-05-13","visit":null},{"seq":"45","trt":"TEPOTINIB","dose":"500.0","doseu":null,"dosef":"QD","route":"ORAL","start_dtc":"2024-05-14","end_dtc":"2024-05-14","visit":null},{"seq":"46","trt":"TEPOTINIB","dose":"500.0","doseu":null,"dosef":"QD","route":"ORAL","start_dtc":"2024-05-15","end_dtc":"2024-05-15","visit":null},{"seq":"47","trt":"TEPOTINIB","dose":"500.0","doseu":null,"dosef":"QD","route":"ORAL","start_dtc":"2024-05-16","end_dtc":"2024-05-16","visit":null},{"seq":"48","trt":"TEPOTINIB","dose":"500.0","doseu":null,"dosef":"QD","route":"ORAL","start_dtc":"2024-05-17","end_dtc":"2024-05-17","visit":null},{"seq":"49","trt":"TEPOTINIB","dose":"500.0","doseu":null,"dosef":"QD","route":"ORAL","start_dtc":"2024-05-18","end_dtc":"2024-05-18","visit":null},{"seq":"50","trt":"TEPOTINIB","dose":"500.0","doseu":null,"dosef":"QD","route":"ORAL","start_dtc":"2024-05-19","end_dtc":"2024-05-19","visit":null},{"seq":"51","trt":"TEPOTINIB","dose":null,"doseu":null,"dosef":"QD","route":"ORAL","start_dtc":"2024-05-20","end_dtc":"2024-05-20","visit":null},{"seq":"52","trt":"TEPOTINIB","dose":"500.0","doseu":null,"dosef":"QD","route":"ORAL","start_dtc":"2024-05-21","end_dtc":"2024-05-21","visit":null},{"seq":"53","trt":"TEPOTINIB","dose":"500.0","doseu":null,"dosef":"QD","route":"ORAL","start_dtc":"2024-05-22","end_dtc":"2024-05-22","visit":null},{"seq":"54","trt":"TEPOTINIB","dose":"500.0","doseu":null,"dosef":"QD","route":"ORAL","start_dtc":"2024-05-23","end_dtc":"2024-05-23","visit":"C3D1"},{"seq":"55","trt":"TEPOTINIB","dose":"500.0","doseu":null,"dosef":"QD","route":"ORAL","start_dtc":"2024-05-24","end_dtc":"2024-05-24","visit":"C3D1"},{"seq":"56","trt":"TEPOTINIB","dose":"500.0","doseu":null,"dosef":"QD","route":"ORAL","start_dtc":"2024-05-25","end_dtc":"2024-05-25","visit":"C3D1"},{"seq":"57","trt":"TEPOTINIB","dose":null,"doseu":null,"dosef":"QD","route":"ORAL","start_dtc":"2024-05-26","end_dtc":"2024-05-26","visit":"C3D1"},{"seq":"58","trt":"TEPOTINIB","dose":"500.0","doseu":null,"dosef":"QD","route":"ORAL","start_dtc":"2024-05-27","end_dtc":"2024-05-27","visit":"C3D1"},{"seq":"59","trt":"TEPOTINIB","dose":"500.0","doseu":null,"dosef":"QD","route":"ORAL","start_dtc":"2024-05-28","end_dtc":"2024-05-28","visit":"C3D1"},{"seq":"60","trt":"TEPOTINIB","dose":"500.0","doseu":null,"dosef":"QD","route":"ORAL","start_dtc":"2024-05-29","end_dtc":"2024-05-29","visit":"C3D1"},{"seq":"61","trt":"TEPOTINIB","dose":"500.0","doseu":null,"dosef":"QD","route":"ORAL","start_dtc":"2024-05-30","end_dtc":"2024-05-30","visit":null},{"seq":"62","trt":"TEPOTINIB","dose":null,"doseu":null,"dosef":"QD","route":"ORAL","start_dtc":"2024-05-31","end_dtc":"2024-05-31","visit":null},{"seq":"63","trt":"TEPOTINIB","dose":"500.0","doseu":null,"dosef":"QD","route":"ORAL","start_dtc":"2024-06-01","end_dtc":"2024-06-01","visit":null},{"seq":"64","trt":"TEPOTINIB","dose":"500.0","doseu":null,"dosef":"QD","route":"ORAL","start_dtc":"2024-06-02","end_dtc":"2024-06-02","visit":null},{"seq":"65","trt":"TEPOTINIB","dose":"500.0","doseu":null,"dosef":"QD","route":"ORAL","start_dtc":"2024-06-03","end_dtc":"2024-06-03","visit":null},{"seq":"66","trt":"TEPOTINIB","dose":"500.0","doseu":null,"dosef":"QD","route":"ORAL","start_dtc":"2024-06-04","end_dtc":"2024-06-04","visit":null},{"seq":"67","trt":"TEPOTINIB","dose":"500.0","doseu":null,"dosef":"QD","route":"ORAL","start_dtc":"2024-06-05","end_dtc":"2024-06-05","visit":null},{"seq":"68","trt":"TEPOTINIB","dose":"500.0","doseu":null,"dosef":"QD","route":"ORAL","start_dtc":"2024-06-06","end_dtc":"2024-06-06","visit":null},{"seq":"69","trt":"TEPOTINIB","dose":"500.0","doseu":null,"dosef":"QD","route":"ORAL","start_dtc":"2024-06-07","end_dtc":"2024-06-07","visit":null},{"seq":"70","trt":"TEPOTINIB","dose":"500.0","doseu":null,"dosef":"QD","route":"ORAL","start_dtc":"2024-06-08","end_dtc":"2024-06-08","visit":null},{"seq":"71","trt":"TEPOTINIB","dose":"500.0","doseu":null,"dosef":"QD","route":"ORAL","start_dtc":"2024-06-09","end_dtc":"2024-06-09","visit":null},{"seq":"72","trt":"TEPOTINIB","dose":"500.0","doseu":null,"dosef":"QD","route":"ORAL","start_dtc":"2024-06-10","end_dtc":"2024-06-10","visit":null},{"seq":"73","trt":"TEPOTINIB","dose":"500.0","doseu":null,"dosef":"QD","route":"ORAL","start_dtc":"2024-06-11","end_dtc":"2024-06-11","visit":null},{"seq":"74","trt":"TEPOTINIB","dose":"500.0","doseu":null,"dosef":"QD","route":"ORAL","start_dtc":"2024-06-12","end_dtc":"2024-06-12","visit":null},{"seq":"75","trt":"TEPOTINIB","dose":"500.0","doseu":null,"dosef":"QD","route":"ORAL","start_dtc":"2024-06-13","end_dtc":"2024-06-13","visit":null},{"seq":"76","trt":"TEPOTINIB","dose":"500.0","doseu":null,"dosef":"QD","route":"ORAL","start_dtc":"2024-06-14","end_dtc":"2024-06-14","visit":null},{"seq":"77","trt":"TEPOTINIB","dose":"500.0","doseu":null,"dosef":"QD","route":"ORAL","start_dtc":"2024-06-15","end_dtc":"2024-06-15","visit":null},{"seq":"78","trt":"TEPOTINIB","dose":"500.0","doseu":null,"dosef":"QD","route":"ORAL","start_dtc":"2024-06-16","end_dtc":"2024-06-16","visit":null},{"seq":"79","trt":"TEPOTINIB","dose":"500.0","doseu":null,"dosef":"QD","route":"ORAL","start_dtc":"2024-06-17","end_dtc":"2024-06-17","visit":null},{"seq":"80","trt":"TEPOTINIB","dose":"500.0","doseu":null,"dosef":"QD","route":"ORAL","start_dtc":"2024-06-18","end_dtc":"2024-06-18","visit":null},{"seq":"81","trt":"TEPOTINIB","dose":"500.0","doseu":null,"dosef":"QD","route":"ORAL","start_dtc":"2024-06-19","end_dtc":"2024-06-19","visit":null},{"seq":"82","trt":"TEPOTINIB","dose":null,"doseu":null,"dosef":"QD","route":"ORAL","start_dtc":"2024-06-20","end_dtc":"2024-06-20","visit":"C4D1"},{"seq":"83","trt":"TEPOTINIB","dose":"500.0","doseu":null,"dosef":"QD","route":"ORAL","start_dtc":"2024-06-21","end_dtc":"2024-06-21","visit":"C4D1"},{"seq":"84","trt":"TEPOTINIB","dose":"500.0","doseu":null,"dosef":"QD","route":"ORAL","start_dtc":"2024-06-22","end_dtc":"2024-06-22","visit":"C4D1"},{"seq":"85","trt":"TEPOTINIB","dose":"500.0","doseu":null,"dosef":"QD","route":"ORAL","start_dtc":"2024-06-23","end_dtc":"2024-06-23","visit":"C4D1"},{"seq":"86","trt":"TEPOTINIB","dose":"500.0","doseu":null,"dosef":"QD","route":"ORAL","start_dtc":"2024-06-24","end_dtc":"2024-06-24","visit":"C4D1"},{"seq":"87","trt":"TEPOTINIB","dose":"500.0","doseu":null,"dosef":"QD","route":"ORAL","start_dtc":"2024-06-25","end_dtc":"2024-06-25","visit":"C4D1"},{"seq":"88","trt":"TEPOTINIB","dose":"500.0","doseu":null,"dosef":"QD","route":"ORAL","start_dtc":"2024-06-26","end_dtc":"2024-06-26","visit":"C4D1"},{"seq":"89","trt":"TEPOTINIB","dose":"500.0","doseu":null,"dosef":"QD","route":"ORAL","start_dtc":"2024-06-27","end_dtc":"2024-06-27","visit":null},{"seq":"90","trt":"TEPOTINIB","dose":"500.0","doseu":null,"dosef":"QD","route":"ORAL","start_dtc":"2024-06-28","end_dtc":"2024-06-28","visit":null},{"seq":"91","trt":"TEPOTINIB","dose":"500.0","doseu":null,"dosef":"QD","route":"ORAL","start_dtc":"2024-06-29","end_dtc":"2024-06-29","visit":null},{"seq":"92","trt":"TEPOTINIB","dose":"500.0","doseu":null,"dosef":"QD","route":"ORAL","start_dtc":"2024-06-30","end_dtc":"2024-06-30","visit":null},{"seq":"93","trt":"TEPOTINIB","dose":"500.0","doseu":null,"dosef":"QD","route":"ORAL","start_dtc":"2024-07-01","end_dtc":"2024-07-01","visit":null},{"seq":"94","trt":"TEPOTINIB","dose":null,"doseu":null,"dosef":"QD","route":"ORAL","start_dtc":"2024-07-02","end_dtc":"2024-07-02","visit":null},{"seq":"95","trt":"TEPOTINIB","dose":"500.0","doseu":null,"dosef":"QD","route":"ORAL","start_dtc":"2024-07-03","end_dtc":"2024-07-03","visit":null},{"seq":"96","trt":"TEPOTINIB","dose":"500.0","doseu":null,"dosef":"QD","route":"ORAL","start_dtc":"2024-07-04","end_dtc":"2024-07-04","visit":null},{"seq":"97","trt":"TEPOTINIB","dose":"500.0","doseu":null,"dosef":"QD","route":"ORAL","start_dtc":"2024-07-05","end_dtc":"2024-07-05","visit":null},{"seq":"98","trt":"TEPOTINIB","dose":"500.0","doseu":null,"dosef":"QD","route":"ORAL","start_dtc":"2024-07-06","end_dtc":"2024-07-06","visit":null},{"seq":"99","trt":"TEPOTINIB","dose":"500.0","doseu":null,"dosef":"QD","route":"ORAL","start_dtc":"2024-07-07","end_dtc":"2024-07-07","visit":null},{"seq":"100","trt":"TEPOTINIB","dose":"500.0","doseu":null,"dosef":"QD","route":"ORAL","start_dtc":"2024-07-08","end_dtc":"2024-07-08","visit":null},{"seq":"101","trt":"TEPOTINIB","dose":"500.0","doseu":null,"dosef":"QD","route":"ORAL","start_dtc":"2024-07-09","end_dtc":"2024-07-09","visit":null},{"seq":"102","trt":"TEPOTINIB","dose":"500.0","doseu":null,"dosef":"QD","route":"ORAL","start_dtc":"2024-07-10","end_dtc":"2024-07-10","visit":null},{"seq":"103","trt":"TEPOTINIB","dose":"500.0","doseu":null,"dosef":"QD","route":"ORAL","start_dtc":"2024-07-11","end_dtc":"2024-07-11","visit":null},{"seq":"104","trt":"TEPOTINIB","dose":"500.0","doseu":null,"dosef":"QD","route":"ORAL","start_dtc":"2024-07-12","end_dtc":"2024-07-12","visit":null},{"seq":"105","trt":"TEPOTINIB","dose":null,"doseu":null,"dosef":"QD","route":"ORAL","start_dtc":"2024-08-03","end_dtc":"2024-08-03","visit":null},{"seq":"106","trt":"TEPOTINIB","dose":"500.0","doseu":null,"dosef":"QD","route":"ORAL","start_dtc":"2024-08-04","end_dtc":"2024-08-04","visit":null},{"seq":"107","trt":"TEPOTINIB","dose":null,"doseu":null,"dosef":"QD","route":"ORAL","start_dtc":"2024-08-05","end_dtc":"2024-08-05","visit":null},{"seq":"108","trt":"TEPOTINIB","dose":"500.0","doseu":null,"dosef":"QD","route":"ORAL","start_dtc":"2024-08-06","end_dtc":"2024-08-06","visit":null},{"seq":"109","trt":"TEPOTINIB","dose":"500.0","doseu":null,"dosef":"QD","route":"ORAL","start_dtc":"2024-08-07","end_dtc":"2024-08-07","visit":null},{"seq":"110","trt":"TEPOTINIB","dose":"500.0","doseu":null,"dosef":"QD","route":"ORAL","start_dtc":"2024-08-08","end_dtc":"2024-08-08","visit":null},{"seq":"111","trt":"TEPOTINIB","dose":"500.0","doseu":null,"dosef":"QD","route":"ORAL","start_dtc":"2024-08-09","end_dtc":"2024-08-09","visit":null},{"seq":"112","trt":"TEPOTINIB","dose":"500.0","doseu":null,"dosef":"QD","route":"ORAL","start_dtc":"2024-08-10","end_dtc":"2024-08-10","visit":null},{"seq":"113","trt":"TEPOTINIB","dose":"500.0","doseu":null,"dosef":"QD","route":"ORAL","start_dtc":"2024-08-11","end_dtc":"2024-08-11","visit":null},{"seq":"114","trt":"TEPOTINIB","dose":"500.0","doseu":null,"dosef":"QD","route":"ORAL","start_dtc":"2024-08-12","end_dtc":"2024-08-12","visit":null},{"seq":"115","trt":"TEPOTINIB","dose":"500.0","doseu":null,"dosef":"QD","route":"ORAL","start_dtc":"2024-08-13","end_dtc":"2024-08-13","visit":null},{"seq":"116","trt":"TEPOTINIB","dose":"500.0","doseu":null,"dosef":"QD","route":"ORAL","start_dtc":"2024-08-14","end_dtc":"2024-08-14","visit":null},{"seq":"117","trt":"TEPOTINIB","dose":"500.0","doseu":null,"dosef":"QD","route":"ORAL","start_dtc":"2024-08-15","end_dtc":"2024-08-15","visit":"C6D1"},{"seq":"118","trt":"TEPOTINIB","dose":"500.0","doseu":null,"dosef":"QD","route":"ORAL","start_dtc":"2024-08-16","end_dtc":"2024-08-16","visit":"C6D1"},{"seq":"119","trt":"TEPOTINIB","dose":"500.0","doseu":null,"dosef":"QD","route":"ORAL","start_dtc":"2024-08-17","end_dtc":"2024-08-17","visit":"C6D1"},{"seq":"120","trt":"TEPOTINIB","dose":"500.0","doseu":null,"dosef":"QD","route":"ORAL","start_dtc":"2024-08-18","end_dtc":"2024-08-18","visit":"C6D1"},{"seq":"121","trt":"TEPOTINIB","dose":"500.0","doseu":null,"dosef":"QD","route":"ORAL","start_dtc":"2024-08-19","end_dtc":"2024-08-19","visit":"C6D1"}]},"section_7_adverse_events":{"summary":{"total_aes":6,"serious_aes":0,"fatal_aes":0,"by_severity":{"MILD":3,"MODERATE":3},"by_soc":{"Gastrointestinal disorders":3,"Metabolism and nutrition disorders":2,"Respiratory, thoracic and mediastinal disorders":1}},"events":[{"seq":"1","term":"DIARRHOEA","decod":"Diarrhoea","llt":"Diarrhoea","hlt":"Diarrhoea (excl infective)","hlgt":"Gastrointestinal motility and defaecation conditions","soc":"Gastrointestinal disorders","bodsys":"Gastrointestinal disorders","severity":"MILD","serious":"N","causality":"PROBABLY RELATED","action_taken":"DOSE NOT CHANGED","outcome":"UNKNOWN","fatal":"N","hospitalization":"N","life_threatening":"N","onset_dtc":"2024-04-14","end_dtc":"2024-04-19","onset_dy":"15","end_dy":"20","duration":null,"epoch":"TREATMENT","visit":null,"supplemental":{}},{"seq":"2","term":"DECREASED APPETITE","decod":"Decreased appetite","llt":"Decreased appetite","hlt":"Appetite disorders","hlgt":"Eating disorders and disturbances","soc":"Metabolism and nutrition disorders","bodsys":"Metabolism and nutrition disorders","severity":"MILD","serious":"N","causality":"UNLIKELY RELATED","action_taken":"DOSE NOT CHANGED","outcome":"RECOVERED/RESOLVED","fatal":"N","hospitalization":"N","life_threatening":"N","onset_dtc":"2024-05-15","end_dtc":"2024-05-24","onset_dy":"46","end_dy":"55","duration":null,"epoch":"TREATMENT","visit":null,"supplemental":{}},{"seq":"3","term":"NAUSEA","decod":"Nausea","llt":"Nausea","hlt":"Nausea and vomiting symptoms","hlgt":"Gastrointestinal signs and symptoms","soc":"Gastrointestinal disorders","bodsys":"Gastrointestinal disorders","severity":"MODERATE","serious":"N","causality":"POSSIBLY RELATED","action_taken":"DOSE NOT CHANGED","outcome":"RECOVERING/RESOLVING","fatal":"N","hospitalization":"N","life_threatening":"N","onset_dtc":"2024-05-21","end_dtc":"2024-05-27","onset_dy":"52","end_dy":"58","duration":null,"epoch":"TREATMENT","visit":null,"supplemental":{}},{"seq":"4","term":"HYPOALBUMINAEMIA","decod":"Hypoalbuminaemia","llt":"Hypoalbuminaemia","hlt":"Protein metabolism disorders","hlgt":"Protein and amino acid metabolism disorders","soc":"Metabolism and nutrition disorders","bodsys":"Metabolism and nutrition disorders","severity":"MODERATE","serious":"N","causality":"POSSIBLY RELATED","action_taken":"DRUG INTERRUPTED","outcome":"RECOVERING/RESOLVING","fatal":"N","hospitalization":"N","life_threatening":"N","onset_dtc":"2024-07-13","end_dtc":"2024-08-03","onset_dy":"105","end_dy":"126","duration":null,"epoch":"TREATMENT","visit":null,"supplemental":{}},{"seq":"5","term":"PLEURAL EFFUSION","decod":"Pleural effusion","llt":"Pleural effusion","hlt":"Pleural conditions and effusions NEC","hlgt":"Respiratory disorders NEC","soc":"Respiratory, thoracic and mediastinal disorders","bodsys":"Respiratory, thoracic and mediastinal disorders","severity":"MILD","serious":"N","causality":"UNLIKELY RELATED","action_taken":"DOSE NOT CHANGED","outcome":"RECOVERED/RESOLVED","fatal":"N","hospitalization":"N","life_threatening":"N","onset_dtc":"2024-07-26","end_dtc":"2024-08-03","onset_dy":"118","end_dy":"126","duration":null,"epoch":"TREATMENT","visit":null,"supplemental":{}},{"seq":"6","term":"NAUSEA","decod":"Nausea","llt":"Nausea","hlt":"Nausea and vomiting symptoms","hlgt":"Gastrointestinal signs and symptoms","soc":"Gastrointestinal disorders","bodsys":"Gastrointestinal disorders","severity":"MODERATE","serious":"N","causality":"NOT RELATED","action_taken":"DOSE NOT CHANGED","outcome":"RECOVERING/RESOLVING","fatal":"N","hospitalization":"N","life_threatening":"N","onset_dtc":"2024-08-28","end_dtc":"2024-09-04","onset_dy":"151","end_dy":"158","duration":null,"epoch":"TREATMENT","visit":null,"supplemental":{}}]},"section_8_laboratory_results":{"summary":{"total_records":42,"abnormal_count":15,"abnormal_pct":35.7},"shift_summary":[{"testcd":"ALT","baseline_value":26.5,"baseline_nrind":"NORMAL","worst_post_baseline_value":29.15,"worst_post_baseline_nrind":"NORMAL","worst_visit":"EOT"},{"testcd":"AST","baseline_value":19.03,"baseline_nrind":"NORMAL","worst_post_baseline_value":22.62,"worst_post_baseline_nrind":"NORMAL","worst_visit":"C4D1"},{"testcd":"CREAT","baseline_value":81.38,"baseline_nrind":"HIGH","worst_post_baseline_value":83.25,"worst_post_baseline_nrind":"HIGH","worst_visit":"C1D15"},{"testcd":"GLUC","baseline_value":6.51,"baseline_nrind":"HIGH","worst_post_baseline_value":6.32,"worst_post_baseline_nrind":"HIGH","worst_visit":"C1D1"},{"testcd":"HGB","baseline_value":139.12,"baseline_nrind":"NORMAL","worst_post_baseline_value":137.97,"worst_post_baseline_nrind":"NORMAL","worst_visit":"C3D1"},{"testcd":"PLAT","baseline_value":231.17,"baseline_nrind":"NORMAL","worst_post_baseline_value":234.22,"worst_post_baseline_nrind":"NORMAL","worst_visit":"C4D1"},{"testcd":"WBC","baseline_value":3.25,"baseline_nrind":"LOW","worst_post_baseline_value":3.67,"worst_post_baseline_nrind":"LOW","worst_visit":"C1D1"}],"results":[{"seq":"1","testcd":"ALT","test":"Alanine Aminotransferase","cat":"CHEMISTRY","orres":"26.5","orresu":"U/L","stresc":"26.5","stresn":"26.5","stresu":"U/L","stnrlo":"7","stnrhi":"56","nrind":"NORMAL","fast":null,"dtc":"2024-02-07","dy":"-53","visit":"SCREENING","visitnum":"1.0","epoch":"SCREENING","spec":null,"method":null},{"seq":"2","testcd":"AST","test":"Aspartate Aminotransferase","cat":"CHEMISTRY","orres":"19.03","orresu":"U/L","stresc":"19.03","stresn":"19.03","stresu":"U/L","stnrlo":"10","stnrhi":"40","nrind":"NORMAL","fast":null,"dtc":"2024-02-07","dy":"-53","visit":"SCREENING","visitnum":"1.0","epoch":"SCREENING","spec":null,"method":null},{"seq":"3","testcd":"CREAT","test":"Creatinine","cat":"CHEMISTRY","orres":"81.38","orresu":"umol/L","stresc":"81.38","stresn":"81.38","stresu":"umol/L","stnrlo":"44","stnrhi":"80","nrind":"HIGH","fast":null,"dtc":"2024-02-07","dy":"-53","visit":"SCREENING","visitnum":"1.0","epoch":"SCREENING","spec":null,"method":null},{"seq":"4","testcd":"GLUC","test":"Glucose","cat":"CHEMISTRY","orres":"6.51","orresu":"mmol/L","stresc":"6.51","stresn":"6.51","stresu":"mmol/L","stnrlo":"3.9","stnrhi":"5.6","nrind":"HIGH","fast":null,"dtc":"2024-02-07","dy":"-53","visit":"SCREENING","visitnum":"1.0","epoch":"SCREENING","spec":null,"method":null},{"seq":"5","testcd":"HGB","test":"Hemoglobin","cat":"HEMATOLOGY","orres":"139.12","orresu":"g/L","stresc":"139.12","stresn":"139.12","stresu":"g/L","stnrlo":"120","stnrhi":"155","nrind":"NORMAL","fast":null,"dtc":"2024-02-07","dy":"-53","visit":"SCREENING","visitnum":"1.0","epoch":"SCREENING","spec":null,"method":null},{"seq":"6","testcd":"PLAT","test":"Platelets","cat":"HEMATOLOGY","orres":"231.17","orresu":"10^9/L","stresc":"231.17","stresn":"231.17","stresu":"10^9/L","stnrlo":"150","stnrhi":"400","nrind":"NORMAL","fast":null,"dtc":"2024-02-07","dy":"-53","visit":"SCREENING","visitnum":"1.0","epoch":"SCREENING","spec":null,"method":null},{"seq":"7","testcd":"WBC","test":"Leukocytes","cat":"HEMATOLOGY","orres":"3.25","orresu":"10^9/L","stresc":"3.25","stresn":"3.25","stresu":"10^9/L","stnrlo":"4.0","stnrhi":"11.0","nrind":"LOW","fast":null,"dtc":"2024-02-07","dy":"-53","visit":"SCREENING","visitnum":"1.0","epoch":"SCREENING","spec":null,"method":null},{"seq":"8","testcd":"ALT","test":"Alanine Aminotransferase","cat":"CHEMISTRY","orres":"25.91","orresu":"U/L","stresc":"25.91","stresn":"25.91","stresu":"U/L","stnrlo":"7","stnrhi":"56","nrind":"NORMAL","fast":null,"dtc":"2024-03-31","dy":"1","visit":"C1D1","visitnum":"2.0","epoch":"TREATMENT","spec":null,"method":null},{"seq":"9","testcd":"AST","test":"Aspartate Aminotransferase","cat":"CHEMISTRY","orres":"20.25","orresu":"U/L","stresc":"20.25","stresn":"20.25","stresu":"U/L","stnrlo":"10","stnrhi":"40","nrind":"NORMAL","fast":null,"dtc":"2024-03-31","dy":"1","visit":"C1D1","visitnum":"2.0","epoch":"TREATMENT","spec":null,"method":null},{"seq":"10","testcd":"CREAT","test":"Creatinine","cat":"CHEMISTRY","orres":"81.36","orresu":"umol/L","stresc":"81.36","stresn":"81.36","stresu":"umol/L","stnrlo":"44","stnrhi":"80","nrind":"HIGH","fast":null,"dtc":"2024-03-31","dy":"1","visit":"C1D1","visitnum":"2.0","epoch":"TREATMENT","spec":null,"method":null},{"seq":"11","testcd":"GLUC","test":"Glucose","cat":"CHEMISTRY","orres":"6.32","orresu":"mmol/L","stresc":"6.32","stresn":"6.32","stresu":"mmol/L","stnrlo":"3.9","stnrhi":"5.6","nrind":"HIGH","fast":null,"dtc":"2024-03-31","dy":"1","visit":"C1D1","visitnum":"2.0","epoch":"TREATMENT","spec":null,"method":null},{"seq":"12","testcd":"HGB","test":"Hemoglobin","cat":"HEMATOLOGY","orres":"138.29","orresu":"g/L","stresc":"138.29","stresn":"138.29","stresu":"g/L","stnrlo":"120","stnrhi":"155","nrind":"NORMAL","fast":null,"dtc":"2024-03-31","dy":"1","visit":"C1D1","visitnum":"2.0","epoch":"TREATMENT","spec":null,"method":null},{"seq":"13","testcd":"PLAT","test":"Platelets","cat":"HEMATOLOGY","orres":"227.42","orresu":"10^9/L","stresc":"227.42","stresn":"227.42","stresu":"10^9/L","stnrlo":"150","stnrhi":"400","nrind":"NORMAL","fast":null,"dtc":"2024-03-31","dy":"1","visit":"C1D1","visitnum":"2.0","epoch":"TREATMENT","spec":null,"method":null},{"seq":"14","testcd":"WBC","test":"Leukocytes","cat":"HEMATOLOGY","orres":"3.67","orresu":"10^9/L","stresc":"3.67","stresn":"3.67","stresu":"10^9/L","stnrlo":"4.0","stnrhi":"11.0","nrind":"LOW","fast":null,"dtc":"2024-03-31","dy":"1","visit":"C1D1","visitnum":"2.0","epoch":"TREATMENT","spec":null,"method":null},{"seq":"15","testcd":"ALT","test":"Alanine Aminotransferase","cat":"CHEMISTRY","orres":"27.34","orresu":"U/L","stresc":"27.34","stresn":"27.34","stresu":"U/L","stnrlo":"7","stnrhi":"56","nrind":"NORMAL","fast":null,"dtc":"2024-04-15","dy":"16","visit":"C1D15","visitnum":"3.0","epoch":"TREATMENT","spec":null,"method":null},{"seq":"16","testcd":"AST","test":"Aspartate Aminotransferase","cat":"CHEMISTRY","orres":"20.79","orresu":"U/L","stresc":"20.79","stresn":"20.79","stresu":"U/L","stnrlo":"10","stnrhi":"40","nrind":"NORMAL","fast":null,"dtc":"2024-04-15","dy":"16","visit":"C1D15","visitnum":"3.0","epoch":"TREATMENT","spec":null,"method":null},{"seq":"17","testcd":"CREAT","test":"Creatinine","cat":"CHEMISTRY","orres":"83.25","orresu":"umol/L","stresc":"83.25","stresn":"83.25","stresu":"umol/L","stnrlo":"44","stnrhi":"80","nrind":"HIGH","fast":null,"dtc":"2024-04-15","dy":"16","visit":"C1D15","visitnum":"3.0","epoch":"TREATMENT","spec":null,"method":null},{"seq":"18","testcd":"GLUC","test":"Glucose","cat":"CHEMISTRY","orres":"6.22","orresu":"mmol/L","stresc":"6.22","stresn":"6.22","stresu":"mmol/L","stnrlo":"3.9","stnrhi":"5.6","nrind":"HIGH","fast":null,"dtc":"2024-04-15","dy":"16","visit":"C1D15","visitnum":"3.0","epoch":"TREATMENT","spec":null,"method":null},{"seq":"19","testcd":"HGB","test":"Hemoglobin","cat":"HEMATOLOGY","orres":"138.7","orresu":"g/L","stresc":"138.7","stresn":"138.7","stresu":"g/L","stnrlo":"120","stnrhi":"155","nrind":"NORMAL","fast":null,"dtc":"2024-04-15","dy":"16","visit":"C1D15","visitnum":"3.0","epoch":"TREATMENT","spec":null,"method":null},{"seq":"20","testcd":"PLAT","test":"Platelets","cat":"HEMATOLOGY","orres":"223.82","orresu":"10^9/L","stresc":"223.82","stresn":"223.82","stresu":"10^9/L","stnrlo":"150","stnrhi":"400","nrind":"NORMAL","fast":null,"dtc":"2024-04-15","dy":"16","visit":"C1D15","visitnum":"3.0","epoch":"TREATMENT","spec":null,"method":null},{"seq":"21","testcd":"WBC","test":"Leukocytes","cat":"HEMATOLOGY","orres":"2.26","orresu":"10^9/L","stresc":"2.26","stresn":"2.26","stresu":"10^9/L","stnrlo":"4.0","stnrhi":"11.0","nrind":"LOW","fast":null,"dtc":"2024-04-15","dy":"16","visit":"C1D15","visitnum":"3.0","epoch":"TREATMENT","spec":null,"method":null},{"seq":"22","testcd":"ALT","test":"Alanine Aminotransferase","cat":"CHEMISTRY","orres":"28.34","orresu":"U/L","stresc":"28.34","stresn":"28.34","stresu":"U/L","stnrlo":"7","stnrhi":"56","nrind":"NORMAL","fast":null,"dtc":"2024-05-27","dy":"58","visit":"C3D1","visitnum":"5.0","epoch":"TREATMENT","spec":null,"method":null},{"seq":"23","testcd":"AST","test":"Aspartate Aminotransferase","cat":"CHEMISTRY","orres":"22.28","orresu":"U/L","stresc":"22.28","stresn":"22.28","stresu":"U/L","stnrlo":"10","stnrhi":"40","nrind":"NORMAL","fast":null,"dtc":"2024-05-27","dy":"58","visit":"C3D1","visitnum":"5.0","epoch":"TREATMENT","spec":null,"method":null},{"seq":"24","testcd":"CREAT","test":"Creatinine","cat":"CHEMISTRY","orres":"78.2","orresu":"umol/L","stresc":"78.2","stresn":"78.2","stresu":"umol/L","stnrlo":"44","stnrhi":"80","nrind":"NORMAL","fast":null,"dtc":"2024-05-27","dy":"58","visit":"C3D1","visitnum":"5.0","epoch":"TREATMENT","spec":null,"method":null},{"seq":"25","testcd":"GLUC","test":"Glucose","cat":"CHEMISTRY","orres":"6.3","orresu":"mmol/L","stresc":"6.3","stresn":"6.3","stresu":"mmol/L","stnrlo":"3.9","stnrhi":"5.6","nrind":"HIGH","fast":null,"dtc":"2024-05-27","dy":"58","visit":"C3D1","visitnum":"5.0","epoch":"TREATMENT","spec":null,"method":null},{"seq":"26","testcd":"HGB","test":"Hemoglobin","cat":"HEMATOLOGY","orres":"137.97","orresu":"g/L","stresc":"137.97","stresn":"137.97","stresu":"g/L","stnrlo":"120","stnrhi":"155","nrind":"NORMAL","fast":null,"dtc":"2024-05-27","dy":"58","visit":"C3D1","visitnum":"5.0","epoch":"TREATMENT","spec":null,"method":null},{"seq":"27","testcd":"PLAT","test":"Platelets","cat":"HEMATOLOGY","orres":"232.04","orresu":"10^9/L","stresc":"232.04","stresn":"232.04","stresu":"10^9/L","stnrlo":"150","stnrhi":"400","nrind":"NORMAL","fast":null,"dtc":"2024-05-27","dy":"58","visit":"C3D1","visitnum":"5.0","epoch":"TREATMENT","spec":null,"method":null},{"seq":"28","testcd":"WBC","test":"Leukocytes","cat":"HEMATOLOGY","orres":null,"orresu":null,"stresc":null,"stresn":null,"stresu":null,"stnrlo":null,"stnrhi":null,"nrind":null,"fast":null,"dtc":"2024-05-27","dy":"58","visit":"C3D1","visitnum":"5.0","epoch":"TREATMENT","spec":null,"method":null},{"seq":"29","testcd":"ALT","test":"Alanine Aminotransferase","cat":"CHEMISTRY","orres":"29.13","orresu":"U/L","stresc":"29.13","stresn":"29.13","stresu":"U/L","stnrlo":"7","stnrhi":"56","nrind":"NORMAL","fast":null,"dtc":"2024-06-20","dy":"82","visit":"C4D1","visitnum":"6.0","epoch":"TREATMENT","spec":null,"method":null},{"seq":"30","testcd":"AST","test":"Aspartate Aminotransferase","cat":"CHEMISTRY","orres":"22.62","orresu":"U/L","stresc":"22.62","stresn":"22.62","stresu":"U/L","stnrlo":"10","stnrhi":"40","nrind":"NORMAL","fast":null,"dtc":"2024-06-20","dy":"82","visit":"C4D1","visitnum":"6.0","epoch":"TREATMENT","spec":null,"method":null},{"seq":"31","testcd":"CREAT","test":"Creatinine","cat":"CHEMISTRY","orres":"78.92","orresu":"umol/L","stresc":"78.92","stresn":"78.92","stresu":"umol/L","stnrlo":"44","stnrhi":"80","nrind":"NORMAL","fast":null,"dtc":"2024-06-20","dy":"82","visit":"C4D1","visitnum":"6.0","epoch":"TREATMENT","spec":null,"method":null},{"seq":"32","testcd":"GLUC","test":"Glucose","cat":"CHEMISTRY","orres":"6.17","orresu":"mmol/L","stresc":"6.17","stresn":"6.17","stresu":"mmol/L","stnrlo":"3.9","stnrhi":"5.6","nrind":"HIGH","fast":null,"dtc":"2024-06-20","dy":"82","visit":"C4D1","visitnum":"6.0","epoch":"TREATMENT","spec":null,"method":null},{"seq":"33","testcd":"HGB","test":"Hemoglobin","cat":"HEMATOLOGY","orres":"139.62","orresu":"g/L","stresc":"139.62","stresn":"139.62","stresu":"g/L","stnrlo":"120","stnrhi":"155","nrind":"NORMAL","fast":null,"dtc":"2024-06-20","dy":"82","visit":"C4D1","visitnum":"6.0","epoch":"TREATMENT","spec":null,"method":null},{"seq":"34","testcd":"PLAT","test":"Platelets","cat":"HEMATOLOGY","orres":"234.22","orresu":"10^9/L","stresc":"234.22","stresn":"234.22","stresu":"10^9/L","stnrlo":"150","stnrhi":"400","nrind":"NORMAL","fast":null,"dtc":"2024-06-20","dy":"82","visit":"C4D1","visitnum":"6.0","epoch":"TREATMENT","spec":null,"method":null},{"seq":"35","testcd":"WBC","test":"Leukocytes","cat":"HEMATOLOGY","orres":"2.18","orresu":"10^9/L","stresc":"2.18","stresn":"2.18","stresu":"10^9/L","stnrlo":"4.0","stnrhi":"11.0","nrind":"LOW","fast":null,"dtc":"2024-06-20","dy":"82","visit":"C4D1","visitnum":"6.0","epoch":"TREATMENT","spec":null,"method":null},{"seq":"36","testcd":"ALT","test":"Alanine Aminotransferase","cat":"CHEMISTRY","orres":"29.15","orresu":"U/L","stresc":"29.15","stresn":"29.15","stresu":"U/L","stnrlo":"7","stnrhi":"56","nrind":"NORMAL","fast":null,"dtc":"2024-09-22","dy":"176","visit":"EOT","visitnum":"8.0","epoch":"TREATMENT","spec":null,"method":null},{"seq":"37","testcd":"AST","test":"Aspartate Aminotransferase","cat":"CHEMISTRY","orres":"22.54","orresu":"U/L","stresc":"22.54","stresn":"22.54","stresu":"U/L","stnrlo":"10","stnrhi":"40","nrind":"NORMAL","fast":null,"dtc":"2024-09-22","dy":"176","visit":"EOT","visitnum":"8.0","epoch":"TREATMENT","spec":null,"method":null},{"seq":"38","testcd":"CREAT","test":"Creatinine","cat":"CHEMISTRY","orres":"82.22","orresu":"umol/L","stresc":"82.22","stresn":"82.22","stresu":"umol/L","stnrlo":"44","stnrhi":"80","nrind":"HIGH","fast":null,"dtc":"2024-09-22","dy":"176","visit":"EOT","visitnum":"8.0","epoch":"TREATMENT","spec":null,"method":null},{"seq":"39","testcd":"GLUC","test":"Glucose","cat":"CHEMISTRY","orres":"6.17","orresu":"mmol/L","stresc":"6.17","stresn":"6.17","stresu":"mmol/L","stnrlo":"3.9","stnrhi":"5.6","nrind":"HIGH","fast":null,"dtc":"2024-09-22","dy":"176","visit":"EOT","visitnum":"8.0","epoch":"TREATMENT","spec":null,"method":null},{"seq":"40","testcd":"HGB","test":"Hemoglobin","cat":"HEMATOLOGY","orres":"141.41","orresu":"g/L","stresc":"141.41","stresn":"141.41","stresu":"g/L","stnrlo":"120","stnrhi":"155","nrind":"NORMAL","fast":null,"dtc":"2024-09-22","dy":"176","visit":"EOT","visitnum":"8.0","epoch":"TREATMENT","spec":null,"method":null},{"seq":"41","testcd":"PLAT","test":"Platelets","cat":"HEMATOLOGY","orres":"224.87","orresu":"10^9/L","stresc":"224.87","stresn":"224.87","stresu":"10^9/L","stnrlo":"150","stnrhi":"400","nrind":"NORMAL","fast":null,"dtc":"2024-09-22","dy":"176","visit":"EOT","visitnum":"8.0","epoch":"TREATMENT","spec":null,"method":null},{"seq":"42","testcd":"WBC","test":"Leukocytes","cat":"HEMATOLOGY","orres":"2.53","orresu":"10^9/L","stresc":"2.53","stresn":"2.53","stresu":"10^9/L","stnrlo":"4.0","stnrhi":"11.0","nrind":"LOW","fast":null,"dtc":"2024-09-22","dy":"176","visit":"EOT","visitnum":"8.0","epoch":"TREATMENT","spec":null,"method":null}]},"section_9_vital_signs":{"summary":{"total_records":72},"trends":{"BMI":[{"visit":"SCREENING","visitnum":"1.0","dtc":"2024-02-07","value":"24.7","unit":"kg/m2"},{"visit":"C1D1","visitnum":"2.0","dtc":"2024-03-31","value":"24.5","unit":"kg/m2"},{"visit":"C1D15","visitnum":"3.0","dtc":"2024-04-15","value":"24.4","unit":"kg/m2"},{"visit":"C2D1","visitnum":"4.0","dtc":"2024-04-27","value":"25.2","unit":"kg/m2"},{"visit":"C3D1","visitnum":"5.0","dtc":"2024-05-27","value":"26.0","unit":"kg/m2"},{"visit":"C4D1","visitnum":"6.0","dtc":"2024-06-20","value":"26.6","unit":"kg/m2"},{"visit":"C6D1","visitnum":"7.0","dtc":"2024-08-24","value":"27.5","unit":"kg/m2"},{"visit":"EOT","visitnum":"8.0","dtc":"2024-09-22","value":"28.5","unit":"kg/m2"},{"visit":"FOLLOW-UP","visitnum":"9.0","dtc":"2024-10-08","value":"27.5","unit":"kg/m2"}],"DIABP":[{"visit":"SCREENING","visitnum":"1.0","dtc":"2024-02-07","value":"59.2","unit":"mmHg"},{"visit":"C1D1","visitnum":"2.0","dtc":"2024-03-31","value":"60.7","unit":"mmHg"},{"visit":"C1D15","visitnum":"3.0","dtc":"2024-04-15","value":"60.8","unit":"mmHg"},{"visit":"C2D1","visitnum":"4.0","dtc":"2024-04-27","value":"58.1","unit":"mmHg"},{"visit":"C3D1","visitnum":"5.0","dtc":"2024-05-27","value":"58.6","unit":"mmHg"},{"visit":"C4D1","visitnum":"6.0","dtc":"2024-06-20","value":"57.3","unit":"mmHg"},{"visit":"C6D1","visitnum":"7.0","dtc":"2024-08-24","value":"57.3","unit":"mmHg"},{"visit":"EOT","visitnum":"8.0","dtc":"2024-09-22","value":"55.2","unit":"mmHg"},{"visit":"FOLLOW-UP","visitnum":"9.0","dtc":"2024-10-08","value":"58.2","unit":"mmHg"}],"HEIGHT":[{"visit":"SCREENING","visitnum":"1.0","dtc":"2024-02-07","value":"154.9","unit":"cm"},{"visit":"C1D1","visitnum":"2.0","dtc":"2024-03-31","value":"154.5","unit":"cm"},{"visit":"C1D15","visitnum":"3.0","dtc":"2024-04-15","value":"155.1","unit":"cm"},{"visit":"C2D1","visitnum":"4.0","dtc":"2024-04-27","value":"155.5","unit":"cm"},{"visit":"C3D1","visitnum":"5.0","dtc":"2024-05-27","value":"154.9","unit":"cm"},{"visit":"C4D1","visitnum":"6.0","dtc":"2024-06-20","value":"154.7","unit":"cm"},{"visit":"C6D1","visitnum":"7.0","dtc":"2024-08-24","value":"154.6","unit":"cm"},{"visit":"EOT","visitnum":"8.0","dtc":"2024-09-22","value":"154.3","unit":"cm"},{"visit":"FOLLOW-UP","visitnum":"9.0","dtc":"2024-10-08","value":"154.2","unit":"cm"}],"PULSE":[{"visit":"SCREENING","visitnum":"1.0","dtc":"2024-02-07","value":"66.0","unit":"beats/min"},{"visit":"C1D1","visitnum":"2.0","dtc":"2024-03-31","value":"72.4","unit":"beats/min"},{"visit":"C1D15","visitnum":"3.0","dtc":"2024-04-15","value":"75.6","unit":"beats/min"},{"visit":"C2D1","visitnum":"4.0","dtc":"2024-04-27","value":"73.7","unit":"beats/min"},{"visit":"C3D1","visitnum":"5.0","dtc":"2024-05-27","value":"72.8","unit":"beats/min"},{"visit":"C4D1","visitnum":"6.0","dtc":"2024-06-20","value":"69.2","unit":"beats/min"},{"visit":"C6D1","visitnum":"7.0","dtc":"2024-08-24","value":"72.5","unit":"beats/min"},{"visit":"EOT","visitnum":"8.0","dtc":"2024-09-22","value":"74.1","unit":"beats/min"},{"visit":"FOLLOW-UP","visitnum":"9.0","dtc":"2024-10-08","value":"70.5","unit":"beats/min"}],"RESP":[{"visit":"SCREENING","visitnum":"1.0","dtc":"2024-02-07","value":"21.3","unit":"breaths/min"},{"visit":"C1D1","visitnum":"2.0","dtc":"2024-03-31","value":"20.7","unit":"breaths/min"},{"visit":"C1D15","visitnum":"3.0","dtc":"2024-04-15","value":"21.1","unit":"breaths/min"},{"visit":"C2D1","visitnum":"4.0","dtc":"2024-04-27","value":"20.1","unit":"breaths/min"},{"visit":"C3D1","visitnum":"5.0","dtc":"2024-05-27","value":"20.0","unit":"breaths/min"},{"visit":"C4D1","visitnum":"6.0","dtc":"2024-06-20","value":"20.7","unit":"breaths/min"},{"visit":"C6D1","visitnum":"7.0","dtc":"2024-08-24","value":"21.0","unit":"breaths/min"},{"visit":"EOT","visitnum":"8.0","dtc":"2024-09-22","value":"19.6","unit":"breaths/min"},{"visit":"FOLLOW-UP","visitnum":"9.0","dtc":"2024-10-08","value":"19.9","unit":"breaths/min"}],"SYSBP":[{"visit":"SCREENING","visitnum":"1.0","dtc":"2024-02-07","value":"70.0","unit":"mmHg"},{"visit":"C1D1","visitnum":"2.0","dtc":"2024-03-31","value":"70.0","unit":"mmHg"},{"visit":"C1D15","visitnum":"3.0","dtc":"2024-04-15","value":"70.0","unit":"mmHg"},{"visit":"C2D1","visitnum":"4.0","dtc":"2024-04-27","value":"70.0","unit":"mmHg"},{"visit":"C3D1","visitnum":"5.0","dtc":"2024-05-27","value":"70.0","unit":"mmHg"},{"visit":"C4D1","visitnum":"6.0","dtc":"2024-06-20","value":"70.0","unit":"mmHg"},{"visit":"C6D1","visitnum":"7.0","dtc":"2024-08-24","value":"70.0","unit":"mmHg"},{"visit":"EOT","visitnum":"8.0","dtc":"2024-09-22","value":"70.0","unit":"mmHg"},{"visit":"FOLLOW-UP","visitnum":"9.0","dtc":"2024-10-08","value":"70.0","unit":"mmHg"}],"TEMP":[{"visit":"SCREENING","visitnum":"1.0","dtc":"2024-02-07","value":"36.4","unit":"C"},{"visit":"C1D1","visitnum":"2.0","dtc":"2024-03-31","value":"36.4","unit":"C"},{"visit":"C1D15","visitnum":"3.0","dtc":"2024-04-15","value":"36.3","unit":"C"},{"visit":"C2D1","visitnum":"4.0","dtc":"2024-04-27","value":"36.5","unit":"C"},{"visit":"C3D1","visitnum":"5.0","dtc":"2024-05-27","value":"36.3","unit":"C"},{"visit":"C4D1","visitnum":"6.0","dtc":"2024-06-20","value":"36.5","unit":"C"},{"visit":"C6D1","visitnum":"7.0","dtc":"2024-08-24","value":"36.4","unit":"C"},{"visit":"EOT","visitnum":"8.0","dtc":"2024-09-22","value":"36.4","unit":"C"},{"visit":"FOLLOW-UP","visitnum":"9.0","dtc":"2024-10-08","value":"36.4","unit":"C"}],"WEIGHT":[{"visit":"SCREENING","visitnum":"1.0","dtc":"2024-02-07","value":"59.3","unit":"kg"},{"visit":"C1D1","visitnum":"2.0","dtc":"2024-03-31","value":"58.5","unit":"kg"},{"visit":"C1D15","visitnum":"3.0","dtc":"2024-04-15","value":"58.7","unit":"kg"},{"visit":"C2D1","visitnum":"4.0","dtc":"2024-04-27","value":"61.0","unit":"kg"},{"visit":"C3D1","visitnum":"5.0","dtc":"2024-05-27","value":"62.3","unit":"kg"},{"visit":"C4D1","visitnum":"6.0","dtc":"2024-06-20","value":"63.6","unit":"kg"},{"visit":"C6D1","visitnum":"7.0","dtc":"2024-08-24","value":"65.8","unit":"kg"},{"visit":"EOT","visitnum":"8.0","dtc":"2024-09-22","value":"67.9","unit":"kg"},{"visit":"FOLLOW-UP","visitnum":"9.0","dtc":"2024-10-08","value":"65.3","unit":"kg"}]},"results":[{"seq":"1","testcd":"BMI","test":"BMI","cat":null,"orres":"24.7","orresu":"kg/m2","stresc":"24.7","stresn":"24.7","stresu":"kg/m2","stnrlo":null,"stnrhi":null,"nrind":null,"pos":null,"loc":null,"dtc":"2024-02-07","dy":"-53","visit":"SCREENING","visitnum":"1.0","epoch":"SCREENING"},{"seq":"2","testcd":"DIABP","test":"Diastolic Blood Pressure","cat":null,"orres":"59.2","orresu":"mmHg","stresc":"59.2","stresn":"59.2","stresu":"mmHg","stnrlo":null,"stnrhi":null,"nrind":null,"pos":null,"loc":null,"dtc":"2024-02-07","dy":"-53","visit":"SCREENING","visitnum":"1.0","epoch":"SCREENING"},{"seq":"3","testcd":"HEIGHT","test":"Height","cat":null,"orres":"154.9","orresu":"cm","stresc":"154.9","stresn":"154.9","stresu":"cm","stnrlo":null,"stnrhi":null,"nrind":null,"pos":null,"loc":null,"dtc":"2024-02-07","dy":"-53","visit":"SCREENING","visitnum":"1.0","epoch":"SCREENING"},{"seq":"4","testcd":"PULSE","test":"Pulse Rate","cat":null,"orres":"66.0","orresu":"beats/min","stresc":"66.0","stresn":"66.0","stresu":"beats/min","stnrlo":null,"stnrhi":null,"nrind":null,"pos":null,"loc":null,"dtc":"2024-02-07","dy":"-53","visit":"SCREENING","visitnum":"1.0","epoch":"SCREENING"},{"seq":"5","testcd":"RESP","test":"Respiratory Rate","cat":null,"orres":"21.3","orresu":"breaths/min","stresc":"21.3","stresn":"21.3","stresu":"breaths/min","stnrlo":null,"stnrhi":null,"nrind":null,"pos":null,"loc":null,"dtc":"2024-02-07","dy":"-53","visit":"SCREENING","visitnum":"1.0","epoch":"SCREENING"},{"seq":"6","testcd":"SYSBP","test":"Systolic Blood Pressure","cat":null,"orres":"70.0","orresu":"mmHg","stresc":"70.0","stresn":"70.0","stresu":"mmHg","stnrlo":null,"stnrhi":null,"nrind":null,"pos":null,"loc":null,"dtc":"2024-02-07","dy":"-53","visit":"SCREENING","visitnum":"1.0","epoch":"SCREENING"},{"seq":"7","testcd":"TEMP","test":"Temperature","cat":null,"orres":"36.4","orresu":"C","stresc":"36.4","stresn":"36.4","stresu":"C","stnrlo":null,"stnrhi":null,"nrind":null,"pos":null,"loc":null,"dtc":"2024-02-07","dy":"-53","visit":"SCREENING","visitnum":"1.0","epoch":"SCREENING"},{"seq":"8","testcd":"WEIGHT","test":"Weight","cat":null,"orres":"59.3","orresu":"kg","stresc":"59.3","stresn":"59.3","stresu":"kg","stnrlo":null,"stnrhi":null,"nrind":null,"pos":null,"loc":null,"dtc":"2024-02-07","dy":"-53","visit":"SCREENING","visitnum":"1.0","epoch":"SCREENING"},{"seq":"9","testcd":"BMI","test":"BMI","cat":null,"orres":"24.5","orresu":"kg/m2","stresc":"24.5","stresn":"24.5","stresu":"kg/m2","stnrlo":null,"stnrhi":null,"nrind":null,"pos":null,"loc":null,"dtc":"2024-03-31","dy":"1","visit":"C1D1","visitnum":"2.0","epoch":"TREATMENT"},{"seq":"10","testcd":"DIABP","test":"Diastolic Blood Pressure","cat":null,"orres":"60.7","orresu":"mmHg","stresc":"60.7","stresn":"60.7","stresu":"mmHg","stnrlo":null,"stnrhi":null,"nrind":null,"pos":null,"loc":null,"dtc":"2024-03-31","dy":"1","visit":"C1D1","visitnum":"2.0","epoch":"TREATMENT"},{"seq":"11","testcd":"HEIGHT","test":"Height","cat":null,"orres":"154.5","orresu":"cm","stresc":"154.5","stresn":"154.5","stresu":"cm","stnrlo":null,"stnrhi":null,"nrind":null,"pos":null,"loc":null,"dtc":"2024-03-31","dy":"1","visit":"C1D1","visitnum":"2.0","epoch":"TREATMENT"},{"seq":"12","testcd":"PULSE","test":"Pulse Rate","cat":null,"orres":"72.4","orresu":"beats/min","stresc":"72.4","stresn":"72.4","stresu":"beats/min","stnrlo":null,"stnrhi":null,"nrind":null,"pos":null,"loc":null,"dtc":"2024-03-31","dy":"1","visit":"C1D1","visitnum":"2.0","epoch":"TREATMENT"},{"seq":"13","testcd":"RESP","test":"Respiratory Rate","cat":null,"orres":"20.7","orresu":"breaths/min","stresc":"20.7","stresn":"20.7","stresu":"breaths/min","stnrlo":null,"stnrhi":null,"nrind":null,"pos":null,"loc":null,"dtc":"2024-03-31","dy":"1","visit":"C1D1","visitnum":"2.0","epoch":"TREATMENT"},{"seq":"14","testcd":"SYSBP","test":"Systolic Blood Pressure","cat":null,"orres":"70.0","orresu":"mmHg","stresc":"70.0","stresn":"70.0","stresu":"mmHg","stnrlo":null,"stnrhi":null,"nrind":null,"pos":null,"loc":null,"dtc":"2024-03-31","dy":"1","visit":"C1D1","visitnum":"2.0","epoch":"TREATMENT"},{"seq":"15","testcd":"TEMP","test":"Temperature","cat":null,"orres":"36.4","orresu":"C","stresc":"36.4","stresn":"36.4","stresu":"C","stnrlo":null,"stnrhi":null,"nrind":null,"pos":null,"loc":null,"dtc":"2024-03-31","dy":"1","visit":"C1D1","visitnum":"2.0","epoch":"TREATMENT"},{"seq":"16","testcd":"WEIGHT","test":"Weight","cat":null,"orres":"58.5","orresu":"kg","stresc":"58.5","stresn":"58.5","stresu":"kg","stnrlo":null,"stnrhi":null,"nrind":null,"pos":null,"loc":null,"dtc":"2024-03-31","dy":"1","visit":"C1D1","visitnum":"2.0","epoch":"TREATMENT"},{"seq":"17","testcd":"BMI","test":"BMI","cat":null,"orres":"24.4","orresu":"kg/m2","stresc":"24.4","stresn":"24.4","stresu":"kg/m2","stnrlo":null,"stnrhi":null,"nrind":null,"pos":null,"loc":null,"dtc":"2024-04-15","dy":"16","visit":"C1D15","visitnum":"3.0","epoch":"TREATMENT"},{"seq":"18","testcd":"DIABP","test":"Diastolic Blood Pressure","cat":null,"orres":"60.8","orresu":"mmHg","stresc":"60.8","stresn":"60.8","stresu":"mmHg","stnrlo":null,"stnrhi":null,"nrind":null,"pos":null,"loc":null,"dtc":"2024-04-15","dy":"16","visit":"C1D15","visitnum":"3.0","epoch":"TREATMENT"},{"seq":"19","testcd":"HEIGHT","test":"Height","cat":null,"orres":"155.1","orresu":"cm","stresc":"155.1","stresn":"155.1","stresu":"cm","stnrlo":null,"stnrhi":null,"nrind":null,"pos":null,"loc":null,"dtc":"2024-04-15","dy":"16","visit":"C1D15","visitnum":"3.0","epoch":"TREATMENT"},{"seq":"20","testcd":"PULSE","test":"Pulse Rate","cat":null,"orres":"75.6","orresu":"beats/min","stresc":"75.6","stresn":"75.6","stresu":"beats/min","stnrlo":null,"stnrhi":null,"nrind":null,"pos":null,"loc":null,"dtc":"2024-04-15","dy":"16","visit":"C1D15","visitnum":"3.0","epoch":"TREATMENT"},{"seq":"21","testcd":"RESP","test":"Respiratory Rate","cat":null,"orres":"21.1","orresu":"breaths/min","stresc":"21.1","stresn":"21.1","stresu":"breaths/min","stnrlo":null,"stnrhi":null,"nrind":null,"pos":null,"loc":null,"dtc":"2024-04-15","dy":"16","visit":"C1D15","visitnum":"3.0","epoch":"TREATMENT"},{"seq":"22","testcd":"SYSBP","test":"Systolic Blood Pressure","cat":null,"orres":"70.0","orresu":"mmHg","stresc":"70.0","stresn":"70.0","stresu":"mmHg","stnrlo":null,"stnrhi":null,"nrind":null,"pos":null,"loc":null,"dtc":"2024-04-15","dy":"16","visit":"C1D15","visitnum":"3.0","epoch":"TREATMENT"},{"seq":"23","testcd":"TEMP","test":"Temperature","cat":null,"orres":"36.3","orresu":"C","stresc":"36.3","stresn":"36.3","stresu":"C","stnrlo":null,"stnrhi":null,"nrind":null,"pos":null,"loc":null,"dtc":"2024-04-15","dy":"16","visit":"C1D15","visitnum":"3.0","epoch":"TREATMENT"},{"seq":"24","testcd":"WEIGHT","test":"Weight","cat":null,"orres":"58.7","orresu":"kg","stresc":"58.7","stresn":"58.7","stresu":"kg","stnrlo":null,"stnrhi":null,"nrind":null,"pos":null,"loc":null,"dtc":"2024-04-15","dy":"16","visit":"C1D15","visitnum":"3.0","epoch":"TREATMENT"},{"seq":"25","testcd":"BMI","test":"BMI","cat":null,"orres":"25.2","orresu":"kg/m2","stresc":"25.2","stresn":"25.2","stresu":"kg/m2","stnrlo":null,"stnrhi":null,"nrind":null,"pos":null,"loc":null,"dtc":"2024-04-27","dy":"28","visit":"C2D1","visitnum":"4.0","epoch":"TREATMENT"},{"seq":"26","testcd":"DIABP","test":"Diastolic Blood Pressure","cat":null,"orres":"58.1","orresu":"mmHg","stresc":"58.1","stresn":"58.1","stresu":"mmHg","stnrlo":null,"stnrhi":null,"nrind":null,"pos":null,"loc":null,"dtc":"2024-04-27","dy":"28","visit":"C2D1","visitnum":"4.0","epoch":"TREATMENT"},{"seq":"27","testcd":"HEIGHT","test":"Height","cat":null,"orres":"155.5","orresu":"cm","stresc":"155.5","stresn":"155.5","stresu":"cm","stnrlo":null,"stnrhi":null,"nrind":null,"pos":null,"loc":null,"dtc":"2024-04-27","dy":"28","visit":"C2D1","visitnum":"4.0","epoch":"TREATMENT"},{"seq":"28","testcd":"PULSE","test":"Pulse Rate","cat":null,"orres":"73.7","orresu":"beats/min","stresc":"73.7","stresn":"73.7","stresu":"beats/min","stnrlo":null,"stnrhi":null,"nrind":null,"pos":null,"loc":null,"dtc":"2024-04-27","dy":"28","visit":"C2D1","visitnum":"4.0","epoch":"TREATMENT"},{"seq":"29","testcd":"RESP","test":"Respiratory Rate","cat":null,"orres":"20.1","orresu":"breaths/min","stresc":"20.1","stresn":"20.1","stresu":"breaths/min","stnrlo":null,"stnrhi":null,"nrind":null,"pos":null,"loc":null,"dtc":"2024-04-27","dy":"28","visit":"C2D1","visitnum":"4.0","epoch":"TREATMENT"},{"seq":"30","testcd":"SYSBP","test":"Systolic Blood Pressure","cat":null,"orres":"70.0","orresu":"mmHg","stresc":"70.0","stresn":"70.0","stresu":"mmHg","stnrlo":null,"stnrhi":null,"nrind":null,"pos":null,"loc":null,"dtc":"2024-04-27","dy":"28","visit":"C2D1","visitnum":"4.0","epoch":"TREATMENT"},{"seq":"31","testcd":"TEMP","test":"Temperature","cat":null,"orres":"36.5","orresu":"C","stresc":"36.5","stresn":"36.5","stresu":"C","stnrlo":null,"stnrhi":null,"nrind":null,"pos":null,"loc":null,"dtc":"2024-04-27","dy":"28","visit":"C2D1","visitnum":"4.0","epoch":"TREATMENT"},{"seq":"32","testcd":"WEIGHT","test":"Weight","cat":null,"orres":"61.0","orresu":"kg","stresc":"61.0","stresn":"61.0","stresu":"kg","stnrlo":null,"stnrhi":null,"nrind":null,"pos":null,"loc":null,"dtc":"2024-04-27","dy":"28","visit":"C2D1","visitnum":"4.0","epoch":"TREATMENT"},{"seq":"33","testcd":"BMI","test":"BMI","cat":null,"orres":"26.0","orresu":"kg/m2","stresc":"26.0","stresn":"26.0","stresu":"kg/m2","stnrlo":null,"stnrhi":null,"nrind":null,"pos":null,"loc":null,"dtc":"2024-05-27","dy":"58","visit":"C3D1","visitnum":"5.0","epoch":"TREATMENT"},{"seq":"34","testcd":"DIABP","test":"Diastolic Blood Pressure","cat":null,"orres":"58.6","orresu":"mmHg","stresc":"58.6","stresn":"58.6","stresu":"mmHg","stnrlo":null,"stnrhi":null,"nrind":null,"pos":null,"loc":null,"dtc":"2024-05-27","dy":"58","visit":"C3D1","visitnum":"5.0","epoch":"TREATMENT"},{"seq":"35","testcd":"HEIGHT","test":"Height","cat":null,"orres":"154.9","orresu":"cm","stresc":"154.9","stresn":"154.9","stresu":"cm","stnrlo":null,"stnrhi":null,"nrind":null,"pos":null,"loc":null,"dtc":"2024-05-27","dy":"58","visit":"C3D1","visitnum":"5.0","epoch":"TREATMENT"},{"seq":"36","testcd":"PULSE","test":"Pulse Rate","cat":null,"orres":"72.8","orresu":"beats/min","stresc":"72.8","stresn":"72.8","stresu":"beats/min","stnrlo":null,"stnrhi":null,"nrind":null,"pos":null,"loc":null,"dtc":"2024-05-27","dy":"58","visit":"C3D1","visitnum":"5.0","epoch":"TREATMENT"},{"seq":"37","testcd":"RESP","test":"Respiratory Rate","cat":null,"orres":"20.0","orresu":"breaths/min","stresc":"20.0","stresn":"20.0","stresu":"breaths/min","stnrlo":null,"stnrhi":null,"nrind":null,"pos":null,"loc":null,"dtc":"2024-05-27","dy":"58","visit":"C3D1","visitnum":"5.0","epoch":"TREATMENT"},{"seq":"38","testcd":"SYSBP","test":"Systolic Blood Pressure","cat":null,"orres":"70.0","orresu":"mmHg","stresc":"70.0","stresn":"70.0","stresu":"mmHg","stnrlo":null,"stnrhi":null,"nrind":null,"pos":null,"loc":null,"dtc":"2024-05-27","dy":"58","visit":"C3D1","visitnum":"5.0","epoch":"TREATMENT"},{"seq":"39","testcd":"TEMP","test":"Temperature","cat":null,"orres":"36.3","orresu":"C","stresc":"36.3","stresn":"36.3","stresu":"C","stnrlo":null,"stnrhi":null,"nrind":null,"pos":null,"loc":null,"dtc":"2024-05-27","dy":"58","visit":"C3D1","visitnum":"5.0","epoch":"TREATMENT"},{"seq":"40","testcd":"WEIGHT","test":"Weight","cat":null,"orres":"62.3","orresu":"kg","stresc":"62.3","stresn":"62.3","stresu":"kg","stnrlo":null,"stnrhi":null,"nrind":null,"pos":null,"loc":null,"dtc":"2024-05-27","dy":"58","visit":"C3D1","visitnum":"5.0","epoch":"TREATMENT"},{"seq":"41","testcd":"BMI","test":"BMI","cat":null,"orres":"26.6","orresu":"kg/m2","stresc":"26.6","stresn":"26.6","stresu":"kg/m2","stnrlo":null,"stnrhi":null,"nrind":null,"pos":null,"loc":null,"dtc":"2024-06-20","dy":"82","visit":"C4D1","visitnum":"6.0","epoch":"TREATMENT"},{"seq":"42","testcd":"DIABP","test":"Diastolic Blood Pressure","cat":null,"orres":"57.3","orresu":"mmHg","stresc":"57.3","stresn":"57.3","stresu":"mmHg","stnrlo":null,"stnrhi":null,"nrind":null,"pos":null,"loc":null,"dtc":"2024-06-20","dy":"82","visit":"C4D1","visitnum":"6.0","epoch":"TREATMENT"},{"seq":"43","testcd":"HEIGHT","test":"Height","cat":null,"orres":"154.7","orresu":"cm","stresc":"154.7","stresn":"154.7","stresu":"cm","stnrlo":null,"stnrhi":null,"nrind":null,"pos":null,"loc":null,"dtc":"2024-06-20","dy":"82","visit":"C4D1","visitnum":"6.0","epoch":"TREATMENT"},{"seq":"44","testcd":"PULSE","test":"Pulse Rate","cat":null,"orres":"69.2","orresu":"beats/min","stresc":"69.2","stresn":"69.2","stresu":"beats/min","stnrlo":null,"stnrhi":null,"nrind":null,"pos":null,"loc":null,"dtc":"2024-06-20","dy":"82","visit":"C4D1","visitnum":"6.0","epoch":"TREATMENT"},{"seq":"45","testcd":"RESP","test":"Respiratory Rate","cat":null,"orres":"20.7","orresu":"breaths/min","stresc":"20.7","stresn":"20.7","stresu":"breaths/min","stnrlo":null,"stnrhi":null,"nrind":null,"pos":null,"loc":null,"dtc":"2024-06-20","dy":"82","visit":"C4D1","visitnum":"6.0","epoch":"TREATMENT"},{"seq":"46","testcd":"SYSBP","test":"Systolic Blood Pressure","cat":null,"orres":"70.0","orresu":"mmHg","stresc":"70.0","stresn":"70.0","stresu":"mmHg","stnrlo":null,"stnrhi":null,"nrind":null,"pos":null,"loc":null,"dtc":"2024-06-20","dy":"82","visit":"C4D1","visitnum":"6.0","epoch":"TREATMENT"},{"seq":"47","testcd":"TEMP","test":"Temperature","cat":null,"orres":"36.5","orresu":"C","stresc":"36.5","stresn":"36.5","stresu":"C","stnrlo":null,"stnrhi":null,"nrind":null,"pos":null,"loc":null,"dtc":"2024-06-20","dy":"82","visit":"C4D1","visitnum":"6.0","epoch":"TREATMENT"},{"seq":"48","testcd":"WEIGHT","test":"Weight","cat":null,"orres":"63.6","orresu":"kg","stresc":"63.6","stresn":"63.6","stresu":"kg","stnrlo":null,"stnrhi":null,"nrind":null,"pos":null,"loc":null,"dtc":"2024-06-20","dy":"82","visit":"C4D1","visitnum":"6.0","epoch":"TREATMENT"},{"seq":"49","testcd":"BMI","test":"BMI","cat":null,"orres":"27.5","orresu":"kg/m2","stresc":"27.5","stresn":"27.5","stresu":"kg/m2","stnrlo":null,"stnrhi":null,"nrind":null,"pos":null,"loc":null,"dtc":"2024-08-24","dy":"147","visit":"C6D1","visitnum":"7.0","epoch":"TREATMENT"},{"seq":"50","testcd":"DIABP","test":"Diastolic Blood Pressure","cat":null,"orres":"57.3","orresu":"mmHg","stresc":"57.3","stresn":"57.3","stresu":"mmHg","stnrlo":null,"stnrhi":null,"nrind":null,"pos":null,"loc":null,"dtc":"2024-08-24","dy":"147","visit":"C6D1","visitnum":"7.0","epoch":"TREATMENT"},{"seq":"51","testcd":"HEIGHT","test":"Height","cat":null,"orres":"154.6","orresu":"cm","stresc":"154.6","stresn":"154.6","stresu":"cm","stnrlo":null,"stnrhi":null,"nrind":null,"pos":null,"loc":null,"dtc":"2024-08-24","dy":"147","visit":"C6D1","visitnum":"7.0","epoch":"TREATMENT"},{"seq":"52","testcd":"PULSE","test":"Pulse Rate","cat":null,"orres":"72.5","orresu":"beats/min","stresc":"72.5","stresn":"72.5","stresu":"beats/min","stnrlo":null,"stnrhi":null,"nrind":null,"pos":null,"loc":null,"dtc":"2024-08-24","dy":"147","visit":"C6D1","visitnum":"7.0","epoch":"TREATMENT"},{"seq":"53","testcd":"RESP","test":"Respiratory Rate","cat":null,"orres":"21.0","orresu":"breaths/min","stresc":"21.0","stresn":"21.0","stresu":"breaths/min","stnrlo":null,"stnrhi":null,"nrind":null,"pos":null,"loc":null,"dtc":"2024-08-24","dy":"147","visit":"C6D1","visitnum":"7.0","epoch":"TREATMENT"},{"seq":"54","testcd":"SYSBP","test":"Systolic Blood Pressure","cat":null,"orres":"70.0","orresu":"mmHg","stresc":"70.0","stresn":"70.0","stresu":"mmHg","stnrlo":null,"stnrhi":null,"nrind":null,"pos":null,"loc":null,"dtc":"2024-08-24","dy":"147","visit":"C6D1","visitnum":"7.0","epoch":"TREATMENT"},{"seq":"55","testcd":"TEMP","test":"Temperature","cat":null,"orres":"36.4","orresu":"C","stresc":"36.4","stresn":"36.4","stresu":"C","stnrlo":null,"stnrhi":null,"nrind":null,"pos":null,"loc":null,"dtc":"2024-08-24","dy":"147","visit":"C6D1","visitnum":"7.0","epoch":"TREATMENT"},{"seq":"56","testcd":"WEIGHT","test":"Weight","cat":null,"orres":"65.8","orresu":"kg","stresc":"65.8","stresn":"65.8","stresu":"kg","stnrlo":null,"stnrhi":null,"nrind":null,"pos":null,"loc":null,"dtc":"2024-08-24","dy":"147","visit":"C6D1","visitnum":"7.0","epoch":"TREATMENT"},{"seq":"57","testcd":"BMI","test":"BMI","cat":null,"orres":"28.5","orresu":"kg/m2","stresc":"28.5","stresn":"28.5","stresu":"kg/m2","stnrlo":null,"stnrhi":null,"nrind":null,"pos":null,"loc":null,"dtc":"2024-09-22","dy":"176","visit":"EOT","visitnum":"8.0","epoch":"TREATMENT"},{"seq":"58","testcd":"DIABP","test":"Diastolic Blood Pressure","cat":null,"orres":"55.2","orresu":"mmHg","stresc":"55.2","stresn":"55.2","stresu":"mmHg","stnrlo":null,"stnrhi":null,"nrind":null,"pos":null,"loc":null,"dtc":"2024-09-22","dy":"176","visit":"EOT","visitnum":"8.0","epoch":"TREATMENT"},{"seq":"59","testcd":"HEIGHT","test":"Height","cat":null,"orres":"154.3","orresu":"cm","stresc":"154.3","stresn":"154.3","stresu":"cm","stnrlo":null,"stnrhi":null,"nrind":null,"pos":null,"loc":null,"dtc":"2024-09-22","dy":"176","visit":"EOT","visitnum":"8.0","epoch":"TREATMENT"},{"seq":"60","testcd":"PULSE","test":"Pulse Rate","cat":null,"orres":"74.1","orresu":"beats/min","stresc":"74.1","stresn":"74.1","stresu":"beats/min","stnrlo":null,"stnrhi":null,"nrind":null,"pos":null,"loc":null,"dtc":"2024-09-22","dy":"176","visit":"EOT","visitnum":"8.0","epoch":"TREATMENT"},{"seq":"61","testcd":"RESP","test":"Respiratory Rate","cat":null,"orres":"19.6","orresu":"breaths/min","stresc":"19.6","stresn":"19.6","stresu":"breaths/min","stnrlo":null,"stnrhi":null,"nrind":null,"pos":null,"loc":null,"dtc":"2024-09-22","dy":"176","visit":"EOT","visitnum":"8.0","epoch":"TREATMENT"},{"seq":"62","testcd":"SYSBP","test":"Systolic Blood Pressure","cat":null,"orres":"70.0","orresu":"mmHg","stresc":"70.0","stresn":"70.0","stresu":"mmHg","stnrlo":null,"stnrhi":null,"nrind":null,"pos":null,"loc":null,"dtc":"2024-09-22","dy":"176","visit":"EOT","visitnum":"8.0","epoch":"TREATMENT"},{"seq":"63","testcd":"TEMP","test":"Temperature","cat":null,"orres":"36.4","orresu":"C","stresc":"36.4","stresn":"36.4","stresu":"C","stnrlo":null,"stnrhi":null,"nrind":null,"pos":null,"loc":null,"dtc":"2024-09-22","dy":"176","visit":"EOT","visitnum":"8.0","epoch":"TREATMENT"},{"seq":"64","testcd":"WEIGHT","test":"Weight","cat":null,"orres":"67.9","orresu":"kg","stresc":"67.9","stresn":"67.9","stresu":"kg","stnrlo":null,"stnrhi":null,"nrind":null,"pos":null,"loc":null,"dtc":"2024-09-22","dy":"176","visit":"EOT","visitnum":"8.0","epoch":"TREATMENT"},{"seq":"65","testcd":"BMI","test":"BMI","cat":null,"orres":"27.5","orresu":"kg/m2","stresc":"27.5","stresn":"27.5","stresu":"kg/m2","stnrlo":null,"stnrhi":null,"nrind":null,"pos":null,"loc":null,"dtc":"2024-10-08","dy":"192","visit":"FOLLOW-UP","visitnum":"9.0","epoch":"FOLLOW-UP"},{"seq":"66","testcd":"DIABP","test":"Diastolic Blood Pressure","cat":null,"orres":"58.2","orresu":"mmHg","stresc":"58.2","stresn":"58.2","stresu":"mmHg","stnrlo":null,"stnrhi":null,"nrind":null,"pos":null,"loc":null,"dtc":"2024-10-08","dy":"192","visit":"FOLLOW-UP","visitnum":"9.0","epoch":"FOLLOW-UP"},{"seq":"67","testcd":"HEIGHT","test":"Height","cat":null,"orres":"154.2","orresu":"cm","stresc":"154.2","stresn":"154.2","stresu":"cm","stnrlo":null,"stnrhi":null,"nrind":null,"pos":null,"loc":null,"dtc":"2024-10-08","dy":"192","visit":"FOLLOW-UP","visitnum":"9.0","epoch":"FOLLOW-UP"},{"seq":"68","testcd":"PULSE","test":"Pulse Rate","cat":null,"orres":"70.5","orresu":"beats/min","stresc":"70.5","stresn":"70.5","stresu":"beats/min","stnrlo":null,"stnrhi":null,"nrind":null,"pos":null,"loc":null,"dtc":"2024-10-08","dy":"192","visit":"FOLLOW-UP","visitnum":"9.0","epoch":"FOLLOW-UP"},{"seq":"69","testcd":"RESP","test":"Respiratory Rate","cat":null,"orres":"19.9","orresu":"breaths/min","stresc":"19.9","stresn":"19.9","stresu":"breaths/min","stnrlo":null,"stnrhi":null,"nrind":null,"pos":null,"loc":null,"dtc":"2024-10-08","dy":"192","visit":"FOLLOW-UP","visitnum":"9.0","epoch":"FOLLOW-UP"},{"seq":"70","testcd":"SYSBP","test":"Systolic Blood Pressure","cat":null,"orres":"70.0","orresu":"mmHg","stresc":"70.0","stresn":"70.0","stresu":"mmHg","stnrlo":null,"stnrhi":null,"nrind":null,"pos":null,"loc":null,"dtc":"2024-10-08","dy":"192","visit":"FOLLOW-UP","visitnum":"9.0","epoch":"FOLLOW-UP"},{"seq":"71","testcd":"TEMP","test":"Temperature","cat":null,"orres":"36.4","orresu":"C","stresc":"36.4","stresn":"36.4","stresu":"C","stnrlo":null,"stnrhi":null,"nrind":null,"pos":null,"loc":null,"dtc":"2024-10-08","dy":"192","visit":"FOLLOW-UP","visitnum":"9.0","epoch":"FOLLOW-UP"},{"seq":"72","testcd":"WEIGHT","test":"Weight","cat":null,"orres":"65.3","orresu":"kg","stresc":"65.3","stresn":"65.3","stresu":"kg","stnrlo":null,"stnrhi":null,"nrind":null,"pos":null,"loc":null,"dtc":"2024-10-08","dy":"192","visit":"FOLLOW-UP","visitnum":"9.0","epoch":"FOLLOW-UP"}]},"section_10_questionnaires_and_scores":{"questionnaires":[],"findings_about":[{"seq":"1","testcd":"LDIAM","test":"Longest Diameter","cat":"TUMOR ASSESSMENT","orres":"51.4","stresc":"51.4","stresn":"51.4","dtc":"2024-02-27","visit":"SCREENING"},{"seq":"2","testcd":"SAXIS","test":"Short Axis","cat":"TUMOR ASSESSMENT","orres":"11.5","stresc":"11.5","stresn":"11.5","dtc":"2024-02-27","visit":"SCREENING"},{"seq":"3","testcd":"LDIAM","test":"Longest Diameter","cat":"TUMOR ASSESSMENT","orres":"39.1","stresc":"39.1","stresn":"39.1","dtc":"2024-02-27","visit":"SCREENING"},{"seq":"4","testcd":"SAXIS","test":"Short Axis","cat":"TUMOR ASSESSMENT","orres":"8.6","stresc":"8.6","stresn":"8.6","dtc":"2024-02-27","visit":"SCREENING"},{"seq":"5","testcd":"LDIAM","test":"Longest Diameter","cat":"TUMOR ASSESSMENT","orres":"62.2","stresc":"62.2","stresn":"62.2","dtc":"2024-02-27","visit":"SCREENING"},{"seq":"6","testcd":"SAXIS","test":"Short Axis","cat":"TUMOR ASSESSMENT","orres":"3","stresc":"3","stresn":"3.0","dtc":"2024-02-27","visit":"SCREENING"},{"seq":"7","testcd":"LDIAM","test":"Longest Diameter","cat":"TUMOR ASSESSMENT","orres":"21.5","stresc":"21.5","stresn":"21.5","dtc":"2024-02-27","visit":"SCREENING"},{"seq":"8","testcd":"SAXIS","test":"Short Axis","cat":"TUMOR ASSESSMENT","orres":"18.2","stresc":"18.2","stresn":"18.2","dtc":"2024-02-27","visit":"SCREENING"},{"seq":"9","testcd":"LDIAM","test":"Longest Diameter","cat":"TUMOR ASSESSMENT","orres":"67.5","stresc":"67.5","stresn":"67.5","dtc":"2024-02-27","visit":"SCREENING"},{"seq":"10","testcd":"SAXIS","test":"Short Axis","cat":"TUMOR ASSESSMENT","orres":"17.5","stresc":"17.5","stresn":"17.5","dtc":"2024-02-27","visit":"SCREENING"},{"seq":"11","testcd":"LDIAM","test":"Longest Diameter","cat":"TUMOR ASSESSMENT","orres":"52.6","stresc":"52.6","stresn":"52.6","dtc":"2024-03-31","visit":"C1D1"},{"seq":"12","testcd":"SAXIS","test":"Short Axis","cat":"TUMOR ASSESSMENT","orres":"12.3","stresc":"12.3","stresn":"12.3","dtc":"2024-03-31","visit":"C1D1"},{"seq":"13","testcd":"LDIAM","test":"Longest Diameter","cat":"TUMOR ASSESSMENT","orres":"39.5","stresc":"39.5","stresn":"39.5","dtc":"2024-03-31","visit":"C1D1"},{"seq":"14","testcd":"SAXIS","test":"Short Axis","cat":"TUMOR ASSESSMENT","orres":"8.4","stresc":"8.4","stresn":"8.4","dtc":"2024-03-31","visit":"C1D1"},{"seq":"15","testcd":"LDIAM","test":"Longest Diameter","cat":"TUMOR ASSESSMENT","orres":"63.5","stresc":"63.5","stresn":"63.5","dtc":"2024-03-31","visit":"C1D1"},{"seq":"16","testcd":"SAXIS","test":"Short Axis","cat":"TUMOR ASSESSMENT","orres":"3","stresc":"3","stresn":"3.0","dtc":"2024-03-31","visit":"C1D1"},{"seq":"17","testcd":"LDIAM","test":"Longest Diameter","cat":"TUMOR ASSESSMENT","orres":"22.0","stresc":"22.0","stresn":"22.0","dtc":"2024-03-31","visit":"C1D1"},{"seq":"18","testcd":"SAXIS","test":"Short Axis","cat":"TUMOR ASSESSMENT","orres":"18.8","stresc":"18.8","stresn":"18.8","dtc":"2024-03-31","visit":"C1D1"},{"seq":"19","testcd":"LDIAM","test":"Longest Diameter","cat":"TUMOR ASSESSMENT","orres":"63.8","stresc":"63.8","stresn":"63.8","dtc":"2024-03-31","visit":"C1D1"},{"seq":"20","testcd":"SAXIS","test":"Short Axis","cat":"TUMOR ASSESSMENT","orres":"17.0","stresc":"17.0","stresn":"17.0","dtc":"2024-03-31","visit":"C1D1"},{"seq":"21","testcd":"LDIAM","test":"Longest Diameter","cat":"TUMOR ASSESSMENT","orres":"51.4","stresc":"51.4","stresn":"51.4","dtc":"2024-04-14","visit":"C1D15"},{"seq":"22","testcd":"SAXIS","test":"Short Axis","cat":"TUMOR ASSESSMENT","orres":"10.8","stresc":"10.8","stresn":"10.8","dtc":"2024-04-14","visit":"C1D15"},{"seq":"23","testcd":"LDIAM","test":"Longest Diameter","cat":"TUMOR ASSESSMENT","orres":"40.8","stresc":"40.8","stresn":"40.8","dtc":"2024-04-14","visit":"C1D15"},{"seq":"24","testcd":"SAXIS","test":"Short Axis","cat":"TUMOR ASSESSMENT","orres":"8.5","stresc":"8.5","stresn":"8.5","dtc":"2024-04-14","visit":"C1D15"},{"seq":"25","testcd":"LDIAM","test":"Longest Diameter","cat":"TUMOR ASSESSMENT","orres":"64.4","stresc":"64.4","stresn":"64.4","dtc":"2024-04-14","visit":"C1D15"},{"seq":"26","testcd":"SAXIS","test":"Short Axis","cat":"TUMOR ASSESSMENT","orres":"3","stresc":"3","stresn":"3.0","dtc":"2024-04-14","visit":"C1D15"},{"seq":"27","testcd":"LDIAM","test":"Longest Diameter","cat":"TUMOR ASSESSMENT","orres":"20.7","stresc":"20.7","stresn":"20.7","dtc":"2024-04-14","visit":"C1D15"},{"seq":"28","testcd":"SAXIS","test":"Short Axis","cat":"TUMOR ASSESSMENT","orres":"17.6","stresc":"17.6","stresn":"17.6","dtc":"2024-04-14","visit":"C1D15"},{"seq":"29","testcd":"LDIAM","test":"Longest Diameter","cat":"TUMOR ASSESSMENT","orres":"65.4","stresc":"65.4","stresn":"65.4","dtc":"2024-04-14","visit":"C1D15"},{"seq":"30","testcd":"SAXIS","test":"Short Axis","cat":"TUMOR ASSESSMENT","orres":"16.8","stresc":"16.8","stresn":"16.8","dtc":"2024-04-14","visit":"C1D15"},{"seq":"31","testcd":"LDIAM","test":"Longest Diameter","cat":"TUMOR ASSESSMENT","orres":"50.2","stresc":"50.2","stresn":"50.2","dtc":"2024-04-28","visit":"C2D1"},{"seq":"32","testcd":"SAXIS","test":"Short Axis","cat":"TUMOR ASSESSMENT","orres":"11.5","stresc":"11.5","stresn":"11.5","dtc":"2024-04-28","visit":"C2D1"},{"seq":"33","testcd":"LDIAM","test":"Longest Diameter","cat":"TUMOR ASSESSMENT","orres":"39.4","stresc":"39.4","stresn":"39.4","dtc":"2024-04-28","visit":"C2D1"},{"seq":"34","testcd":"SAXIS","test":"Short Axis","cat":"TUMOR ASSESSMENT","orres":"8.6","stresc":"8.6","stresn":"8.6","dtc":"2024-04-28","visit":"C2D1"},{"seq":"35","testcd":"LDIAM","test":"Longest Diameter","cat":"TUMOR ASSESSMENT","orres":"61.6","stresc":"61.6","stresn":"61.6","dtc":"2024-04-28","visit":"C2D1"},{"seq":"36","testcd":"SAXIS","test":"Short Axis","cat":"TUMOR ASSESSMENT","orres":"3","stresc":"3","stresn":"3.0","dtc":"2024-04-28","visit":"C2D1"},{"seq":"37","testcd":"LDIAM","test":"Longest Diameter","cat":"TUMOR ASSESSMENT","orres":"21.3","stresc":"21.3","stresn":"21.3","dtc":"2024-04-28","visit":"C2D1"},{"seq":"38","testcd":"SAXIS","test":"Short Axis","cat":"TUMOR ASSESSMENT","orres":"18.2","stresc":"18.2","stresn":"18.2","dtc":"2024-04-28","visit":"C2D1"},{"seq":"39","testcd":"LDIAM","test":"Longest Diameter","cat":"TUMOR ASSESSMENT","orres":"67.8","stresc":"67.8","stresn":"67.8","dtc":"2024-04-28","visit":"C2D1"},{"seq":"40","testcd":"SAXIS","test":"Short Axis","cat":"TUMOR ASSESSMENT","orres":"16.4","stresc":"16.4","stresn":"16.4","dtc":"2024-04-28","visit":"C2D1"},{"seq":"41","testcd":"LDIAM","test":"Longest Diameter","cat":"TUMOR ASSESSMENT","orres":"49.3","stresc":"49.3","stresn":"49.3","dtc":"2024-05-26","visit":"C3D1"},{"seq":"42","testcd":"SAXIS","test":"Short Axis","cat":"TUMOR ASSESSMENT","orres":"10.6","stresc":"10.6","stresn":"10.6","dtc":"2024-05-26","visit":"C3D1"},{"seq":"43","testcd":"LDIAM","test":"Longest Diameter","cat":"TUMOR ASSESSMENT","orres":"37.5","stresc":"37.5","stresn":"37.5","dtc":"2024-05-26","visit":"C3D1"},{"seq":"44","testcd":"SAXIS","test":"Short Axis","cat":"TUMOR ASSESSMENT","orres":"7.8","stresc":"7.8","stresn":"7.8","dtc":"2024-05-26","visit":"C3D1"},{"seq":"45","testcd":"LDIAM","test":"Longest Diameter","cat":"TUMOR ASSESSMENT","orres":"59.6","stresc":"59.6","stresn":"59.6","dtc":"2024-05-26","visit":"C3D1"},{"seq":"46","testcd":"SAXIS","test":"Short Axis","cat":"TUMOR ASSESSMENT","orres":"3","stresc":"3","stresn":"3.0","dtc":"2024-05-26","visit":"C3D1"},{"seq":"47","testcd":"LDIAM","test":"Longest Diameter","cat":"TUMOR ASSESSMENT","orres":"20.3","stresc":"20.3","stresn":"20.3","dtc":"2024-05-26","visit":"C3D1"},{"seq":"48","testcd":"SAXIS","test":"Short Axis","cat":"TUMOR ASSESSMENT","orres":"17.7","stresc":"17.7","stresn":"17.7","dtc":"2024-05-26","visit":"C3D1"},{"seq":"49","testcd":"LDIAM","test":"Longest Diameter","cat":"TUMOR ASSESSMENT","orres":"65.8","stresc":"65.8","stresn":"65.8","dtc":"2024-05-26","visit":"C3D1"},{"seq":"50","testcd":"SAXIS","test":"Short Axis","cat":"TUMOR ASSESSMENT","orres":"16.8","stresc":"16.8","stresn":"16.8","dtc":"2024-05-26","visit":"C3D1"},{"seq":"51","testcd":"LDIAM","test":"Longest Diameter","cat":"TUMOR ASSESSMENT","orres":"48.6","stresc":"48.6","stresn":"48.6","dtc":"2024-06-23","visit":"C4D1"},{"seq":"52","testcd":"SAXIS","test":"Short Axis","cat":"TUMOR ASSESSMENT","orres":"11.0","stresc":"11.0","stresn":"11.0","dtc":"2024-06-23","visit":"C4D1"},{"seq":"53","testcd":"LDIAM","test":"Longest Diameter","cat":"TUMOR ASSESSMENT","orres":"35.9","stresc":"35.9","stresn":"35.9","dtc":"2024-06-23","visit":"C4D1"},{"seq":"54","testcd":"SAXIS","test":"Short Axis","cat":"TUMOR ASSESSMENT","orres":"7.3","stresc":"7.3","stresn":"7.3","dtc":"2024-06-23","visit":"C4D1"},{"seq":"55","testcd":"LDIAM","test":"Longest Diameter","cat":"TUMOR ASSESSMENT","orres":"57.5","stresc":"57.5","stresn":"57.5","dtc":"2024-06-23","visit":"C4D1"},{"seq":"56","testcd":"SAXIS","test":"Short Axis","cat":"TUMOR ASSESSMENT","orres":"3","stresc":"3","stresn":"3.0","dtc":"2024-06-23","visit":"C4D1"},{"seq":"57","testcd":"LDIAM","test":"Longest Diameter","cat":"TUMOR ASSESSMENT","orres":"19.2","stresc":"19.2","stresn":"19.2","dtc":"2024-06-23","visit":"C4D1"},{"seq":"58","testcd":"SAXIS","test":"Short Axis","cat":"TUMOR ASSESSMENT","orres":"18.2","stresc":"18.2","stresn":"18.2","dtc":"2024-06-23","visit":"C4D1"},{"seq":"59","testcd":"LDIAM","test":"Longest Diameter","cat":"TUMOR ASSESSMENT","orres":"65.4","stresc":"65.4","stresn":"65.4","dtc":"2024-06-23","visit":"C4D1"},{"seq":"60","testcd":"SAXIS","test":"Short Axis","cat":"TUMOR ASSESSMENT","orres":"17.3","stresc":"17.3","stresn":"17.3","dtc":"2024-06-23","visit":"C4D1"},{"seq":"61","testcd":"LDIAM","test":"Longest Diameter","cat":"TUMOR ASSESSMENT","orres":"47.8","stresc":"47.8","stresn":"47.8","dtc":"2024-08-18","visit":"C6D1"},{"seq":"62","testcd":"SAXIS","test":"Short Axis","cat":"TUMOR ASSESSMENT","orres":"10.9","stresc":"10.9","stresn":"10.9","dtc":"2024-08-18","visit":"C6D1"},{"seq":"63","testcd":"LDIAM","test":"Longest Diameter","cat":"TUMOR ASSESSMENT","orres":"35.9","stresc":"35.9","stresn":"35.9","dtc":"2024-08-18","visit":"C6D1"},{"seq":"64","testcd":"SAXIS","test":"Short Axis","cat":"TUMOR ASSESSMENT","orres":"7.8","stresc":"7.8","stresn":"7.8","dtc":"2024-08-18","visit":"C6D1"},{"seq":"65","testcd":"LDIAM","test":"Longest Diameter","cat":"TUMOR ASSESSMENT","orres":"59.1","stresc":"59.1","stresn":"59.1","dtc":"2024-08-18","visit":"C6D1"},{"seq":"66","testcd":"SAXIS","test":"Short Axis","cat":"TUMOR ASSESSMENT","orres":"3.4","stresc":"3.4","stresn":"3.4","dtc":"2024-08-18","visit":"C6D1"},{"seq":"67","testcd":"LDIAM","test":"Longest Diameter","cat":"TUMOR ASSESSMENT","orres":"20.9","stresc":"20.9","stresn":"20.9","dtc":"2024-08-18","visit":"C6D1"},{"seq":"68","testcd":"SAXIS","test":"Short Axis","cat":"TUMOR ASSESSMENT","orres":"17.8","stresc":"17.8","stresn":"17.8","dtc":"2024-08-18","visit":"C6D1"},{"seq":"69","testcd":"LDIAM","test":"Longest Diameter","cat":"TUMOR ASSESSMENT","orres":"63.9","stresc":"63.9","stresn":"63.9","dtc":"2024-08-18","visit":"C6D1"},{"seq":"70","testcd":"SAXIS","test":"Short Axis","cat":"TUMOR ASSESSMENT","orres":"16.7","stresc":"16.7","stresn":"16.7","dtc":"2024-08-18","visit":"C6D1"},{"seq":"71","testcd":"LDIAM","test":"Longest Diameter","cat":"TUMOR ASSESSMENT","orres":"48.6","stresc":"48.6","stresn":"48.6","dtc":"2024-09-15","visit":"EOT"},{"seq":"72","testcd":"SAXIS","test":"Short Axis","cat":"TUMOR ASSESSMENT","orres":"11.2","stresc":"11.2","stresn":"11.2","dtc":"2024-09-15","visit":"EOT"},{"seq":"73","testcd":"LDIAM","test":"Longest Diameter","cat":"TUMOR ASSESSMENT","orres":"37.6","stresc":"37.6","stresn":"37.6","dtc":"2024-09-15","visit":"EOT"},{"seq":"74","testcd":"SAXIS","test":"Short Axis","cat":"TUMOR ASSESSMENT","orres":"7.4","stresc":"7.4","stresn":"7.4","dtc":"2024-09-15","visit":"EOT"},{"seq":"75","testcd":"LDIAM","test":"Longest Diameter","cat":"TUMOR ASSESSMENT","orres":"59.6","stresc":"59.6","stresn":"59.6","dtc":"2024-09-15","visit":"EOT"},{"seq":"76","testcd":"SAXIS","test":"Short Axis","cat":"TUMOR ASSESSMENT","orres":"3","stresc":"3","stresn":"3.0","dtc":"2024-09-15","visit":"EOT"},{"seq":"77","testcd":"LDIAM","test":"Longest Diameter","cat":"TUMOR ASSESSMENT","orres":"22.6","stresc":"22.6","stresn":"22.6","dtc":"2024-09-15","visit":"EOT"},{"seq":"78","testcd":"SAXIS","test":"Short Axis","cat":"TUMOR ASSESSMENT","orres":"16.7","stresc":"16.7","stresn":"16.7","dtc":"2024-09-15","visit":"EOT"},{"seq":"79","testcd":"LDIAM","test":"Longest Diameter","cat":"TUMOR ASSESSMENT","orres":"63.2","stresc":"63.2","stresn":"63.2","dtc":"2024-09-15","visit":"EOT"},{"seq":"80","testcd":"SAXIS","test":"Short Axis","cat":"TUMOR ASSESSMENT","orres":"16.9","stresc":"16.9","stresn":"16.9","dtc":"2024-09-15","visit":"EOT"}]},"section_11_protocol_deviations":{"deviations":[{"seq":"1","term":"Missed TEPOTINIB dose on 2024-04-05","decod":"MISSED DOSE","cat":"MINOR","scat":"DOSING","start_dtc":"2024-04-05","end_dtc":null,"visit":null},{"seq":"2","term":"Visit C2D1 occurred 1 days early (Day 28 vs planned Day 29)","decod":"VISIT OCCURRED OUTSIDE VISIT WINDOW","cat":"MINOR","scat":"VISIT WINDOW","start_dtc":"2024-04-27","end_dtc":null,"visit":null},{"seq":"3","term":"Missed TEPOTINIB dose on 2024-05-20","decod":"MISSED DOSE","cat":"MINOR","scat":"DOSING","start_dtc":"2024-05-20","end_dtc":null,"visit":null},{"seq":"4","term":"Missed TEPOTINIB dose on 2024-05-26","decod":"MISSED DOSE","cat":"MINOR","scat":"DOSING","start_dtc":"2024-05-26","end_dtc":null,"visit":null},{"seq":"5","term":"Visit C3D1 occurred 1 days late (Day 58 vs planned Day 57)","decod":"VISIT OCCURRED OUTSIDE VISIT WINDOW","cat":"MINOR","scat":"VISIT WINDOW","start_dtc":"2024-05-27","end_dtc":null,"visit":null},{"seq":"6","term":"Missed TEPOTINIB dose on 2024-05-31","decod":"MISSED DOSE","cat":"MINOR","scat":"DOSING","start_dtc":"2024-05-31","end_dtc":null,"visit":null},{"seq":"7","term":"Missed TEPOTINIB dose on 2024-06-20","decod":"MISSED DOSE","cat":"MINOR","scat":"DOSING","start_dtc":"2024-06-20","end_dtc":null,"visit":null},{"seq":"8","term":"Missed TEPOTINIB dose on 2024-07-02","decod":"MISSED DOSE","cat":"MINOR","scat":"DOSING","start_dtc":"2024-07-02","end_dtc":null,"visit":null},{"seq":"9","term":"Missed TEPOTINIB dose on 2024-08-03","decod":"MISSED DOSE","cat":"MINOR","scat":"DOSING","start_dtc":"2024-08-03","end_dtc":null,"visit":null},{"seq":"10","term":"Missed TEPOTINIB dose on 2024-08-05","decod":"MISSED DOSE","cat":"MINOR","scat":"DOSING","start_dtc":"2024-08-05","end_dtc":null,"visit":null},{"seq":"11","term":"Visit FOLLOW-UP occurred 7 days early (Day 192 vs planned Day 199)","decod":"VISIT OCCURRED OUTSIDE VISIT WINDOW","cat":"MINOR","scat":"VISIT WINDOW","start_dtc":"2024-10-08","end_dtc":null,"visit":null}],"total":11},"section_12_disposition":{"completion_status":"COMPLETED","disposition_records":[{"seq":"1","term":"INFORMED CONSENT OBTAINED","decod":"INFORMED CONSENT OBTAINED","cat":"PROTOCOL MILESTONE","scat":null,"dtc":"2024-02-27","dy":null,"visit":null,"epoch":"SCREENING"},{"seq":"2","term":"RANDOMIZED","decod":"RANDOMIZED","cat":"PROTOCOL MILESTONE","scat":null,"dtc":"2024-03-31","dy":null,"visit":null,"epoch":"TREATMENT"},{"seq":"3","term":"COMPLETED","decod":"COMPLETED","cat":"DISPOSITION EVENT","scat":null,"dtc":"2024-11-11","dy":null,"visit":null,"epoch":"FOLLOW-UP"}],"death":null},"section_13_hospitalizations":{"items":[],"total":0},"section_14_substance_use":{"items":[{"seq":"1","substance":"ALCOHOL","decod":"ALCOHOL","cat":"ALCOHOL","scat":null,"usage":"Y","dose":"6.0","dosu":"DRINKS/WEEK","freq":"QW","start_dtc":"1996-03-05","end_dtc":null},{"seq":"2","substance":"COFFEE","decod":"COFFEE","cat":"CAFFEINE","scat":null,"usage":"Y","dose":"2.0","dosu":"CUPS/DAY","freq":"QD","start_dtc":"2021-02-27","end_dtc":null},{"seq":"3","substance":"CIGARETTES","decod":"CIGARETTES","cat":"TOBACCO","scat":"CIGARETTES","usage":"Y","dose":"17.0","dosu":"CIGARETTES/DAY","freq":"QD","start_dtc":"2004-03-03","end_dtc":null}],"total":3},"section_15_subject_status":{"items":[{"seq":"1","testcd":"SURVSTAT","test":"Survival Status","orres":"ALIVE","stresc":"ALIVE","dtc":"2024-10-15","visit":"FOLLOW-UP","epoch":"FOLLOW-UP"}],"total":1}}