{"subject_id":"VISION-NSCLC-SITE002-0050","study_id":"VISION-NSCLC","generated_at":"2026-06-09T04:14:11.542532+00:00","sdtmig_version":"3.4","flags":{"has_serious_ae":false,"has_fatal_ae":false,"has_protocol_deviation":false,"n_protocol_deviations":0,"n_adverse_events":0,"n_concomitant_meds":0,"max_ae_severity":null,"screen_failure":false,"discontinued_early":true,"discontinuation_reason":"PROTOCOL VIOLATION","death":false,"exposure_days":1},"timeline":[{"dtc":"2024-02-07","dy":"-23","event":"INFORMED CONSENT OBTAINED","domain":"DS","category":"milestone"},{"dtc":"2024-02-11","dy":"-19","event":"VISIT: SCREENING","domain":"SV","category":"visit"},{"dtc":"2024-03-01","dy":"1","event":"RANDOMIZED","domain":"DS","category":"milestone"},{"dtc":"2024-03-01","dy":"1","event":"FIRST DOSE: TEPOTINIB","domain":"EX","category":"exposure"},{"dtc":"2024-03-01","dy":"1","event":"VISIT: C1D1","domain":"SV","category":"visit"},{"dtc":"2024-03-02","dy":"2","event":"PROTOCOL VIOLATION","domain":"DS","category":"milestone"}],"section_1_demographics":{"usubjid":"VISION-NSCLC-SITE002-0050","subjid":"0050","siteid":"SITE002","age":"26","ageu":"YEARS","sex":"F","race":"WHITE","ethnicity":"NOT HISPANIC OR LATINO","country":"USA","arm":"Tepotinib 500mg QD","armcd":"TEP500","actarm":"Tepotinib 500mg QD","actarmcd":"TEP500","randomization_date":null,"informed_consent_date":"2024-02-07","reference_start_date":"2024-03-01","reference_end_date":"2024-03-02","screen_failure":false,"death_flag":null,"death_date":null,"subject_characteristics":[{"testcd":"ALCUSE","test":"Alcohol Use","orres":"NON-DRINKER","stresc":"NON-DRINKER","visit":null,"dtc":"2024-02-07"},{"testcd":"BMI","test":"Body Mass Index","orres":"20.5","stresc":"20.5","visit":null,"dtc":"2024-02-07"},{"testcd":"DURDIS","test":"Duration of Disease","orres":"109 months","stresc":"109","visit":null,"dtc":"2024-02-07"},{"testcd":"TOBPKYR","test":"Tobacco Pack-Years","orres":"10","stresc":"10","visit":null,"dtc":"2024-02-07"},{"testcd":"TOBUSE","test":"Tobacco Use","orres":"CURRENT SMOKER","stresc":"CURRENT SMOKER","visit":null,"dtc":"2024-02-07"}]},"section_2_medical_history":{"items":[{"seq":"1","term":"ASTHMA","decod":"ASTHMA","cat":"RESPIRATORY","scat":null,"presp":null,"occur":null,"status":null,"onset_dtc":"2021-02-07","end_dtc":null,"visit":null},{"seq":"2","term":"DEPRESSION","decod":"DEPRESSION","cat":"PSYCHIATRIC","scat":null,"presp":null,"occur":null,"status":null,"onset_dtc":"2016-02-09","end_dtc":"2016-03-08","visit":null},{"seq":"3","term":"HYPERLIPIDEMIA","decod":"HYPERLIPIDEMIA","cat":"METABOLIC","scat":null,"presp":null,"occur":null,"status":null,"onset_dtc":"2015-02-09","end_dtc":"2021-05-04","visit":null}]},"section_3_inclusion_exclusion":{"criteria":[]},"section_4_trial_participation":{"visits":[{"visitnum":"1.0","visit":"SCREENING","start_dtc":"2024-02-11","end_dtc":"2024-02-11","updes":null},{"visitnum":"2.0","visit":"C1D1","start_dtc":"2024-03-01","end_dtc":"2024-03-01","updes":null}],"epochs":[{"seq":"1","etcd":"SCRN","element":"Screening","start_dtc":"2024-02-02","end_dtc":"2024-03-01","updes":null},{"seq":"2","etcd":"TRT","element":"Treatment","start_dtc":"2024-03-01","end_dtc":"2024-03-02","updes":null}],"visit_count":2},"section_5_concomitant_medications":{"medications":[]},"section_6_exposure":{"exposure_as_administered":[{"seq":"1","trt":"TEPOTINIB","dose":"500.0","doseu":null,"dosef":"QD","route":"ORAL","lot":null,"start_dtc":"2024-03-01","end_dtc":"2024-03-02","start_dy":"1","end_dy":"2","epoch":"TREATMENT","visit":null}],"exposure_as_collected":[{"seq":"1","trt":"TEPOTINIB","dose":"500.0","doseu":null,"dosef":"QD","route":"ORAL","start_dtc":"2024-03-01","end_dtc":"2024-03-01","visit":"C1D1"},{"seq":"2","trt":"TEPOTINIB","dose":"500.0","doseu":null,"dosef":"QD","route":"ORAL","start_dtc":"2024-03-02","end_dtc":"2024-03-02","visit":"C1D1"}]},"section_7_adverse_events":{"summary":{"total_aes":0,"serious_aes":0,"fatal_aes":0,"by_severity":{},"by_soc":{}},"events":[]},"section_8_laboratory_results":{"summary":{"total_records":14,"abnormal_count":0,"abnormal_pct":0.0},"shift_summary":[{"testcd":"ALT","baseline_value":13.97,"baseline_nrind":"NORMAL","worst_post_baseline_value":12.65,"worst_post_baseline_nrind":"NORMAL","worst_visit":"C1D1"},{"testcd":"AST","baseline_value":26.35,"baseline_nrind":"NORMAL","worst_post_baseline_value":28.94,"worst_post_baseline_nrind":"NORMAL","worst_visit":"C1D1"},{"testcd":"CREAT","baseline_value":60.33,"baseline_nrind":"NORMAL","worst_post_baseline_value":60.6,"worst_post_baseline_nrind":"NORMAL","worst_visit":"C1D1"},{"testcd":"GLUC","baseline_value":5.34,"baseline_nrind":"NORMAL","worst_post_baseline_value":5.33,"worst_post_baseline_nrind":"NORMAL","worst_visit":"C1D1"},{"testcd":"HGB","baseline_value":125.38,"baseline_nrind":"NORMAL","worst_post_baseline_value":125.31,"worst_post_baseline_nrind":"NORMAL","worst_visit":"C1D1"},{"testcd":"PLAT","baseline_value":167.19,"baseline_nrind":"NORMAL","worst_post_baseline_value":151.58,"worst_post_baseline_nrind":"NORMAL","worst_visit":"C1D1"},{"testcd":"WBC","baseline_value":4.78,"baseline_nrind":"NORMAL","worst_post_baseline_value":4.53,"worst_post_baseline_nrind":"NORMAL","worst_visit":"C1D1"}],"results":[{"seq":"1","testcd":"ALT","test":"Alanine Aminotransferase","cat":"CHEMISTRY","orres":"13.97","orresu":"U/L","stresc":"13.97","stresn":"13.97","stresu":"U/L","stnrlo":"7","stnrhi":"56","nrind":"NORMAL","fast":null,"dtc":"2024-02-11","dy":"-19","visit":"SCREENING","visitnum":"1.0","epoch":"SCREENING","spec":null,"method":null},{"seq":"2","testcd":"AST","test":"Aspartate Aminotransferase","cat":"CHEMISTRY","orres":"26.35","orresu":"U/L","stresc":"26.35","stresn":"26.35","stresu":"U/L","stnrlo":"10","stnrhi":"40","nrind":"NORMAL","fast":null,"dtc":"2024-02-11","dy":"-19","visit":"SCREENING","visitnum":"1.0","epoch":"SCREENING","spec":null,"method":null},{"seq":"3","testcd":"CREAT","test":"Creatinine","cat":"CHEMISTRY","orres":"60.33","orresu":"umol/L","stresc":"60.33","stresn":"60.33","stresu":"umol/L","stnrlo":"44","stnrhi":"80","nrind":"NORMAL","fast":null,"dtc":"2024-02-11","dy":"-19","visit":"SCREENING","visitnum":"1.0","epoch":"SCREENING","spec":null,"method":null},{"seq":"4","testcd":"GLUC","test":"Glucose","cat":"CHEMISTRY","orres":"5.34","orresu":"mmol/L","stresc":"5.34","stresn":"5.34","stresu":"mmol/L","stnrlo":"3.9","stnrhi":"5.6","nrind":"NORMAL","fast":null,"dtc":"2024-02-11","dy":"-19","visit":"SCREENING","visitnum":"1.0","epoch":"SCREENING","spec":null,"method":null},{"seq":"5","testcd":"HGB","test":"Hemoglobin","cat":"HEMATOLOGY","orres":"125.38","orresu":"g/L","stresc":"125.38","stresn":"125.38","stresu":"g/L","stnrlo":"120","stnrhi":"155","nrind":"NORMAL","fast":null,"dtc":"2024-02-11","dy":"-19","visit":"SCREENING","visitnum":"1.0","epoch":"SCREENING","spec":null,"method":null},{"seq":"6","testcd":"PLAT","test":"Platelets","cat":"HEMATOLOGY","orres":"167.19","orresu":"10^9/L","stresc":"167.19","stresn":"167.19","stresu":"10^9/L","stnrlo":"150","stnrhi":"400","nrind":"NORMAL","fast":null,"dtc":"2024-02-11","dy":"-19","visit":"SCREENING","visitnum":"1.0","epoch":"SCREENING","spec":null,"method":null},{"seq":"7","testcd":"WBC","test":"Leukocytes","cat":"HEMATOLOGY","orres":"4.78","orresu":"10^9/L","stresc":"4.78","stresn":"4.78","stresu":"10^9/L","stnrlo":"4.0","stnrhi":"11.0","nrind":"NORMAL","fast":null,"dtc":"2024-02-11","dy":"-19","visit":"SCREENING","visitnum":"1.0","epoch":"SCREENING","spec":null,"method":null},{"seq":"8","testcd":"ALT","test":"Alanine Aminotransferase","cat":"CHEMISTRY","orres":"12.65","orresu":"U/L","stresc":"12.65","stresn":"12.65","stresu":"U/L","stnrlo":"7","stnrhi":"56","nrind":"NORMAL","fast":null,"dtc":"2024-03-01","dy":"1","visit":"C1D1","visitnum":"2.0","epoch":"TREATMENT","spec":null,"method":null},{"seq":"9","testcd":"AST","test":"Aspartate Aminotransferase","cat":"CHEMISTRY","orres":"28.94","orresu":"U/L","stresc":"28.94","stresn":"28.94","stresu":"U/L","stnrlo":"10","stnrhi":"40","nrind":"NORMAL","fast":null,"dtc":"2024-03-01","dy":"1","visit":"C1D1","visitnum":"2.0","epoch":"TREATMENT","spec":null,"method":null},{"seq":"10","testcd":"CREAT","test":"Creatinine","cat":"CHEMISTRY","orres":"60.6","orresu":"umol/L","stresc":"60.6","stresn":"60.6","stresu":"umol/L","stnrlo":"44","stnrhi":"80","nrind":"NORMAL","fast":null,"dtc":"2024-03-01","dy":"1","visit":"C1D1","visitnum":"2.0","epoch":"TREATMENT","spec":null,"method":null},{"seq":"11","testcd":"GLUC","test":"Glucose","cat":"CHEMISTRY","orres":"5.33","orresu":"mmol/L","stresc":"5.33","stresn":"5.33","stresu":"mmol/L","stnrlo":"3.9","stnrhi":"5.6","nrind":"NORMAL","fast":null,"dtc":"2024-03-01","dy":"1","visit":"C1D1","visitnum":"2.0","epoch":"TREATMENT","spec":null,"method":null},{"seq":"12","testcd":"HGB","test":"Hemoglobin","cat":"HEMATOLOGY","orres":"125.31","orresu":"g/L","stresc":"125.31","stresn":"125.31","stresu":"g/L","stnrlo":"120","stnrhi":"155","nrind":"NORMAL","fast":null,"dtc":"2024-03-01","dy":"1","visit":"C1D1","visitnum":"2.0","epoch":"TREATMENT","spec":null,"method":null},{"seq":"13","testcd":"PLAT","test":"Platelets","cat":"HEMATOLOGY","orres":"151.58","orresu":"10^9/L","stresc":"151.58","stresn":"151.58","stresu":"10^9/L","stnrlo":"150","stnrhi":"400","nrind":"NORMAL","fast":null,"dtc":"2024-03-01","dy":"1","visit":"C1D1","visitnum":"2.0","epoch":"TREATMENT","spec":null,"method":null},{"seq":"14","testcd":"WBC","test":"Leukocytes","cat":"HEMATOLOGY","orres":"4.53","orresu":"10^9/L","stresc":"4.53","stresn":"4.53","stresu":"10^9/L","stnrlo":"4.0","stnrhi":"11.0","nrind":"NORMAL","fast":null,"dtc":"2024-03-01","dy":"1","visit":"C1D1","visitnum":"2.0","epoch":"TREATMENT","spec":null,"method":null}]},"section_9_vital_signs":{"summary":{"total_records":16},"trends":{"BMI":[{"visit":"SCREENING","visitnum":"1.0","dtc":"2024-02-11","value":"20.5","unit":"kg/m2"},{"visit":"C1D1","visitnum":"2.0","dtc":"2024-03-01","value":"19.8","unit":"kg/m2"}],"DIABP":[{"visit":"SCREENING","visitnum":"1.0","dtc":"2024-02-11","value":"78.7","unit":"mmHg"},{"visit":"C1D1","visitnum":"2.0","dtc":"2024-03-01","value":"79.5","unit":"mmHg"}],"HEIGHT":[{"visit":"SCREENING","visitnum":"1.0","dtc":"2024-02-11","value":"171.4","unit":"cm"},{"visit":"C1D1","visitnum":"2.0","dtc":"2024-03-01","value":"172.0","unit":"cm"}],"PULSE":[{"visit":"SCREENING","visitnum":"1.0","dtc":"2024-02-11","value":"94.5","unit":"beats/min"},{"visit":"C1D1","visitnum":"2.0","dtc":"2024-03-01","value":"86.2","unit":"beats/min"}],"RESP":[{"visit":"SCREENING","visitnum":"1.0","dtc":"2024-02-11","value":"20.4","unit":"breaths/min"},{"visit":"C1D1","visitnum":"2.0","dtc":"2024-03-01","value":"18.8","unit":"breaths/min"}],"SYSBP":[{"visit":"SCREENING","visitnum":"1.0","dtc":"2024-02-11","value":"91.7","unit":"mmHg"},{"visit":"C1D1","visitnum":"2.0","dtc":"2024-03-01","value":"93.9","unit":"mmHg"}],"TEMP":[{"visit":"SCREENING","visitnum":"1.0","dtc":"2024-02-11","value":"35.8","unit":"C"},{"visit":"C1D1","visitnum":"2.0","dtc":"2024-03-01","value":"35.7","unit":"C"}],"WEIGHT":[{"visit":"SCREENING","visitnum":"1.0","dtc":"2024-02-11","value":"60.1","unit":"kg"},{"visit":"C1D1","visitnum":"2.0","dtc":"2024-03-01","value":"58.5","unit":"kg"}]},"results":[{"seq":"1","testcd":"BMI","test":"BMI","cat":null,"orres":"20.5","orresu":"kg/m2","stresc":"20.5","stresn":"20.5","stresu":"kg/m2","stnrlo":null,"stnrhi":null,"nrind":null,"pos":null,"loc":null,"dtc":"2024-02-11","dy":"-19","visit":"SCREENING","visitnum":"1.0","epoch":"SCREENING"},{"seq":"2","testcd":"DIABP","test":"Diastolic Blood Pressure","cat":null,"orres":"78.7","orresu":"mmHg","stresc":"78.7","stresn":"78.7","stresu":"mmHg","stnrlo":null,"stnrhi":null,"nrind":null,"pos":null,"loc":null,"dtc":"2024-02-11","dy":"-19","visit":"SCREENING","visitnum":"1.0","epoch":"SCREENING"},{"seq":"3","testcd":"HEIGHT","test":"Height","cat":null,"orres":"171.4","orresu":"cm","stresc":"171.4","stresn":"171.4","stresu":"cm","stnrlo":null,"stnrhi":null,"nrind":null,"pos":null,"loc":null,"dtc":"2024-02-11","dy":"-19","visit":"SCREENING","visitnum":"1.0","epoch":"SCREENING"},{"seq":"4","testcd":"PULSE","test":"Pulse Rate","cat":null,"orres":"94.5","orresu":"beats/min","stresc":"94.5","stresn":"94.5","stresu":"beats/min","stnrlo":null,"stnrhi":null,"nrind":null,"pos":null,"loc":null,"dtc":"2024-02-11","dy":"-19","visit":"SCREENING","visitnum":"1.0","epoch":"SCREENING"},{"seq":"5","testcd":"RESP","test":"Respiratory Rate","cat":null,"orres":"20.4","orresu":"breaths/min","stresc":"20.4","stresn":"20.4","stresu":"breaths/min","stnrlo":null,"stnrhi":null,"nrind":null,"pos":null,"loc":null,"dtc":"2024-02-11","dy":"-19","visit":"SCREENING","visitnum":"1.0","epoch":"SCREENING"},{"seq":"6","testcd":"SYSBP","test":"Systolic Blood Pressure","cat":null,"orres":"91.7","orresu":"mmHg","stresc":"91.7","stresn":"91.7","stresu":"mmHg","stnrlo":null,"stnrhi":null,"nrind":null,"pos":null,"loc":null,"dtc":"2024-02-11","dy":"-19","visit":"SCREENING","visitnum":"1.0","epoch":"SCREENING"},{"seq":"7","testcd":"TEMP","test":"Temperature","cat":null,"orres":"35.8","orresu":"C","stresc":"35.8","stresn":"35.8","stresu":"C","stnrlo":null,"stnrhi":null,"nrind":null,"pos":null,"loc":null,"dtc":"2024-02-11","dy":"-19","visit":"SCREENING","visitnum":"1.0","epoch":"SCREENING"},{"seq":"8","testcd":"WEIGHT","test":"Weight","cat":null,"orres":"60.1","orresu":"kg","stresc":"60.1","stresn":"60.1","stresu":"kg","stnrlo":null,"stnrhi":null,"nrind":null,"pos":null,"loc":null,"dtc":"2024-02-11","dy":"-19","visit":"SCREENING","visitnum":"1.0","epoch":"SCREENING"},{"seq":"9","testcd":"BMI","test":"BMI","cat":null,"orres":"19.8","orresu":"kg/m2","stresc":"19.8","stresn":"19.8","stresu":"kg/m2","stnrlo":null,"stnrhi":null,"nrind":null,"pos":null,"loc":null,"dtc":"2024-03-01","dy":"1","visit":"C1D1","visitnum":"2.0","epoch":"TREATMENT"},{"seq":"10","testcd":"DIABP","test":"Diastolic Blood Pressure","cat":null,"orres":"79.5","orresu":"mmHg","stresc":"79.5","stresn":"79.5","stresu":"mmHg","stnrlo":null,"stnrhi":null,"nrind":null,"pos":null,"loc":null,"dtc":"2024-03-01","dy":"1","visit":"C1D1","visitnum":"2.0","epoch":"TREATMENT"},{"seq":"11","testcd":"HEIGHT","test":"Height","cat":null,"orres":"172.0","orresu":"cm","stresc":"172.0","stresn":"172.0","stresu":"cm","stnrlo":null,"stnrhi":null,"nrind":null,"pos":null,"loc":null,"dtc":"2024-03-01","dy":"1","visit":"C1D1","visitnum":"2.0","epoch":"TREATMENT"},{"seq":"12","testcd":"PULSE","test":"Pulse Rate","cat":null,"orres":"86.2","orresu":"beats/min","stresc":"86.2","stresn":"86.2","stresu":"beats/min","stnrlo":null,"stnrhi":null,"nrind":null,"pos":null,"loc":null,"dtc":"2024-03-01","dy":"1","visit":"C1D1","visitnum":"2.0","epoch":"TREATMENT"},{"seq":"13","testcd":"RESP","test":"Respiratory Rate","cat":null,"orres":"18.8","orresu":"breaths/min","stresc":"18.8","stresn":"18.8","stresu":"breaths/min","stnrlo":null,"stnrhi":null,"nrind":null,"pos":null,"loc":null,"dtc":"2024-03-01","dy":"1","visit":"C1D1","visitnum":"2.0","epoch":"TREATMENT"},{"seq":"14","testcd":"SYSBP","test":"Systolic Blood Pressure","cat":null,"orres":"93.9","orresu":"mmHg","stresc":"93.9","stresn":"93.9","stresu":"mmHg","stnrlo":null,"stnrhi":null,"nrind":null,"pos":null,"loc":null,"dtc":"2024-03-01","dy":"1","visit":"C1D1","visitnum":"2.0","epoch":"TREATMENT"},{"seq":"15","testcd":"TEMP","test":"Temperature","cat":null,"orres":"35.7","orresu":"C","stresc":"35.7","stresn":"35.7","stresu":"C","stnrlo":null,"stnrhi":null,"nrind":null,"pos":null,"loc":null,"dtc":"2024-03-01","dy":"1","visit":"C1D1","visitnum":"2.0","epoch":"TREATMENT"},{"seq":"16","testcd":"WEIGHT","test":"Weight","cat":null,"orres":"58.5","orresu":"kg","stresc":"58.5","stresn":"58.5","stresu":"kg","stnrlo":null,"stnrhi":null,"nrind":null,"pos":null,"loc":null,"dtc":"2024-03-01","dy":"1","visit":"C1D1","visitnum":"2.0","epoch":"TREATMENT"}]},"section_10_questionnaires_and_scores":{"questionnaires":[],"findings_about":[{"seq":"1","testcd":"LDIAM","test":"Longest Diameter","cat":"TUMOR ASSESSMENT","orres":"37.1","stresc":"37.1","stresn":"37.1","dtc":"2024-02-07","visit":"SCREENING"},{"seq":"2","testcd":"SAXIS","test":"Short Axis","cat":"TUMOR ASSESSMENT","orres":"21.5","stresc":"21.5","stresn":"21.5","dtc":"2024-02-07","visit":"SCREENING"},{"seq":"3","testcd":"LDIAM","test":"Longest Diameter","cat":"TUMOR ASSESSMENT","orres":"35.4","stresc":"35.4","stresn":"35.4","dtc":"2024-02-07","visit":"SCREENING"},{"seq":"4","testcd":"SAXIS","test":"Short Axis","cat":"TUMOR ASSESSMENT","orres":"10.1","stresc":"10.1","stresn":"10.1","dtc":"2024-02-07","visit":"SCREENING"},{"seq":"5","testcd":"LDIAM","test":"Longest Diameter","cat":"TUMOR ASSESSMENT","orres":"41.7","stresc":"41.7","stresn":"41.7","dtc":"2024-02-07","visit":"SCREENING"},{"seq":"6","testcd":"SAXIS","test":"Short Axis","cat":"TUMOR ASSESSMENT","orres":"11.1","stresc":"11.1","stresn":"11.1","dtc":"2024-02-07","visit":"SCREENING"},{"seq":"7","testcd":"LDIAM","test":"Longest Diameter","cat":"TUMOR ASSESSMENT","orres":"34.4","stresc":"34.4","stresn":"34.4","dtc":"2024-02-07","visit":"SCREENING"},{"seq":"8","testcd":"SAXIS","test":"Short Axis","cat":"TUMOR ASSESSMENT","orres":"15.9","stresc":"15.9","stresn":"15.9","dtc":"2024-02-07","visit":"SCREENING"},{"seq":"9","testcd":"LDIAM","test":"Longest Diameter","cat":"TUMOR ASSESSMENT","orres":"45.0","stresc":"45.0","stresn":"45.0","dtc":"2024-03-01","visit":"C1D1"},{"seq":"10","testcd":"SAXIS","test":"Short Axis","cat":"TUMOR ASSESSMENT","orres":"26.2","stresc":"26.2","stresn":"26.2","dtc":"2024-03-01","visit":"C1D1"},{"seq":"11","testcd":"LDIAM","test":"Longest Diameter","cat":"TUMOR ASSESSMENT","orres":"41.8","stresc":"41.8","stresn":"41.8","dtc":"2024-03-01","visit":"C1D1"},{"seq":"12","testcd":"SAXIS","test":"Short Axis","cat":"TUMOR ASSESSMENT","orres":"12.5","stresc":"12.5","stresn":"12.5","dtc":"2024-03-01","visit":"C1D1"},{"seq":"13","testcd":"LDIAM","test":"Longest Diameter","cat":"TUMOR ASSESSMENT","orres":"52.3","stresc":"52.3","stresn":"52.3","dtc":"2024-03-01","visit":"C1D1"},{"seq":"14","testcd":"SAXIS","test":"Short Axis","cat":"TUMOR ASSESSMENT","orres":"12.1","stresc":"12.1","stresn":"12.1","dtc":"2024-03-01","visit":"C1D1"},{"seq":"15","testcd":"LDIAM","test":"Longest Diameter","cat":"TUMOR ASSESSMENT","orres":"40.6","stresc":"40.6","stresn":"40.6","dtc":"2024-03-01","visit":"C1D1"},{"seq":"16","testcd":"SAXIS","test":"Short Axis","cat":"TUMOR ASSESSMENT","orres":"18.5","stresc":"18.5","stresn":"18.5","dtc":"2024-03-01","visit":"C1D1"}]},"section_11_protocol_deviations":{"deviations":[],"total":0},"section_12_disposition":{"completion_status":"INFORMED CONSENT OBTAINED","disposition_records":[{"seq":"1","term":"INFORMED CONSENT OBTAINED","decod":"INFORMED CONSENT OBTAINED","cat":"PROTOCOL MILESTONE","scat":null,"dtc":"2024-02-07","dy":null,"visit":null,"epoch":"SCREENING"},{"seq":"2","term":"RANDOMIZED","decod":"RANDOMIZED","cat":"PROTOCOL MILESTONE","scat":null,"dtc":"2024-03-01","dy":null,"visit":null,"epoch":"TREATMENT"},{"seq":"3","term":"PROTOCOL VIOLATION","decod":"PROTOCOL VIOLATION","cat":"DISPOSITION EVENT","scat":null,"dtc":"2024-03-02","dy":null,"visit":null,"epoch":"TREATMENT"}],"death":null},"section_13_hospitalizations":{"items":[],"total":0},"section_14_substance_use":{"items":[{"seq":"1","substance":"ALCOHOL","decod":"ALCOHOL","cat":"ALCOHOL","scat":null,"usage":"N","dose":null,"dosu":null,"freq":null,"start_dtc":null,"end_dtc":null},{"seq":"2","substance":"COFFEE","decod":"COFFEE","cat":"CAFFEINE","scat":null,"usage":"Y","dose":"5.0","dosu":"CUPS/DAY","freq":"QD","start_dtc":"2023-02-07","end_dtc":null},{"seq":"3","substance":"CIGARETTES","decod":"CIGARETTES","cat":"TOBACCO","scat":"CIGARETTES","usage":"Y","dose":"14.0","dosu":"CIGARETTES/DAY","freq":"QD","start_dtc":"1997-02-13","end_dtc":null}],"total":3},"section_15_subject_status":{"items":[],"total":0}}