{"subject_id":"TERPSIS-MDD-201-SITE002-0026","study_id":"TERPSIS-MDD-201","generated_at":"2026-06-16T11:15:09.485266+00:00","sdtmig_version":"3.4","flags":{"has_serious_ae":false,"has_fatal_ae":false,"has_protocol_deviation":true,"n_protocol_deviations":2,"n_adverse_events":0,"n_concomitant_meds":0,"max_ae_severity":null,"screen_failure":false,"discontinued_early":false,"discontinuation_reason":null,"death":false,"exposure_days":76},"timeline":[{"dtc":"2024-01-16","dy":"-52","event":"VISIT: SCREENING","domain":"SV","category":"visit"},{"dtc":"2024-02-27","dy":"-10","event":"INFORMED CONSENT OBTAINED","domain":"DS","category":"milestone"},{"dtc":"2024-03-08","dy":"1","event":"RANDOMIZED","domain":"DS","category":"milestone"},{"dtc":"2024-03-08","dy":"1","event":"FIRST DOSE: PSILOCYBIN","domain":"EX","category":"exposure"},{"dtc":"2024-03-08","dy":"1","event":"VISIT: DOSING DAY","domain":"SV","category":"visit"},{"dtc":"2024-03-09","dy":"2","event":"VISIT: DAY 2","domain":"SV","category":"visit"},{"dtc":"2024-03-16","dy":"9","event":"VISIT: WEEK 1","domain":"SV","category":"visit"},{"dtc":"2024-03-26","dy":"19","event":"VISIT: WEEK 3","domain":"SV","category":"visit"},{"dtc":"2024-03-31","dy":"24","event":"DEVIATION: MISSED DOSE","domain":"DV","category":"deviation"},{"dtc":"2024-04-20","dy":"44","event":"VISIT: WEEK 6","domain":"SV","category":"visit"},{"dtc":"2024-05-05","dy":"59","event":"DEVIATION: MISSED DOSE","domain":"DV","category":"deviation"},{"dtc":"2024-06-04","dy":"89","event":"VISIT: WEEK 12","domain":"SV","category":"visit"},{"dtc":"2024-06-29","dy":"114","event":"COMPLETED","domain":"DS","category":"milestone"}],"section_1_demographics":{"usubjid":"TERPSIS-MDD-201-SITE002-0026","subjid":"0026","siteid":"SITE002","age":"49","ageu":"YEARS","sex":"F","race":"WHITE","ethnicity":"NOT HISPANIC OR LATINO","country":"USA","arm":"Psilocybin 25mg","armcd":"PSI25","actarm":"Psilocybin 25mg","actarmcd":"PSI25","randomization_date":null,"informed_consent_date":"2024-02-27","reference_start_date":"2024-03-08","reference_end_date":"2024-06-29","screen_failure":false,"death_flag":null,"death_date":null,"subject_characteristics":[{"testcd":"ALCUSE","test":"Alcohol Use","orres":"CURRENT DRINKER","stresc":"CURRENT DRINKER","visit":null,"dtc":"2024-02-27"},{"testcd":"BMI","test":"Body Mass Index","orres":"36.3","stresc":"36.3","visit":null,"dtc":"2024-02-27"},{"testcd":"DURDIS","test":"Duration of Disease","orres":"109 months","stresc":"109","visit":null,"dtc":"2024-02-27"},{"testcd":"TOBUSE","test":"Tobacco Use","orres":"NEVER SMOKED","stresc":"NEVER SMOKED","visit":null,"dtc":"2024-02-27"}]},"section_2_medical_history":{"items":[{"seq":"1","term":"GASTROESOPHAGEAL REFLUX DISEASE","decod":"GASTROESOPHAGEAL REFLUX DISEASE","cat":"GASTROINTESTINAL","scat":null,"presp":null,"occur":null,"status":null,"onset_dtc":"2015-03-01","end_dtc":"2019-08-19","visit":null}]},"section_3_inclusion_exclusion":{"criteria":[]},"section_4_trial_participation":{"visits":[{"visitnum":"1.0","visit":"SCREENING","start_dtc":"2024-01-16","end_dtc":"2024-01-16","updes":null},{"visitnum":"2.0","visit":"DOSING DAY","start_dtc":"2024-03-08","end_dtc":"2024-03-08","updes":null},{"visitnum":"3.0","visit":"DAY 2","start_dtc":"2024-03-09","end_dtc":"2024-03-09","updes":null},{"visitnum":"4.0","visit":"WEEK 1","start_dtc":"2024-03-16","end_dtc":"2024-03-16","updes":null},{"visitnum":"5.0","visit":"WEEK 3","start_dtc":"2024-03-26","end_dtc":"2024-03-26","updes":null},{"visitnum":"6.0","visit":"WEEK 6","start_dtc":"2024-04-20","end_dtc":"2024-04-20","updes":null},{"visitnum":"7.0","visit":"WEEK 12","start_dtc":"2024-06-04","end_dtc":"2024-06-04","updes":null}],"epochs":[{"seq":"1","etcd":"SCRN","element":"Screening","start_dtc":"2024-02-09","end_dtc":"2024-03-08","updes":null},{"seq":"2","etcd":"TRT","element":"Treatment/Observation","start_dtc":"2024-03-08","end_dtc":"2024-06-01","updes":null},{"seq":"3","etcd":"FU","element":"Follow-up","start_dtc":"2024-06-01","end_dtc":"2024-06-01","updes":null}],"visit_count":7},"section_5_concomitant_medications":{"medications":[]},"section_6_exposure":{"exposure_as_administered":[{"seq":"1","trt":"PSILOCYBIN","dose":"25.0","doseu":null,"dosef":"ONCE","route":"ORAL","lot":null,"start_dtc":"2024-03-08","end_dtc":"2024-05-23","start_dy":"1","end_dy":"77","epoch":"TREATMENT","visit":null}],"exposure_as_collected":[{"seq":"1","trt":"PSILOCYBIN","dose":"25.0","doseu":null,"dosef":"ONCE","route":"ORAL","start_dtc":"2024-03-08","end_dtc":"2024-03-08","visit":"DOSING DAY"},{"seq":"2","trt":"PSILOCYBIN","dose":"25.0","doseu":null,"dosef":"ONCE","route":"ORAL","start_dtc":"2024-03-09","end_dtc":"2024-03-09","visit":"DOSING DAY"},{"seq":"3","trt":"PSILOCYBIN","dose":"25.0","doseu":null,"dosef":"ONCE","route":"ORAL","start_dtc":"2024-03-10","end_dtc":"2024-03-10","visit":"DOSING DAY"},{"seq":"4","trt":"PSILOCYBIN","dose":"25.0","doseu":null,"dosef":"ONCE","route":"ORAL","start_dtc":"2024-03-11","end_dtc":"2024-03-11","visit":"DOSING DAY"},{"seq":"5","trt":"PSILOCYBIN","dose":"25.0","doseu":null,"dosef":"ONCE","route":"ORAL","start_dtc":"2024-03-12","end_dtc":"2024-03-12","visit":"DAY 2"},{"seq":"6","trt":"PSILOCYBIN","dose":"25.0","doseu":null,"dosef":"ONCE","route":"ORAL","start_dtc":"2024-03-13","end_dtc":"2024-03-13","visit":"WEEK 1"},{"seq":"7","trt":"PSILOCYBIN","dose":"25.0","doseu":null,"dosef":"ONCE","route":"ORAL","start_dtc":"2024-03-14","end_dtc":"2024-03-14","visit":"WEEK 1"},{"seq":"8","trt":"PSILOCYBIN","dose":"25.0","doseu":null,"dosef":"ONCE","route":"ORAL","start_dtc":"2024-03-15","end_dtc":"2024-03-15","visit":"WEEK 1"},{"seq":"9","trt":"PSILOCYBIN","dose":"25.0","doseu":null,"dosef":"ONCE","route":"ORAL","start_dtc":"2024-03-16","end_dtc":"2024-03-16","visit":"WEEK 1"},{"seq":"10","trt":"PSILOCYBIN","dose":"25.0","doseu":null,"dosef":"ONCE","route":"ORAL","start_dtc":"2024-03-17","end_dtc":"2024-03-17","visit":"WEEK 1"},{"seq":"11","trt":"PSILOCYBIN","dose":"25.0","doseu":null,"dosef":"ONCE","route":"ORAL","start_dtc":"2024-03-18","end_dtc":"2024-03-18","visit":"WEEK 1"},{"seq":"12","trt":"PSILOCYBIN","dose":"25.0","doseu":null,"dosef":"ONCE","route":"ORAL","start_dtc":"2024-03-19","end_dtc":"2024-03-19","visit":null},{"seq":"13","trt":"PSILOCYBIN","dose":"25.0","doseu":null,"dosef":"ONCE","route":"ORAL","start_dtc":"2024-03-20","end_dtc":"2024-03-20","visit":null},{"seq":"14","trt":"PSILOCYBIN","dose":"25.0","doseu":null,"dosef":"ONCE","route":"ORAL","start_dtc":"2024-03-21","end_dtc":"2024-03-21","visit":null},{"seq":"15","trt":"PSILOCYBIN","dose":"25.0","doseu":null,"dosef":"ONCE","route":"ORAL","start_dtc":"2024-03-22","end_dtc":"2024-03-22","visit":null},{"seq":"16","trt":"PSILOCYBIN","dose":"25.0","doseu":null,"dosef":"ONCE","route":"ORAL","start_dtc":"2024-03-23","end_dtc":"2024-03-23","visit":null},{"seq":"17","trt":"PSILOCYBIN","dose":"25.0","doseu":null,"dosef":"ONCE","route":"ORAL","start_dtc":"2024-03-24","end_dtc":"2024-03-24","visit":null},{"seq":"18","trt":"PSILOCYBIN","dose":"25.0","doseu":null,"dosef":"ONCE","route":"ORAL","start_dtc":"2024-03-25","end_dtc":"2024-03-25","visit":null},{"seq":"19","trt":"PSILOCYBIN","dose":"25.0","doseu":null,"dosef":"ONCE","route":"ORAL","start_dtc":"2024-03-26","end_dtc":"2024-03-26","visit":"WEEK 3"},{"seq":"20","trt":"PSILOCYBIN","dose":"25.0","doseu":null,"dosef":"ONCE","route":"ORAL","start_dtc":"2024-03-27","end_dtc":"2024-03-27","visit":"WEEK 3"},{"seq":"21","trt":"PSILOCYBIN","dose":"25.0","doseu":null,"dosef":"ONCE","route":"ORAL","start_dtc":"2024-03-28","end_dtc":"2024-03-28","visit":"WEEK 3"},{"seq":"22","trt":"PSILOCYBIN","dose":"25.0","doseu":null,"dosef":"ONCE","route":"ORAL","start_dtc":"2024-03-29","end_dtc":"2024-03-29","visit":"WEEK 3"},{"seq":"23","trt":"PSILOCYBIN","dose":"25.0","doseu":null,"dosef":"ONCE","route":"ORAL","start_dtc":"2024-03-30","end_dtc":"2024-03-30","visit":"WEEK 3"},{"seq":"24","trt":"PSILOCYBIN","dose":null,"doseu":null,"dosef":"ONCE","route":"ORAL","start_dtc":"2024-03-31","end_dtc":"2024-03-31","visit":"WEEK 3"},{"seq":"25","trt":"PSILOCYBIN","dose":"25.0","doseu":null,"dosef":"ONCE","route":"ORAL","start_dtc":"2024-04-01","end_dtc":"2024-04-01","visit":"WEEK 3"},{"seq":"26","trt":"PSILOCYBIN","dose":"25.0","doseu":null,"dosef":"ONCE","route":"ORAL","start_dtc":"2024-04-02","end_dtc":"2024-04-02","visit":null},{"seq":"27","trt":"PSILOCYBIN","dose":"25.0","doseu":null,"dosef":"ONCE","route":"ORAL","start_dtc":"2024-04-03","end_dtc":"2024-04-03","visit":null},{"seq":"28","trt":"PSILOCYBIN","dose":"25.0","doseu":null,"dosef":"ONCE","route":"ORAL","start_dtc":"2024-04-04","end_dtc":"2024-04-04","visit":null},{"seq":"29","trt":"PSILOCYBIN","dose":"25.0","doseu":null,"dosef":"ONCE","route":"ORAL","start_dtc":"2024-04-05","end_dtc":"2024-04-05","visit":null},{"seq":"30","trt":"PSILOCYBIN","dose":"25.0","doseu":null,"dosef":"ONCE","route":"ORAL","start_dtc":"2024-04-06","end_dtc":"2024-04-06","visit":null},{"seq":"31","trt":"PSILOCYBIN","dose":"25.0","doseu":null,"dosef":"ONCE","route":"ORAL","start_dtc":"2024-04-07","end_dtc":"2024-04-07","visit":null},{"seq":"32","trt":"PSILOCYBIN","dose":"25.0","doseu":null,"dosef":"ONCE","route":"ORAL","start_dtc":"2024-04-08","end_dtc":"2024-04-08","visit":null},{"seq":"33","trt":"PSILOCYBIN","dose":"25.0","doseu":null,"dosef":"ONCE","route":"ORAL","start_dtc":"2024-04-09","end_dtc":"2024-04-09","visit":null},{"seq":"34","trt":"PSILOCYBIN","dose":"25.0","doseu":null,"dosef":"ONCE","route":"ORAL","start_dtc":"2024-04-10","end_dtc":"2024-04-10","visit":null},{"seq":"35","trt":"PSILOCYBIN","dose":"25.0","doseu":null,"dosef":"ONCE","route":"ORAL","start_dtc":"2024-04-11","end_dtc":"2024-04-11","visit":null},{"seq":"36","trt":"PSILOCYBIN","dose":"25.0","doseu":null,"dosef":"ONCE","route":"ORAL","start_dtc":"2024-04-12","end_dtc":"2024-04-12","visit":null},{"seq":"37","trt":"PSILOCYBIN","dose":"25.0","doseu":null,"dosef":"ONCE","route":"ORAL","start_dtc":"2024-04-13","end_dtc":"2024-04-13","visit":null},{"seq":"38","trt":"PSILOCYBIN","dose":"25.0","doseu":null,"dosef":"ONCE","route":"ORAL","start_dtc":"2024-04-14","end_dtc":"2024-04-14","visit":null},{"seq":"39","trt":"PSILOCYBIN","dose":"25.0","doseu":null,"dosef":"ONCE","route":"ORAL","start_dtc":"2024-04-15","end_dtc":"2024-04-15","visit":null},{"seq":"40","trt":"PSILOCYBIN","dose":"25.0","doseu":null,"dosef":"ONCE","route":"ORAL","start_dtc":"2024-04-16","end_dtc":"2024-04-16","visit":"WEEK 6"},{"seq":"41","trt":"PSILOCYBIN","dose":"25.0","doseu":null,"dosef":"ONCE","route":"ORAL","start_dtc":"2024-04-17","end_dtc":"2024-04-17","visit":"WEEK 6"},{"seq":"42","trt":"PSILOCYBIN","dose":"25.0","doseu":null,"dosef":"ONCE","route":"ORAL","start_dtc":"2024-04-18","end_dtc":"2024-04-18","visit":"WEEK 6"},{"seq":"43","trt":"PSILOCYBIN","dose":"25.0","doseu":null,"dosef":"ONCE","route":"ORAL","start_dtc":"2024-04-19","end_dtc":"2024-04-19","visit":"WEEK 6"},{"seq":"44","trt":"PSILOCYBIN","dose":"25.0","doseu":null,"dosef":"ONCE","route":"ORAL","start_dtc":"2024-04-20","end_dtc":"2024-04-20","visit":"WEEK 6"},{"seq":"45","trt":"PSILOCYBIN","dose":"25.0","doseu":null,"dosef":"ONCE","route":"ORAL","start_dtc":"2024-04-21","end_dtc":"2024-04-21","visit":"WEEK 6"},{"seq":"46","trt":"PSILOCYBIN","dose":"25.0","doseu":null,"dosef":"ONCE","route":"ORAL","start_dtc":"2024-04-22","end_dtc":"2024-04-22","visit":"WEEK 6"},{"seq":"47","trt":"PSILOCYBIN","dose":"25.0","doseu":null,"dosef":"ONCE","route":"ORAL","start_dtc":"2024-04-23","end_dtc":"2024-04-23","visit":null},{"seq":"48","trt":"PSILOCYBIN","dose":"25.0","doseu":null,"dosef":"ONCE","route":"ORAL","start_dtc":"2024-04-24","end_dtc":"2024-04-24","visit":null},{"seq":"49","trt":"PSILOCYBIN","dose":"25.0","doseu":null,"dosef":"ONCE","route":"ORAL","start_dtc":"2024-04-25","end_dtc":"2024-04-25","visit":null},{"seq":"50","trt":"PSILOCYBIN","dose":"25.0","doseu":null,"dosef":"ONCE","route":"ORAL","start_dtc":"2024-04-26","end_dtc":"2024-04-26","visit":null},{"seq":"51","trt":"PSILOCYBIN","dose":"25.0","doseu":null,"dosef":"ONCE","route":"ORAL","start_dtc":"2024-04-27","end_dtc":"2024-04-27","visit":null},{"seq":"52","trt":"PSILOCYBIN","dose":"25.0","doseu":null,"dosef":"ONCE","route":"ORAL","start_dtc":"2024-04-28","end_dtc":"2024-04-28","visit":null},{"seq":"53","trt":"PSILOCYBIN","dose":"25.0","doseu":null,"dosef":"ONCE","route":"ORAL","start_dtc":"2024-04-29","end_dtc":"2024-04-29","visit":null},{"seq":"54","trt":"PSILOCYBIN","dose":"25.0","doseu":null,"dosef":"ONCE","route":"ORAL","start_dtc":"2024-04-30","end_dtc":"2024-04-30","visit":null},{"seq":"55","trt":"PSILOCYBIN","dose":"25.0","doseu":null,"dosef":"ONCE","route":"ORAL","start_dtc":"2024-05-01","end_dtc":"2024-05-01","visit":null},{"seq":"56","trt":"PSILOCYBIN","dose":"25.0","doseu":null,"dosef":"ONCE","route":"ORAL","start_dtc":"2024-05-02","end_dtc":"2024-05-02","visit":null},{"seq":"57","trt":"PSILOCYBIN","dose":"25.0","doseu":null,"dosef":"ONCE","route":"ORAL","start_dtc":"2024-05-03","end_dtc":"2024-05-03","visit":null},{"seq":"58","trt":"PSILOCYBIN","dose":"25.0","doseu":null,"dosef":"ONCE","route":"ORAL","start_dtc":"2024-05-04","end_dtc":"2024-05-04","visit":null},{"seq":"59","trt":"PSILOCYBIN","dose":null,"doseu":null,"dosef":"ONCE","route":"ORAL","start_dtc":"2024-05-05","end_dtc":"2024-05-05","visit":null},{"seq":"60","trt":"PSILOCYBIN","dose":"25.0","doseu":null,"dosef":"ONCE","route":"ORAL","start_dtc":"2024-05-06","end_dtc":"2024-05-06","visit":null},{"seq":"61","trt":"PSILOCYBIN","dose":"25.0","doseu":null,"dosef":"ONCE","route":"ORAL","start_dtc":"2024-05-07","end_dtc":"2024-05-07","visit":null},{"seq":"62","trt":"PSILOCYBIN","dose":"25.0","doseu":null,"dosef":"ONCE","route":"ORAL","start_dtc":"2024-05-08","end_dtc":"2024-05-08","visit":null},{"seq":"63","trt":"PSILOCYBIN","dose":"25.0","doseu":null,"dosef":"ONCE","route":"ORAL","start_dtc":"2024-05-09","end_dtc":"2024-05-09","visit":null},{"seq":"64","trt":"PSILOCYBIN","dose":"25.0","doseu":null,"dosef":"ONCE","route":"ORAL","start_dtc":"2024-05-10","end_dtc":"2024-05-10","visit":null},{"seq":"65","trt":"PSILOCYBIN","dose":"25.0","doseu":null,"dosef":"ONCE","route":"ORAL","start_dtc":"2024-05-11","end_dtc":"2024-05-11","visit":null},{"seq":"66","trt":"PSILOCYBIN","dose":"25.0","doseu":null,"dosef":"ONCE","route":"ORAL","start_dtc":"2024-05-12","end_dtc":"2024-05-12","visit":null},{"seq":"67","trt":"PSILOCYBIN","dose":"25.0","doseu":null,"dosef":"ONCE","route":"ORAL","start_dtc":"2024-05-13","end_dtc":"2024-05-13","visit":null},{"seq":"68","trt":"PSILOCYBIN","dose":"25.0","doseu":null,"dosef":"ONCE","route":"ORAL","start_dtc":"2024-05-14","end_dtc":"2024-05-14","visit":null},{"seq":"69","trt":"PSILOCYBIN","dose":"25.0","doseu":null,"dosef":"ONCE","route":"ORAL","start_dtc":"2024-05-15","end_dtc":"2024-05-15","visit":null},{"seq":"70","trt":"PSILOCYBIN","dose":"25.0","doseu":null,"dosef":"ONCE","route":"ORAL","start_dtc":"2024-05-16","end_dtc":"2024-05-16","visit":null},{"seq":"71","trt":"PSILOCYBIN","dose":"25.0","doseu":null,"dosef":"ONCE","route":"ORAL","start_dtc":"2024-05-17","end_dtc":"2024-05-17","visit":null},{"seq":"72","trt":"PSILOCYBIN","dose":"25.0","doseu":null,"dosef":"ONCE","route":"ORAL","start_dtc":"2024-05-18","end_dtc":"2024-05-18","visit":null},{"seq":"73","trt":"PSILOCYBIN","dose":"25.0","doseu":null,"dosef":"ONCE","route":"ORAL","start_dtc":"2024-05-19","end_dtc":"2024-05-19","visit":null},{"seq":"74","trt":"PSILOCYBIN","dose":"25.0","doseu":null,"dosef":"ONCE","route":"ORAL","start_dtc":"2024-05-20","end_dtc":"2024-05-20","visit":null},{"seq":"75","trt":"PSILOCYBIN","dose":"25.0","doseu":null,"dosef":"ONCE","route":"ORAL","start_dtc":"2024-05-21","end_dtc":"2024-05-21","visit":null},{"seq":"76","trt":"PSILOCYBIN","dose":"25.0","doseu":null,"dosef":"ONCE","route":"ORAL","start_dtc":"2024-05-22","end_dtc":"2024-05-22","visit":null},{"seq":"77","trt":"PSILOCYBIN","dose":"25.0","doseu":null,"dosef":"ONCE","route":"ORAL","start_dtc":"2024-05-23","end_dtc":"2024-05-23","visit":null}]},"section_7_adverse_events":{"summary":{"total_aes":0,"serious_aes":0,"fatal_aes":0,"by_severity":{},"by_soc":{}},"events":[]},"section_8_laboratory_results":{"summary":{"total_records":49,"abnormal_count":7,"abnormal_pct":14.3},"shift_summary":[{"testcd":"ALT","baseline_value":23.83,"baseline_nrind":"NORMAL","worst_post_baseline_value":24.08,"worst_post_baseline_nrind":"NORMAL","worst_visit":"DAY 2"},{"testcd":"AST","baseline_value":19.92,"baseline_nrind":"NORMAL","worst_post_baseline_value":21.78,"worst_post_baseline_nrind":"NORMAL","worst_visit":"DAY 2"},{"testcd":"CREAT","baseline_value":45.06,"baseline_nrind":"NORMAL","worst_post_baseline_value":48.02,"worst_post_baseline_nrind":"NORMAL","worst_visit":"WEEK 1"},{"testcd":"GLUC","baseline_value":4.05,"baseline_nrind":"NORMAL","worst_post_baseline_value":4.4,"worst_post_baseline_nrind":"NORMAL","worst_visit":"WEEK 12"},{"testcd":"HGB","baseline_value":110.42,"baseline_nrind":"LOW","worst_post_baseline_value":108.99,"worst_post_baseline_nrind":"LOW","worst_visit":"DAY 2"},{"testcd":"PLAT","baseline_value":260.81,"baseline_nrind":"NORMAL","worst_post_baseline_value":259.88,"worst_post_baseline_nrind":"NORMAL","worst_visit":"WEEK 1"},{"testcd":"WBC","baseline_value":7.82,"baseline_nrind":"NORMAL","worst_post_baseline_value":7.38,"worst_post_baseline_nrind":"NORMAL","worst_visit":"WEEK 12"}],"results":[{"seq":"1","testcd":"ALT","test":"Alanine Aminotransferase","cat":"CHEMISTRY","orres":"23.83","orresu":"U/L","stresc":"23.83","stresn":"23.83","stresu":"U/L","stnrlo":"7","stnrhi":"56","nrind":"NORMAL","fast":null,"dtc":"2024-01-16","dy":"-52","visit":"SCREENING","visitnum":"1.0","epoch":"SCREENING","spec":null,"method":null},{"seq":"2","testcd":"AST","test":"Aspartate Aminotransferase","cat":"CHEMISTRY","orres":"19.92","orresu":"U/L","stresc":"19.92","stresn":"19.92","stresu":"U/L","stnrlo":"10","stnrhi":"40","nrind":"NORMAL","fast":null,"dtc":"2024-01-16","dy":"-52","visit":"SCREENING","visitnum":"1.0","epoch":"SCREENING","spec":null,"method":null},{"seq":"3","testcd":"CREAT","test":"Creatinine","cat":"CHEMISTRY","orres":"45.06","orresu":"umol/L","stresc":"45.06","stresn":"45.06","stresu":"umol/L","stnrlo":"44","stnrhi":"80","nrind":"NORMAL","fast":null,"dtc":"2024-01-16","dy":"-52","visit":"SCREENING","visitnum":"1.0","epoch":"SCREENING","spec":null,"method":null},{"seq":"4","testcd":"GLUC","test":"Glucose","cat":"CHEMISTRY","orres":"4.05","orresu":"mmol/L","stresc":"4.05","stresn":"4.05","stresu":"mmol/L","stnrlo":"3.9","stnrhi":"5.6","nrind":"NORMAL","fast":null,"dtc":"2024-01-16","dy":"-52","visit":"SCREENING","visitnum":"1.0","epoch":"SCREENING","spec":null,"method":null},{"seq":"5","testcd":"HGB","test":"Hemoglobin","cat":"HEMATOLOGY","orres":"110.42","orresu":"g/L","stresc":"110.42","stresn":"110.42","stresu":"g/L","stnrlo":"120","stnrhi":"155","nrind":"LOW","fast":null,"dtc":"2024-01-16","dy":"-52","visit":"SCREENING","visitnum":"1.0","epoch":"SCREENING","spec":null,"method":null},{"seq":"6","testcd":"PLAT","test":"Platelets","cat":"HEMATOLOGY","orres":"260.81","orresu":"10^9/L","stresc":"260.81","stresn":"260.81","stresu":"10^9/L","stnrlo":"150","stnrhi":"400","nrind":"NORMAL","fast":null,"dtc":"2024-01-16","dy":"-52","visit":"SCREENING","visitnum":"1.0","epoch":"SCREENING","spec":null,"method":null},{"seq":"7","testcd":"WBC","test":"Leukocytes","cat":"HEMATOLOGY","orres":"7.82","orresu":"10^9/L","stresc":"7.82","stresn":"7.82","stresu":"10^9/L","stnrlo":"4.0","stnrhi":"11.0","nrind":"NORMAL","fast":null,"dtc":"2024-01-16","dy":"-52","visit":"SCREENING","visitnum":"1.0","epoch":"SCREENING","spec":null,"method":null},{"seq":"8","testcd":"ALT","test":"Alanine Aminotransferase","cat":"CHEMISTRY","orres":"22.56","orresu":"U/L","stresc":"22.56","stresn":"22.56","stresu":"U/L","stnrlo":"7","stnrhi":"56","nrind":"NORMAL","fast":null,"dtc":"2024-03-08","dy":"1","visit":"DOSING DAY","visitnum":"2.0","epoch":"TREATMENT","spec":null,"method":null},{"seq":"9","testcd":"AST","test":"Aspartate Aminotransferase","cat":"CHEMISTRY","orres":"21.52","orresu":"U/L","stresc":"21.52","stresn":"21.52","stresu":"U/L","stnrlo":"10","stnrhi":"40","nrind":"NORMAL","fast":null,"dtc":"2024-03-08","dy":"1","visit":"DOSING DAY","visitnum":"2.0","epoch":"TREATMENT","spec":null,"method":null},{"seq":"10","testcd":"CREAT","test":"Creatinine","cat":"CHEMISTRY","orres":"43.08","orresu":"umol/L","stresc":"43.08","stresn":"43.08","stresu":"umol/L","stnrlo":"44","stnrhi":"80","nrind":"LOW","fast":null,"dtc":"2024-03-08","dy":"1","visit":"DOSING DAY","visitnum":"2.0","epoch":"TREATMENT","spec":null,"method":null},{"seq":"11","testcd":"GLUC","test":"Glucose","cat":"CHEMISTRY","orres":"4.14","orresu":"mmol/L","stresc":"4.14","stresn":"4.14","stresu":"mmol/L","stnrlo":"3.9","stnrhi":"5.6","nrind":"NORMAL","fast":null,"dtc":"2024-03-08","dy":"1","visit":"DOSING DAY","visitnum":"2.0","epoch":"TREATMENT","spec":null,"method":null},{"seq":"12","testcd":"HGB","test":"Hemoglobin","cat":"HEMATOLOGY","orres":"110.82","orresu":"g/L","stresc":"110.82","stresn":"110.82","stresu":"g/L","stnrlo":"120","stnrhi":"155","nrind":"LOW","fast":null,"dtc":"2024-03-08","dy":"1","visit":"DOSING DAY","visitnum":"2.0","epoch":"TREATMENT","spec":null,"method":null},{"seq":"13","testcd":"PLAT","test":"Platelets","cat":"HEMATOLOGY","orres":"248.16","orresu":"10^9/L","stresc":"248.16","stresn":"248.16","stresu":"10^9/L","stnrlo":"150","stnrhi":"400","nrind":"NORMAL","fast":null,"dtc":"2024-03-08","dy":"1","visit":"DOSING DAY","visitnum":"2.0","epoch":"TREATMENT","spec":null,"method":null},{"seq":"14","testcd":"WBC","test":"Leukocytes","cat":"HEMATOLOGY","orres":"6.54","orresu":"10^9/L","stresc":"6.54","stresn":"6.54","stresu":"10^9/L","stnrlo":"4.0","stnrhi":"11.0","nrind":"NORMAL","fast":null,"dtc":"2024-03-08","dy":"1","visit":"DOSING DAY","visitnum":"2.0","epoch":"TREATMENT","spec":null,"method":null},{"seq":"15","testcd":"ALT","test":"Alanine Aminotransferase","cat":"CHEMISTRY","orres":"24.08","orresu":"U/L","stresc":"24.08","stresn":"24.08","stresu":"U/L","stnrlo":"7","stnrhi":"56","nrind":"NORMAL","fast":null,"dtc":"2024-03-09","dy":"2","visit":"DAY 2","visitnum":"3.0","epoch":"FOLLOW-UP","spec":null,"method":null},{"seq":"16","testcd":"AST","test":"Aspartate Aminotransferase","cat":"CHEMISTRY","orres":"21.78","orresu":"U/L","stresc":"21.78","stresn":"21.78","stresu":"U/L","stnrlo":"10","stnrhi":"40","nrind":"NORMAL","fast":null,"dtc":"2024-03-09","dy":"2","visit":"DAY 2","visitnum":"3.0","epoch":"FOLLOW-UP","spec":null,"method":null},{"seq":"17","testcd":"CREAT","test":"Creatinine","cat":"CHEMISTRY","orres":"46.08","orresu":"umol/L","stresc":"46.08","stresn":"46.08","stresu":"umol/L","stnrlo":"44","stnrhi":"80","nrind":"NORMAL","fast":null,"dtc":"2024-03-09","dy":"2","visit":"DAY 2","visitnum":"3.0","epoch":"FOLLOW-UP","spec":null,"method":null},{"seq":"18","testcd":"GLUC","test":"Glucose","cat":"CHEMISTRY","orres":"4.11","orresu":"mmol/L","stresc":"4.11","stresn":"4.11","stresu":"mmol/L","stnrlo":"3.9","stnrhi":"5.6","nrind":"NORMAL","fast":null,"dtc":"2024-03-09","dy":"2","visit":"DAY 2","visitnum":"3.0","epoch":"FOLLOW-UP","spec":null,"method":null},{"seq":"19","testcd":"HGB","test":"Hemoglobin","cat":"HEMATOLOGY","orres":"108.99","orresu":"g/L","stresc":"108.99","stresn":"108.99","stresu":"g/L","stnrlo":"120","stnrhi":"155","nrind":"LOW","fast":null,"dtc":"2024-03-09","dy":"2","visit":"DAY 2","visitnum":"3.0","epoch":"FOLLOW-UP","spec":null,"method":null},{"seq":"20","testcd":"PLAT","test":"Platelets","cat":"HEMATOLOGY","orres":"245.99","orresu":"10^9/L","stresc":"245.99","stresn":"245.99","stresu":"10^9/L","stnrlo":"150","stnrhi":"400","nrind":"NORMAL","fast":null,"dtc":"2024-03-09","dy":"2","visit":"DAY 2","visitnum":"3.0","epoch":"FOLLOW-UP","spec":null,"method":null},{"seq":"21","testcd":"WBC","test":"Leukocytes","cat":"HEMATOLOGY","orres":"6.59","orresu":"10^9/L","stresc":"6.59","stresn":"6.59","stresu":"10^9/L","stnrlo":"4.0","stnrhi":"11.0","nrind":"NORMAL","fast":null,"dtc":"2024-03-09","dy":"2","visit":"DAY 2","visitnum":"3.0","epoch":"FOLLOW-UP","spec":null,"method":null},{"seq":"22","testcd":"ALT","test":"Alanine Aminotransferase","cat":"CHEMISTRY","orres":null,"orresu":null,"stresc":null,"stresn":null,"stresu":null,"stnrlo":null,"stnrhi":null,"nrind":null,"fast":null,"dtc":"2024-03-16","dy":"9","visit":"WEEK 1","visitnum":"4.0","epoch":"FOLLOW-UP","spec":null,"method":null},{"seq":"23","testcd":"AST","test":"Aspartate Aminotransferase","cat":"CHEMISTRY","orres":"19.01","orresu":"U/L","stresc":"19.01","stresn":"19.01","stresu":"U/L","stnrlo":"10","stnrhi":"40","nrind":"NORMAL","fast":null,"dtc":"2024-03-16","dy":"9","visit":"WEEK 1","visitnum":"4.0","epoch":"FOLLOW-UP","spec":null,"method":null},{"seq":"24","testcd":"CREAT","test":"Creatinine","cat":"CHEMISTRY","orres":"48.02","orresu":"umol/L","stresc":"48.02","stresn":"48.02","stresu":"umol/L","stnrlo":"44","stnrhi":"80","nrind":"NORMAL","fast":null,"dtc":"2024-03-16","dy":"9","visit":"WEEK 1","visitnum":"4.0","epoch":"FOLLOW-UP","spec":null,"method":null},{"seq":"25","testcd":"GLUC","test":"Glucose","cat":"CHEMISTRY","orres":"4.21","orresu":"mmol/L","stresc":"4.21","stresn":"4.21","stresu":"mmol/L","stnrlo":"3.9","stnrhi":"5.6","nrind":"NORMAL","fast":null,"dtc":"2024-03-16","dy":"9","visit":"WEEK 1","visitnum":"4.0","epoch":"FOLLOW-UP","spec":null,"method":null},{"seq":"26","testcd":"HGB","test":"Hemoglobin","cat":"HEMATOLOGY","orres":"109.77","orresu":"g/L","stresc":"109.77","stresn":"109.77","stresu":"g/L","stnrlo":"120","stnrhi":"155","nrind":"LOW","fast":null,"dtc":"2024-03-16","dy":"9","visit":"WEEK 1","visitnum":"4.0","epoch":"FOLLOW-UP","spec":null,"method":null},{"seq":"27","testcd":"PLAT","test":"Platelets","cat":"HEMATOLOGY","orres":"259.88","orresu":"10^9/L","stresc":"259.88","stresn":"259.88","stresu":"10^9/L","stnrlo":"150","stnrhi":"400","nrind":"NORMAL","fast":null,"dtc":"2024-03-16","dy":"9","visit":"WEEK 1","visitnum":"4.0","epoch":"FOLLOW-UP","spec":null,"method":null},{"seq":"28","testcd":"WBC","test":"Leukocytes","cat":"HEMATOLOGY","orres":"6.79","orresu":"10^9/L","stresc":"6.79","stresn":"6.79","stresu":"10^9/L","stnrlo":"4.0","stnrhi":"11.0","nrind":"NORMAL","fast":null,"dtc":"2024-03-16","dy":"9","visit":"WEEK 1","visitnum":"4.0","epoch":"FOLLOW-UP","spec":null,"method":null},{"seq":"29","testcd":"ALT","test":"Alanine Aminotransferase","cat":"CHEMISTRY","orres":"22.58","orresu":"U/L","stresc":"22.58","stresn":"22.58","stresu":"U/L","stnrlo":"7","stnrhi":"56","nrind":"NORMAL","fast":null,"dtc":"2024-03-26","dy":"19","visit":"WEEK 3","visitnum":"5.0","epoch":"FOLLOW-UP","spec":null,"method":null},{"seq":"30","testcd":"AST","test":"Aspartate Aminotransferase","cat":"CHEMISTRY","orres":"19.49","orresu":"U/L","stresc":"19.49","stresn":"19.49","stresu":"U/L","stnrlo":"10","stnrhi":"40","nrind":"NORMAL","fast":null,"dtc":"2024-03-26","dy":"19","visit":"WEEK 3","visitnum":"5.0","epoch":"FOLLOW-UP","spec":null,"method":null},{"seq":"31","testcd":"CREAT","test":"Creatinine","cat":"CHEMISTRY","orres":"46.76","orresu":"umol/L","stresc":"46.76","stresn":"46.76","stresu":"umol/L","stnrlo":"44","stnrhi":"80","nrind":"NORMAL","fast":null,"dtc":"2024-03-26","dy":"19","visit":"WEEK 3","visitnum":"5.0","epoch":"FOLLOW-UP","spec":null,"method":null},{"seq":"32","testcd":"GLUC","test":"Glucose","cat":"CHEMISTRY","orres":"4.09","orresu":"mmol/L","stresc":"4.09","stresn":"4.09","stresu":"mmol/L","stnrlo":"3.9","stnrhi":"5.6","nrind":"NORMAL","fast":null,"dtc":"2024-03-26","dy":"19","visit":"WEEK 3","visitnum":"5.0","epoch":"FOLLOW-UP","spec":null,"method":null},{"seq":"33","testcd":"HGB","test":"Hemoglobin","cat":"HEMATOLOGY","orres":null,"orresu":null,"stresc":null,"stresn":null,"stresu":null,"stnrlo":null,"stnrhi":null,"nrind":null,"fast":null,"dtc":"2024-03-26","dy":"19","visit":"WEEK 3","visitnum":"5.0","epoch":"FOLLOW-UP","spec":null,"method":null},{"seq":"34","testcd":"PLAT","test":"Platelets","cat":"HEMATOLOGY","orres":"247.77","orresu":"10^9/L","stresc":"247.77","stresn":"247.77","stresu":"10^9/L","stnrlo":"150","stnrhi":"400","nrind":"NORMAL","fast":null,"dtc":"2024-03-26","dy":"19","visit":"WEEK 3","visitnum":"5.0","epoch":"FOLLOW-UP","spec":null,"method":null},{"seq":"35","testcd":"WBC","test":"Leukocytes","cat":"HEMATOLOGY","orres":"6.98","orresu":"10^9/L","stresc":"6.98","stresn":"6.98","stresu":"10^9/L","stnrlo":"4.0","stnrhi":"11.0","nrind":"NORMAL","fast":null,"dtc":"2024-03-26","dy":"19","visit":"WEEK 3","visitnum":"5.0","epoch":"FOLLOW-UP","spec":null,"method":null},{"seq":"36","testcd":"ALT","test":"Alanine Aminotransferase","cat":"CHEMISTRY","orres":"21.52","orresu":"U/L","stresc":"21.52","stresn":"21.52","stresu":"U/L","stnrlo":"7","stnrhi":"56","nrind":"NORMAL","fast":null,"dtc":"2024-04-20","dy":"44","visit":"WEEK 6","visitnum":"6.0","epoch":"FOLLOW-UP","spec":null,"method":null},{"seq":"37","testcd":"AST","test":"Aspartate Aminotransferase","cat":"CHEMISTRY","orres":"18.75","orresu":"U/L","stresc":"18.75","stresn":"18.75","stresu":"U/L","stnrlo":"10","stnrhi":"40","nrind":"NORMAL","fast":null,"dtc":"2024-04-20","dy":"44","visit":"WEEK 6","visitnum":"6.0","epoch":"FOLLOW-UP","spec":null,"method":null},{"seq":"38","testcd":"CREAT","test":"Creatinine","cat":"CHEMISTRY","orres":"45.47","orresu":"umol/L","stresc":"45.47","stresn":"45.47","stresu":"umol/L","stnrlo":"44","stnrhi":"80","nrind":"NORMAL","fast":null,"dtc":"2024-04-20","dy":"44","visit":"WEEK 6","visitnum":"6.0","epoch":"FOLLOW-UP","spec":null,"method":null},{"seq":"39","testcd":"GLUC","test":"Glucose","cat":"CHEMISTRY","orres":"4.1","orresu":"mmol/L","stresc":"4.1","stresn":"4.1","stresu":"mmol/L","stnrlo":"3.9","stnrhi":"5.6","nrind":"NORMAL","fast":null,"dtc":"2024-04-20","dy":"44","visit":"WEEK 6","visitnum":"6.0","epoch":"FOLLOW-UP","spec":null,"method":null},{"seq":"40","testcd":"HGB","test":"Hemoglobin","cat":"HEMATOLOGY","orres":"110.39","orresu":"g/L","stresc":"110.39","stresn":"110.39","stresu":"g/L","stnrlo":"120","stnrhi":"155","nrind":"LOW","fast":null,"dtc":"2024-04-20","dy":"44","visit":"WEEK 6","visitnum":"6.0","epoch":"FOLLOW-UP","spec":null,"method":null},{"seq":"41","testcd":"PLAT","test":"Platelets","cat":"HEMATOLOGY","orres":"251.26","orresu":"10^9/L","stresc":"251.26","stresn":"251.26","stresu":"10^9/L","stnrlo":"150","stnrhi":"400","nrind":"NORMAL","fast":null,"dtc":"2024-04-20","dy":"44","visit":"WEEK 6","visitnum":"6.0","epoch":"FOLLOW-UP","spec":null,"method":null},{"seq":"42","testcd":"WBC","test":"Leukocytes","cat":"HEMATOLOGY","orres":"6.99","orresu":"10^9/L","stresc":"6.99","stresn":"6.99","stresu":"10^9/L","stnrlo":"4.0","stnrhi":"11.0","nrind":"NORMAL","fast":null,"dtc":"2024-04-20","dy":"44","visit":"WEEK 6","visitnum":"6.0","epoch":"FOLLOW-UP","spec":null,"method":null},{"seq":"43","testcd":"ALT","test":"Alanine Aminotransferase","cat":"CHEMISTRY","orres":"23.57","orresu":"U/L","stresc":"23.57","stresn":"23.57","stresu":"U/L","stnrlo":"7","stnrhi":"56","nrind":"NORMAL","fast":null,"dtc":"2024-06-04","dy":"89","visit":"WEEK 12","visitnum":"7.0","epoch":"FOLLOW-UP","spec":null,"method":null},{"seq":"44","testcd":"AST","test":"Aspartate Aminotransferase","cat":"CHEMISTRY","orres":"18.81","orresu":"U/L","stresc":"18.81","stresn":"18.81","stresu":"U/L","stnrlo":"10","stnrhi":"40","nrind":"NORMAL","fast":null,"dtc":"2024-06-04","dy":"89","visit":"WEEK 12","visitnum":"7.0","epoch":"FOLLOW-UP","spec":null,"method":null},{"seq":"45","testcd":"CREAT","test":"Creatinine","cat":"CHEMISTRY","orres":"47.64","orresu":"umol/L","stresc":"47.64","stresn":"47.64","stresu":"umol/L","stnrlo":"44","stnrhi":"80","nrind":"NORMAL","fast":null,"dtc":"2024-06-04","dy":"89","visit":"WEEK 12","visitnum":"7.0","epoch":"FOLLOW-UP","spec":null,"method":null},{"seq":"46","testcd":"GLUC","test":"Glucose","cat":"CHEMISTRY","orres":"4.4","orresu":"mmol/L","stresc":"4.4","stresn":"4.4","stresu":"mmol/L","stnrlo":"3.9","stnrhi":"5.6","nrind":"NORMAL","fast":null,"dtc":"2024-06-04","dy":"89","visit":"WEEK 12","visitnum":"7.0","epoch":"FOLLOW-UP","spec":null,"method":null},{"seq":"47","testcd":"HGB","test":"Hemoglobin","cat":"HEMATOLOGY","orres":"109.06","orresu":"g/L","stresc":"109.06","stresn":"109.06","stresu":"g/L","stnrlo":"120","stnrhi":"155","nrind":"LOW","fast":null,"dtc":"2024-06-04","dy":"89","visit":"WEEK 12","visitnum":"7.0","epoch":"FOLLOW-UP","spec":null,"method":null},{"seq":"48","testcd":"PLAT","test":"Platelets","cat":"HEMATOLOGY","orres":"247.44","orresu":"10^9/L","stresc":"247.44","stresn":"247.44","stresu":"10^9/L","stnrlo":"150","stnrhi":"400","nrind":"NORMAL","fast":null,"dtc":"2024-06-04","dy":"89","visit":"WEEK 12","visitnum":"7.0","epoch":"FOLLOW-UP","spec":null,"method":null},{"seq":"49","testcd":"WBC","test":"Leukocytes","cat":"HEMATOLOGY","orres":"7.38","orresu":"10^9/L","stresc":"7.38","stresn":"7.38","stresu":"10^9/L","stnrlo":"4.0","stnrhi":"11.0","nrind":"NORMAL","fast":null,"dtc":"2024-06-04","dy":"89","visit":"WEEK 12","visitnum":"7.0","epoch":"FOLLOW-UP","spec":null,"method":null}]},"section_9_vital_signs":{"summary":{"total_records":40},"trends":{"BMI":[{"visit":"SCREENING","visitnum":"1.0","dtc":"2024-01-16","value":"36.3","unit":"kg/m2"},{"visit":"DOSING DAY","visitnum":"2.0","dtc":"2024-03-08","value":"37.1","unit":"kg/m2"},{"visit":"DAY 2","visitnum":"3.0","dtc":"2024-03-09","value":"37.2","unit":"kg/m2"},{"visit":"WEEK 1","visitnum":"4.0","dtc":"2024-03-16","value":"39.0","unit":"kg/m2"},{"visit":"WEEK 3","visitnum":"5.0","dtc":"2024-03-26","value":"37.7","unit":"kg/m2"}],"DIABP":[{"visit":"SCREENING","visitnum":"1.0","dtc":"2024-01-16","value":"79.4","unit":"mmHg"},{"visit":"DOSING DAY","visitnum":"2.0","dtc":"2024-03-08","value":"77.8","unit":"mmHg"},{"visit":"DAY 2","visitnum":"3.0","dtc":"2024-03-09","value":"76.6","unit":"mmHg"},{"visit":"WEEK 1","visitnum":"4.0","dtc":"2024-03-16","value":"75.6","unit":"mmHg"},{"visit":"WEEK 3","visitnum":"5.0","dtc":"2024-03-26","value":"74.6","unit":"mmHg"}],"HEIGHT":[{"visit":"SCREENING","visitnum":"1.0","dtc":"2024-01-16","value":"151.0","unit":"cm"},{"visit":"DOSING DAY","visitnum":"2.0","dtc":"2024-03-08","value":"151.2","unit":"cm"},{"visit":"DAY 2","visitnum":"3.0","dtc":"2024-03-09","value":"150.9","unit":"cm"},{"visit":"WEEK 1","visitnum":"4.0","dtc":"2024-03-16","value":"150.3","unit":"cm"},{"visit":"WEEK 3","visitnum":"5.0","dtc":"2024-03-26","value":"150.5","unit":"cm"}],"PULSE":[{"visit":"SCREENING","visitnum":"1.0","dtc":"2024-01-16","value":"59.6","unit":"beats/min"},{"visit":"DOSING DAY","visitnum":"2.0","dtc":"2024-03-08","value":"58.7","unit":"beats/min"},{"visit":"DAY 2","visitnum":"3.0","dtc":"2024-03-09","value":"62.8","unit":"beats/min"},{"visit":"WEEK 1","visitnum":"4.0","dtc":"2024-03-16","value":"63.8","unit":"beats/min"},{"visit":"WEEK 3","visitnum":"5.0","dtc":"2024-03-26","value":"65.3","unit":"beats/min"}],"RESP":[{"visit":"SCREENING","visitnum":"1.0","dtc":"2024-01-16","value":"24.0","unit":"breaths/min"},{"visit":"DOSING DAY","visitnum":"2.0","dtc":"2024-03-08","value":"22.7","unit":"breaths/min"},{"visit":"DAY 2","visitnum":"3.0","dtc":"2024-03-09","value":"21.1","unit":"breaths/min"},{"visit":"WEEK 1","visitnum":"4.0","dtc":"2024-03-16","value":"23.2","unit":"breaths/min"},{"visit":"WEEK 3","visitnum":"5.0","dtc":"2024-03-26","value":"21.2","unit":"breaths/min"}],"SYSBP":[{"visit":"SCREENING","visitnum":"1.0","dtc":"2024-01-16","value":"105.3","unit":"mmHg"},{"visit":"DOSING DAY","visitnum":"2.0","dtc":"2024-03-08","value":"103.1","unit":"mmHg"},{"visit":"DAY 2","visitnum":"3.0","dtc":"2024-03-09","value":"102.3","unit":"mmHg"},{"visit":"WEEK 1","visitnum":"4.0","dtc":"2024-03-16","value":"99.5","unit":"mmHg"},{"visit":"WEEK 3","visitnum":"5.0","dtc":"2024-03-26","value":"99.2","unit":"mmHg"}],"TEMP":[{"visit":"SCREENING","visitnum":"1.0","dtc":"2024-01-16","value":"37.7","unit":"C"},{"visit":"DOSING DAY","visitnum":"2.0","dtc":"2024-03-08","value":"37.4","unit":"C"},{"visit":"DAY 2","visitnum":"3.0","dtc":"2024-03-09","value":"37.3","unit":"C"},{"visit":"WEEK 1","visitnum":"4.0","dtc":"2024-03-16","value":"37.2","unit":"C"},{"visit":"WEEK 3","visitnum":"5.0","dtc":"2024-03-26","value":"37.3","unit":"C"}],"WEIGHT":[{"visit":"SCREENING","visitnum":"1.0","dtc":"2024-01-16","value":"82.8","unit":"kg"},{"visit":"DOSING DAY","visitnum":"2.0","dtc":"2024-03-08","value":"84.8","unit":"kg"},{"visit":"DAY 2","visitnum":"3.0","dtc":"2024-03-09","value":"84.8","unit":"kg"},{"visit":"WEEK 1","visitnum":"4.0","dtc":"2024-03-16","value":"88.2","unit":"kg"},{"visit":"WEEK 3","visitnum":"5.0","dtc":"2024-03-26","value":"85.5","unit":"kg"}]},"results":[{"seq":"1","testcd":"BMI","test":"BMI","cat":null,"orres":"36.3","orresu":"kg/m2","stresc":"36.3","stresn":"36.3","stresu":"kg/m2","stnrlo":null,"stnrhi":null,"nrind":null,"pos":null,"loc":null,"dtc":"2024-01-16","dy":"-52","visit":"SCREENING","visitnum":"1.0","epoch":"SCREENING"},{"seq":"2","testcd":"DIABP","test":"Diastolic Blood Pressure","cat":null,"orres":"79.4","orresu":"mmHg","stresc":"79.4","stresn":"79.4","stresu":"mmHg","stnrlo":null,"stnrhi":null,"nrind":null,"pos":null,"loc":null,"dtc":"2024-01-16","dy":"-52","visit":"SCREENING","visitnum":"1.0","epoch":"SCREENING"},{"seq":"3","testcd":"HEIGHT","test":"Height","cat":null,"orres":"151.0","orresu":"cm","stresc":"151.0","stresn":"151.0","stresu":"cm","stnrlo":null,"stnrhi":null,"nrind":null,"pos":null,"loc":null,"dtc":"2024-01-16","dy":"-52","visit":"SCREENING","visitnum":"1.0","epoch":"SCREENING"},{"seq":"4","testcd":"PULSE","test":"Pulse Rate","cat":null,"orres":"59.6","orresu":"beats/min","stresc":"59.6","stresn":"59.6","stresu":"beats/min","stnrlo":null,"stnrhi":null,"nrind":null,"pos":null,"loc":null,"dtc":"2024-01-16","dy":"-52","visit":"SCREENING","visitnum":"1.0","epoch":"SCREENING"},{"seq":"5","testcd":"RESP","test":"Respiratory Rate","cat":null,"orres":"24.0","orresu":"breaths/min","stresc":"24.0","stresn":"24.0","stresu":"breaths/min","stnrlo":null,"stnrhi":null,"nrind":null,"pos":null,"loc":null,"dtc":"2024-01-16","dy":"-52","visit":"SCREENING","visitnum":"1.0","epoch":"SCREENING"},{"seq":"6","testcd":"SYSBP","test":"Systolic Blood Pressure","cat":null,"orres":"105.3","orresu":"mmHg","stresc":"105.3","stresn":"105.3","stresu":"mmHg","stnrlo":null,"stnrhi":null,"nrind":null,"pos":null,"loc":null,"dtc":"2024-01-16","dy":"-52","visit":"SCREENING","visitnum":"1.0","epoch":"SCREENING"},{"seq":"7","testcd":"TEMP","test":"Temperature","cat":null,"orres":"37.7","orresu":"C","stresc":"37.7","stresn":"37.7","stresu":"C","stnrlo":null,"stnrhi":null,"nrind":null,"pos":null,"loc":null,"dtc":"2024-01-16","dy":"-52","visit":"SCREENING","visitnum":"1.0","epoch":"SCREENING"},{"seq":"8","testcd":"WEIGHT","test":"Weight","cat":null,"orres":"82.8","orresu":"kg","stresc":"82.8","stresn":"82.8","stresu":"kg","stnrlo":null,"stnrhi":null,"nrind":null,"pos":null,"loc":null,"dtc":"2024-01-16","dy":"-52","visit":"SCREENING","visitnum":"1.0","epoch":"SCREENING"},{"seq":"9","testcd":"BMI","test":"BMI","cat":null,"orres":"37.1","orresu":"kg/m2","stresc":"37.1","stresn":"37.1","stresu":"kg/m2","stnrlo":null,"stnrhi":null,"nrind":null,"pos":null,"loc":null,"dtc":"2024-03-08","dy":"1","visit":"DOSING DAY","visitnum":"2.0","epoch":"TREATMENT"},{"seq":"10","testcd":"DIABP","test":"Diastolic Blood Pressure","cat":null,"orres":"77.8","orresu":"mmHg","stresc":"77.8","stresn":"77.8","stresu":"mmHg","stnrlo":null,"stnrhi":null,"nrind":null,"pos":null,"loc":null,"dtc":"2024-03-08","dy":"1","visit":"DOSING DAY","visitnum":"2.0","epoch":"TREATMENT"},{"seq":"11","testcd":"HEIGHT","test":"Height","cat":null,"orres":"151.2","orresu":"cm","stresc":"151.2","stresn":"151.2","stresu":"cm","stnrlo":null,"stnrhi":null,"nrind":null,"pos":null,"loc":null,"dtc":"2024-03-08","dy":"1","visit":"DOSING DAY","visitnum":"2.0","epoch":"TREATMENT"},{"seq":"12","testcd":"PULSE","test":"Pulse Rate","cat":null,"orres":"58.7","orresu":"beats/min","stresc":"58.7","stresn":"58.7","stresu":"beats/min","stnrlo":null,"stnrhi":null,"nrind":null,"pos":null,"loc":null,"dtc":"2024-03-08","dy":"1","visit":"DOSING DAY","visitnum":"2.0","epoch":"TREATMENT"},{"seq":"13","testcd":"RESP","test":"Respiratory Rate","cat":null,"orres":"22.7","orresu":"breaths/min","stresc":"22.7","stresn":"22.7","stresu":"breaths/min","stnrlo":null,"stnrhi":null,"nrind":null,"pos":null,"loc":null,"dtc":"2024-03-08","dy":"1","visit":"DOSING DAY","visitnum":"2.0","epoch":"TREATMENT"},{"seq":"14","testcd":"SYSBP","test":"Systolic Blood Pressure","cat":null,"orres":"103.1","orresu":"mmHg","stresc":"103.1","stresn":"103.1","stresu":"mmHg","stnrlo":null,"stnrhi":null,"nrind":null,"pos":null,"loc":null,"dtc":"2024-03-08","dy":"1","visit":"DOSING DAY","visitnum":"2.0","epoch":"TREATMENT"},{"seq":"15","testcd":"TEMP","test":"Temperature","cat":null,"orres":"37.4","orresu":"C","stresc":"37.4","stresn":"37.4","stresu":"C","stnrlo":null,"stnrhi":null,"nrind":null,"pos":null,"loc":null,"dtc":"2024-03-08","dy":"1","visit":"DOSING DAY","visitnum":"2.0","epoch":"TREATMENT"},{"seq":"16","testcd":"WEIGHT","test":"Weight","cat":null,"orres":"84.8","orresu":"kg","stresc":"84.8","stresn":"84.8","stresu":"kg","stnrlo":null,"stnrhi":null,"nrind":null,"pos":null,"loc":null,"dtc":"2024-03-08","dy":"1","visit":"DOSING DAY","visitnum":"2.0","epoch":"TREATMENT"},{"seq":"17","testcd":"BMI","test":"BMI","cat":null,"orres":"37.2","orresu":"kg/m2","stresc":"37.2","stresn":"37.2","stresu":"kg/m2","stnrlo":null,"stnrhi":null,"nrind":null,"pos":null,"loc":null,"dtc":"2024-03-09","dy":"2","visit":"DAY 2","visitnum":"3.0","epoch":"FOLLOW-UP"},{"seq":"18","testcd":"DIABP","test":"Diastolic Blood Pressure","cat":null,"orres":"76.6","orresu":"mmHg","stresc":"76.6","stresn":"76.6","stresu":"mmHg","stnrlo":null,"stnrhi":null,"nrind":null,"pos":null,"loc":null,"dtc":"2024-03-09","dy":"2","visit":"DAY 2","visitnum":"3.0","epoch":"FOLLOW-UP"},{"seq":"19","testcd":"HEIGHT","test":"Height","cat":null,"orres":"150.9","orresu":"cm","stresc":"150.9","stresn":"150.9","stresu":"cm","stnrlo":null,"stnrhi":null,"nrind":null,"pos":null,"loc":null,"dtc":"2024-03-09","dy":"2","visit":"DAY 2","visitnum":"3.0","epoch":"FOLLOW-UP"},{"seq":"20","testcd":"PULSE","test":"Pulse Rate","cat":null,"orres":"62.8","orresu":"beats/min","stresc":"62.8","stresn":"62.8","stresu":"beats/min","stnrlo":null,"stnrhi":null,"nrind":null,"pos":null,"loc":null,"dtc":"2024-03-09","dy":"2","visit":"DAY 2","visitnum":"3.0","epoch":"FOLLOW-UP"},{"seq":"21","testcd":"RESP","test":"Respiratory Rate","cat":null,"orres":"21.1","orresu":"breaths/min","stresc":"21.1","stresn":"21.1","stresu":"breaths/min","stnrlo":null,"stnrhi":null,"nrind":null,"pos":null,"loc":null,"dtc":"2024-03-09","dy":"2","visit":"DAY 2","visitnum":"3.0","epoch":"FOLLOW-UP"},{"seq":"22","testcd":"SYSBP","test":"Systolic Blood Pressure","cat":null,"orres":"102.3","orresu":"mmHg","stresc":"102.3","stresn":"102.3","stresu":"mmHg","stnrlo":null,"stnrhi":null,"nrind":null,"pos":null,"loc":null,"dtc":"2024-03-09","dy":"2","visit":"DAY 2","visitnum":"3.0","epoch":"FOLLOW-UP"},{"seq":"23","testcd":"TEMP","test":"Temperature","cat":null,"orres":"37.3","orresu":"C","stresc":"37.3","stresn":"37.3","stresu":"C","stnrlo":null,"stnrhi":null,"nrind":null,"pos":null,"loc":null,"dtc":"2024-03-09","dy":"2","visit":"DAY 2","visitnum":"3.0","epoch":"FOLLOW-UP"},{"seq":"24","testcd":"WEIGHT","test":"Weight","cat":null,"orres":"84.8","orresu":"kg","stresc":"84.8","stresn":"84.8","stresu":"kg","stnrlo":null,"stnrhi":null,"nrind":null,"pos":null,"loc":null,"dtc":"2024-03-09","dy":"2","visit":"DAY 2","visitnum":"3.0","epoch":"FOLLOW-UP"},{"seq":"25","testcd":"BMI","test":"BMI","cat":null,"orres":"39.0","orresu":"kg/m2","stresc":"39.0","stresn":"39.0","stresu":"kg/m2","stnrlo":null,"stnrhi":null,"nrind":null,"pos":null,"loc":null,"dtc":"2024-03-16","dy":"9","visit":"WEEK 1","visitnum":"4.0","epoch":"FOLLOW-UP"},{"seq":"26","testcd":"DIABP","test":"Diastolic Blood Pressure","cat":null,"orres":"75.6","orresu":"mmHg","stresc":"75.6","stresn":"75.6","stresu":"mmHg","stnrlo":null,"stnrhi":null,"nrind":null,"pos":null,"loc":null,"dtc":"2024-03-16","dy":"9","visit":"WEEK 1","visitnum":"4.0","epoch":"FOLLOW-UP"},{"seq":"27","testcd":"HEIGHT","test":"Height","cat":null,"orres":"150.3","orresu":"cm","stresc":"150.3","stresn":"150.3","stresu":"cm","stnrlo":null,"stnrhi":null,"nrind":null,"pos":null,"loc":null,"dtc":"2024-03-16","dy":"9","visit":"WEEK 1","visitnum":"4.0","epoch":"FOLLOW-UP"},{"seq":"28","testcd":"PULSE","test":"Pulse Rate","cat":null,"orres":"63.8","orresu":"beats/min","stresc":"63.8","stresn":"63.8","stresu":"beats/min","stnrlo":null,"stnrhi":null,"nrind":null,"pos":null,"loc":null,"dtc":"2024-03-16","dy":"9","visit":"WEEK 1","visitnum":"4.0","epoch":"FOLLOW-UP"},{"seq":"29","testcd":"RESP","test":"Respiratory Rate","cat":null,"orres":"23.2","orresu":"breaths/min","stresc":"23.2","stresn":"23.2","stresu":"breaths/min","stnrlo":null,"stnrhi":null,"nrind":null,"pos":null,"loc":null,"dtc":"2024-03-16","dy":"9","visit":"WEEK 1","visitnum":"4.0","epoch":"FOLLOW-UP"},{"seq":"30","testcd":"SYSBP","test":"Systolic Blood Pressure","cat":null,"orres":"99.5","orresu":"mmHg","stresc":"99.5","stresn":"99.5","stresu":"mmHg","stnrlo":null,"stnrhi":null,"nrind":null,"pos":null,"loc":null,"dtc":"2024-03-16","dy":"9","visit":"WEEK 1","visitnum":"4.0","epoch":"FOLLOW-UP"},{"seq":"31","testcd":"TEMP","test":"Temperature","cat":null,"orres":"37.2","orresu":"C","stresc":"37.2","stresn":"37.2","stresu":"C","stnrlo":null,"stnrhi":null,"nrind":null,"pos":null,"loc":null,"dtc":"2024-03-16","dy":"9","visit":"WEEK 1","visitnum":"4.0","epoch":"FOLLOW-UP"},{"seq":"32","testcd":"WEIGHT","test":"Weight","cat":null,"orres":"88.2","orresu":"kg","stresc":"88.2","stresn":"88.2","stresu":"kg","stnrlo":null,"stnrhi":null,"nrind":null,"pos":null,"loc":null,"dtc":"2024-03-16","dy":"9","visit":"WEEK 1","visitnum":"4.0","epoch":"FOLLOW-UP"},{"seq":"33","testcd":"BMI","test":"BMI","cat":null,"orres":"37.7","orresu":"kg/m2","stresc":"37.7","stresn":"37.7","stresu":"kg/m2","stnrlo":null,"stnrhi":null,"nrind":null,"pos":null,"loc":null,"dtc":"2024-03-26","dy":"19","visit":"WEEK 3","visitnum":"5.0","epoch":"FOLLOW-UP"},{"seq":"34","testcd":"DIABP","test":"Diastolic Blood Pressure","cat":null,"orres":"74.6","orresu":"mmHg","stresc":"74.6","stresn":"74.6","stresu":"mmHg","stnrlo":null,"stnrhi":null,"nrind":null,"pos":null,"loc":null,"dtc":"2024-03-26","dy":"19","visit":"WEEK 3","visitnum":"5.0","epoch":"FOLLOW-UP"},{"seq":"35","testcd":"HEIGHT","test":"Height","cat":null,"orres":"150.5","orresu":"cm","stresc":"150.5","stresn":"150.5","stresu":"cm","stnrlo":null,"stnrhi":null,"nrind":null,"pos":null,"loc":null,"dtc":"2024-03-26","dy":"19","visit":"WEEK 3","visitnum":"5.0","epoch":"FOLLOW-UP"},{"seq":"36","testcd":"PULSE","test":"Pulse Rate","cat":null,"orres":"65.3","orresu":"beats/min","stresc":"65.3","stresn":"65.3","stresu":"beats/min","stnrlo":null,"stnrhi":null,"nrind":null,"pos":null,"loc":null,"dtc":"2024-03-26","dy":"19","visit":"WEEK 3","visitnum":"5.0","epoch":"FOLLOW-UP"},{"seq":"37","testcd":"RESP","test":"Respiratory Rate","cat":null,"orres":"21.2","orresu":"breaths/min","stresc":"21.2","stresn":"21.2","stresu":"breaths/min","stnrlo":null,"stnrhi":null,"nrind":null,"pos":null,"loc":null,"dtc":"2024-03-26","dy":"19","visit":"WEEK 3","visitnum":"5.0","epoch":"FOLLOW-UP"},{"seq":"38","testcd":"SYSBP","test":"Systolic Blood Pressure","cat":null,"orres":"99.2","orresu":"mmHg","stresc":"99.2","stresn":"99.2","stresu":"mmHg","stnrlo":null,"stnrhi":null,"nrind":null,"pos":null,"loc":null,"dtc":"2024-03-26","dy":"19","visit":"WEEK 3","visitnum":"5.0","epoch":"FOLLOW-UP"},{"seq":"39","testcd":"TEMP","test":"Temperature","cat":null,"orres":"37.3","orresu":"C","stresc":"37.3","stresn":"37.3","stresu":"C","stnrlo":null,"stnrhi":null,"nrind":null,"pos":null,"loc":null,"dtc":"2024-03-26","dy":"19","visit":"WEEK 3","visitnum":"5.0","epoch":"FOLLOW-UP"},{"seq":"40","testcd":"WEIGHT","test":"Weight","cat":null,"orres":"85.5","orresu":"kg","stresc":"85.5","stresn":"85.5","stresu":"kg","stnrlo":null,"stnrhi":null,"nrind":null,"pos":null,"loc":null,"dtc":"2024-03-26","dy":"19","visit":"WEEK 3","visitnum":"5.0","epoch":"FOLLOW-UP"}]},"section_10_questionnaires_and_scores":{"questionnaires":[{"seq":"1","testcd":"MADRS01","test":"Apparent Sadness","cat":"MADRS","scat":null,"orres":"2","stresc":"2","stresn":"2.0","dtc":"2024-02-27","dy":"-10","visit":"SCREENING","visitnum":"1.0"},{"seq":"2","testcd":"MADRS02","test":"Reported Sadness","cat":"MADRS","scat":null,"orres":"2","stresc":"2","stresn":"2.0","dtc":"2024-02-27","dy":"-10","visit":"SCREENING","visitnum":"1.0"},{"seq":"3","testcd":"MADRS03","test":"Inner Tension","cat":"MADRS","scat":null,"orres":"1","stresc":"1","stresn":"1.0","dtc":"2024-02-27","dy":"-10","visit":"SCREENING","visitnum":"1.0"},{"seq":"4","testcd":"MADRS04","test":"Reduced Sleep","cat":"MADRS","scat":null,"orres":"2","stresc":"2","stresn":"2.0","dtc":"2024-02-27","dy":"-10","visit":"SCREENING","visitnum":"1.0"},{"seq":"5","testcd":"MADRS05","test":"Reduced Appetite","cat":"MADRS","scat":null,"orres":"1","stresc":"1","stresn":"1.0","dtc":"2024-02-27","dy":"-10","visit":"SCREENING","visitnum":"1.0"},{"seq":"6","testcd":"MADRS06","test":"Concentration Difficulties","cat":"MADRS","scat":null,"orres":"1","stresc":"1","stresn":"1.0","dtc":"2024-02-27","dy":"-10","visit":"SCREENING","visitnum":"1.0"},{"seq":"7","testcd":"MADRS07","test":"Lassitude","cat":"MADRS","scat":null,"orres":"2","stresc":"2","stresn":"2.0","dtc":"2024-02-27","dy":"-10","visit":"SCREENING","visitnum":"1.0"},{"seq":"8","testcd":"MADRS08","test":"Inability to Feel","cat":"MADRS","scat":null,"orres":"1","stresc":"1","stresn":"1.0","dtc":"2024-02-27","dy":"-10","visit":"SCREENING","visitnum":"1.0"},{"seq":"9","testcd":"MADRS09","test":"Pessimistic Thoughts","cat":"MADRS","scat":null,"orres":"2","stresc":"2","stresn":"2.0","dtc":"2024-02-27","dy":"-10","visit":"SCREENING","visitnum":"1.0"},{"seq":"10","testcd":"MADRS10","test":"Suicidal Thoughts","cat":"MADRS","scat":null,"orres":"2","stresc":"2","stresn":"2.0","dtc":"2024-02-27","dy":"-10","visit":"SCREENING","visitnum":"1.0"},{"seq":"11","testcd":"MADRSTOT","test":"MADRS Total Score","cat":"MADRS","scat":"TOTAL","orres":"16.0","stresc":"16.0","stresn":"16.0","dtc":"2024-02-27","dy":"-10","visit":"SCREENING","visitnum":"1.0"},{"seq":"12","testcd":"MADRS01","test":"Apparent Sadness","cat":"MADRS","scat":null,"orres":"3","stresc":"3","stresn":"3.0","dtc":"2024-03-08","dy":"1","visit":"DOSING DAY","visitnum":"2.0"},{"seq":"13","testcd":"MADRS02","test":"Reported Sadness","cat":"MADRS","scat":null,"orres":"2","stresc":"2","stresn":"2.0","dtc":"2024-03-08","dy":"1","visit":"DOSING DAY","visitnum":"2.0"},{"seq":"14","testcd":"MADRS03","test":"Inner Tension","cat":"MADRS","scat":null,"orres":"3","stresc":"3","stresn":"3.0","dtc":"2024-03-08","dy":"1","visit":"DOSING DAY","visitnum":"2.0"},{"seq":"15","testcd":"MADRS04","test":"Reduced Sleep","cat":"MADRS","scat":null,"orres":"2","stresc":"2","stresn":"2.0","dtc":"2024-03-08","dy":"1","visit":"DOSING DAY","visitnum":"2.0"},{"seq":"16","testcd":"MADRS05","test":"Reduced Appetite","cat":"MADRS","scat":null,"orres":"3","stresc":"3","stresn":"3.0","dtc":"2024-03-08","dy":"1","visit":"DOSING DAY","visitnum":"2.0"},{"seq":"17","testcd":"MADRS06","test":"Concentration Difficulties","cat":"MADRS","scat":null,"orres":"1","stresc":"1","stresn":"1.0","dtc":"2024-03-08","dy":"1","visit":"DOSING DAY","visitnum":"2.0"},{"seq":"18","testcd":"MADRS07","test":"Lassitude","cat":"MADRS","scat":null,"orres":"3","stresc":"3","stresn":"3.0","dtc":"2024-03-08","dy":"1","visit":"DOSING DAY","visitnum":"2.0"},{"seq":"19","testcd":"MADRS08","test":"Inability to Feel","cat":"MADRS","scat":null,"orres":"3","stresc":"3","stresn":"3.0","dtc":"2024-03-08","dy":"1","visit":"DOSING DAY","visitnum":"2.0"},{"seq":"20","testcd":"MADRS09","test":"Pessimistic Thoughts","cat":"MADRS","scat":null,"orres":"1","stresc":"1","stresn":"1.0","dtc":"2024-03-08","dy":"1","visit":"DOSING DAY","visitnum":"2.0"},{"seq":"21","testcd":"MADRS10","test":"Suicidal Thoughts","cat":"MADRS","scat":null,"orres":"1","stresc":"1","stresn":"1.0","dtc":"2024-03-08","dy":"1","visit":"DOSING DAY","visitnum":"2.0"},{"seq":"22","testcd":"MADRSTOT","test":"MADRS Total Score","cat":"MADRS","scat":"TOTAL","orres":"22.0","stresc":"22.0","stresn":"22.0","dtc":"2024-03-08","dy":"1","visit":"DOSING DAY","visitnum":"2.0"}],"findings_about":[]},"section_11_protocol_deviations":{"deviations":[{"seq":"1","term":"Missed PSILOCYBIN dose on 2024-03-31","decod":"MISSED DOSE","cat":"MINOR","scat":"DOSING","start_dtc":"2024-03-31","end_dtc":null,"visit":null},{"seq":"2","term":"Missed PSILOCYBIN dose on 2024-05-05","decod":"MISSED DOSE","cat":"MINOR","scat":"DOSING","start_dtc":"2024-05-05","end_dtc":null,"visit":null}],"total":2},"section_12_disposition":{"completion_status":"COMPLETED","disposition_records":[{"seq":"1","term":"INFORMED CONSENT OBTAINED","decod":"INFORMED CONSENT OBTAINED","cat":"PROTOCOL MILESTONE","scat":null,"dtc":"2024-02-27","dy":null,"visit":null,"epoch":"SCREENING"},{"seq":"2","term":"RANDOMIZED","decod":"RANDOMIZED","cat":"PROTOCOL MILESTONE","scat":null,"dtc":"2024-03-08","dy":null,"visit":null,"epoch":"TREATMENT"},{"seq":"3","term":"COMPLETED","decod":"COMPLETED","cat":"DISPOSITION EVENT","scat":null,"dtc":"2024-06-29","dy":null,"visit":null,"epoch":"FOLLOW-UP"}],"death":null},"section_13_hospitalizations":{"items":[],"total":0},"section_14_substance_use":{"items":[{"seq":"1","substance":"ALCOHOL","decod":"ALCOHOL","cat":"ALCOHOL","scat":null,"usage":"Y","dose":"12.0","dosu":"DRINKS/WEEK","freq":"QW","start_dtc":"2002-03-04","end_dtc":null},{"seq":"2","substance":"COFFEE","decod":"COFFEE","cat":"CAFFEINE","scat":null,"usage":"Y","dose":"1.0","dosu":"CUPS/DAY","freq":"QD","start_dtc":"2007-03-03","end_dtc":null},{"seq":"3","substance":"CIGARETTES","decod":"CIGARETTES","cat":"TOBACCO","scat":"CIGARETTES","usage":"N","dose":null,"dosu":null,"freq":null,"start_dtc":null,"end_dtc":null}],"total":3},"section_15_subject_status":{"items":[{"seq":"1","testcd":"SURVSTAT","test":"Survival Status","orres":"ALIVE","stresc":"ALIVE","dtc":"2024-06-29","visit":"END OF STUDY","epoch":"FOLLOW-UP"}],"total":1}}