{"subject_id":"TERPSIS-MDD-201-SITE001-0046","study_id":"TERPSIS-MDD-201","generated_at":"2026-06-16T11:15:08.834276+00:00","sdtmig_version":"3.4","flags":{"has_serious_ae":true,"has_fatal_ae":false,"has_protocol_deviation":true,"n_protocol_deviations":2,"n_adverse_events":3,"n_concomitant_meds":2,"max_ae_severity":"SEVERE","screen_failure":false,"discontinued_early":false,"discontinuation_reason":null,"death":false,"exposure_days":66},"timeline":[{"dtc":"2024-02-29","dy":"-44","event":"VISIT: SCREENING","domain":"SV","category":"visit"},{"dtc":"2024-03-25","dy":"-19","event":"INFORMED CONSENT OBTAINED","domain":"DS","category":"milestone"},{"dtc":"2024-04-13","dy":"1","event":"RANDOMIZED","domain":"DS","category":"milestone"},{"dtc":"2024-04-13","dy":"1","event":"FIRST DOSE: PSILOCYBIN","domain":"EX","category":"exposure"},{"dtc":"2024-04-13","dy":"1","event":"VISIT: DOSING DAY","domain":"SV","category":"visit"},{"dtc":"2024-04-14","dy":"2","event":"VISIT: DAY 2","domain":"SV","category":"visit"},{"dtc":"2024-04-19","dy":"7","event":"DEVIATION: VISIT OCCURRED OUTSIDE VISIT WINDOW","domain":"DV","category":"deviation"},{"dtc":"2024-04-19","dy":"7","event":"VISIT: WEEK 1","domain":"SV","category":"visit"},{"dtc":"2024-04-20","dy":"8","event":"AE: Nasopharyngitis (MILD)","domain":"AE","category":"adverse_event"},{"dtc":"2024-04-20","dy":"8","event":"DEVIATION: MISSED DOSE","domain":"DV","category":"deviation"},{"dtc":"2024-05-03","dy":"21","event":"VISIT: WEEK 3","domain":"SV","category":"visit"},{"dtc":"2024-05-05","dy":"23","event":"AE: Anxiety (SEVERE) [SERIOUS]","domain":"AE","category":"adverse_event"},{"dtc":"2024-05-05","dy":"23","event":"CM START: LORAZEPAM","domain":"CM","category":"concomitant_med"},{"dtc":"2024-05-23","dy":"41","event":"VISIT: WEEK 6","domain":"SV","category":"visit"},{"dtc":"2024-06-06","dy":"55","event":"AE: Fatigue (MODERATE)","domain":"AE","category":"adverse_event"},{"dtc":"2024-07-07","dy":"86","event":"VISIT: WEEK 12","domain":"SV","category":"visit"},{"dtc":"2024-08-02","dy":"112","event":"CM START: IBUPROFEN","domain":"CM","category":"concomitant_med"},{"dtc":"2024-08-04","dy":"114","event":"COMPLETED","domain":"DS","category":"milestone"}],"section_1_demographics":{"usubjid":"TERPSIS-MDD-201-SITE001-0046","subjid":"0046","siteid":"SITE001","age":"58","ageu":"YEARS","sex":"M","race":"WHITE","ethnicity":"NOT HISPANIC OR LATINO","country":"USA","arm":"Psilocybin 10mg","armcd":"PSI10","actarm":"Psilocybin 10mg","actarmcd":"PSI10","randomization_date":null,"informed_consent_date":"2024-03-25","reference_start_date":"2024-04-13","reference_end_date":"2024-08-04","screen_failure":false,"death_flag":null,"death_date":null,"subject_characteristics":[{"testcd":"ALCUSE","test":"Alcohol Use","orres":"NON-DRINKER","stresc":"NON-DRINKER","visit":null,"dtc":"2024-03-25"},{"testcd":"BMI","test":"Body Mass Index","orres":"19.7","stresc":"19.7","visit":null,"dtc":"2024-03-25"},{"testcd":"DURDIS","test":"Duration of Disease","orres":"24 months","stresc":"24","visit":null,"dtc":"2024-03-25"},{"testcd":"TOBPKYR","test":"Tobacco Pack-Years","orres":"23","stresc":"23","visit":null,"dtc":"2024-03-25"},{"testcd":"TOBUSE","test":"Tobacco Use","orres":"FORMER SMOKER","stresc":"FORMER SMOKER","visit":null,"dtc":"2024-03-25"}]},"section_2_medical_history":{"items":[{"seq":"1","term":"ASTHMA","decod":"ASTHMA","cat":"RESPIRATORY","scat":null,"presp":null,"occur":null,"status":null,"onset_dtc":"2022-03","end_dtc":"2023-11-23","visit":null}]},"section_3_inclusion_exclusion":{"criteria":[]},"section_4_trial_participation":{"visits":[{"visitnum":"1.0","visit":"SCREENING","start_dtc":"2024-02-29","end_dtc":"2024-02-29","updes":null},{"visitnum":"2.0","visit":"DOSING DAY","start_dtc":"2024-04-13","end_dtc":"2024-04-13","updes":null},{"visitnum":"3.0","visit":"DAY 2","start_dtc":"2024-04-14","end_dtc":"2024-04-14","updes":null},{"visitnum":"4.0","visit":"WEEK 1","start_dtc":"2024-04-19","end_dtc":"2024-04-19","updes":null},{"visitnum":"5.0","visit":"WEEK 3","start_dtc":"2024-05-03","end_dtc":"2024-05-03","updes":null},{"visitnum":"6.0","visit":"WEEK 6","start_dtc":"2024-05-23","end_dtc":"2024-05-23","updes":null},{"visitnum":"7.0","visit":"WEEK 12","start_dtc":"2024-07-07","end_dtc":"2024-07-07","updes":null}],"epochs":[{"seq":"1","etcd":"SCRN","element":"Screening","start_dtc":"2024-03-16","end_dtc":"2024-04-13","updes":null},{"seq":"2","etcd":"TRT","element":"Treatment/Observation","start_dtc":"2024-04-13","end_dtc":"2024-07-07","updes":null},{"seq":"3","etcd":"FU","element":"Follow-up","start_dtc":"2024-07-07","end_dtc":"2024-07-07","updes":null}],"visit_count":7},"section_5_concomitant_medications":{"medications":[{"seq":"1","trt":"LORAZEPAM","decod":"LORAZEPAM","cat":"CONCOMITANT","dose":"0.5","doseu":null,"dosef":"PRN","route":"ORAL","indication":"ANXIETY","start_dtc":"2024-05-05","end_dtc":"2024-05-18","ongoing":null,"visit":null},{"seq":"2","trt":"IBUPROFEN","decod":"IBUPROFEN","cat":"CONCOMITANT","dose":null,"doseu":null,"dosef":"PRN","route":"ORAL","indication":null,"start_dtc":"2024-08-02","end_dtc":"2024-08-04","ongoing":null,"visit":null}]},"section_6_exposure":{"exposure_as_administered":[{"seq":"1","trt":"PSILOCYBIN","dose":"10.0","doseu":null,"dosef":"ONCE","route":"ORAL","lot":null,"start_dtc":"2024-04-13","end_dtc":"2024-06-18","start_dy":"1","end_dy":"67","epoch":"TREATMENT","visit":null}],"exposure_as_collected":[{"seq":"1","trt":"PSILOCYBIN","dose":"10.0","doseu":null,"dosef":"ONCE","route":"ORAL","start_dtc":"2024-04-13","end_dtc":"2024-04-13","visit":"DOSING DAY"},{"seq":"2","trt":"PSILOCYBIN","dose":"10.0","doseu":null,"dosef":"ONCE","route":"ORAL","start_dtc":"2024-04-14","end_dtc":"2024-04-14","visit":"DOSING DAY"},{"seq":"3","trt":"PSILOCYBIN","dose":"10.0","doseu":null,"dosef":"ONCE","route":"ORAL","start_dtc":"2024-04-15","end_dtc":"2024-04-15","visit":"DOSING DAY"},{"seq":"4","trt":"PSILOCYBIN","dose":"10.0","doseu":null,"dosef":"ONCE","route":"ORAL","start_dtc":"2024-04-16","end_dtc":"2024-04-16","visit":"DOSING DAY"},{"seq":"5","trt":"PSILOCYBIN","dose":"10.0","doseu":null,"dosef":"ONCE","route":"ORAL","start_dtc":"2024-04-17","end_dtc":"2024-04-17","visit":"DAY 2"},{"seq":"6","trt":"PSILOCYBIN","dose":"10.0","doseu":null,"dosef":"ONCE","route":"ORAL","start_dtc":"2024-04-18","end_dtc":"2024-04-18","visit":"WEEK 1"},{"seq":"7","trt":"PSILOCYBIN","dose":"10.0","doseu":null,"dosef":"ONCE","route":"ORAL","start_dtc":"2024-04-19","end_dtc":"2024-04-19","visit":"WEEK 1"},{"seq":"8","trt":"PSILOCYBIN","dose":null,"doseu":null,"dosef":"ONCE","route":"ORAL","start_dtc":"2024-04-20","end_dtc":"2024-04-20","visit":"WEEK 1"},{"seq":"9","trt":"PSILOCYBIN","dose":"10.0","doseu":null,"dosef":"ONCE","route":"ORAL","start_dtc":"2024-04-21","end_dtc":"2024-04-21","visit":"WEEK 1"},{"seq":"10","trt":"PSILOCYBIN","dose":"10.0","doseu":null,"dosef":"ONCE","route":"ORAL","start_dtc":"2024-04-22","end_dtc":"2024-04-22","visit":"WEEK 1"},{"seq":"11","trt":"PSILOCYBIN","dose":"10.0","doseu":null,"dosef":"ONCE","route":"ORAL","start_dtc":"2024-04-23","end_dtc":"2024-04-23","visit":"WEEK 1"},{"seq":"12","trt":"PSILOCYBIN","dose":"10.0","doseu":null,"dosef":"ONCE","route":"ORAL","start_dtc":"2024-04-24","end_dtc":"2024-04-24","visit":null},{"seq":"13","trt":"PSILOCYBIN","dose":"10.0","doseu":null,"dosef":"ONCE","route":"ORAL","start_dtc":"2024-04-25","end_dtc":"2024-04-25","visit":null},{"seq":"14","trt":"PSILOCYBIN","dose":"10.0","doseu":null,"dosef":"ONCE","route":"ORAL","start_dtc":"2024-04-26","end_dtc":"2024-04-26","visit":null},{"seq":"15","trt":"PSILOCYBIN","dose":"10.0","doseu":null,"dosef":"ONCE","route":"ORAL","start_dtc":"2024-04-27","end_dtc":"2024-04-27","visit":null},{"seq":"16","trt":"PSILOCYBIN","dose":"10.0","doseu":null,"dosef":"ONCE","route":"ORAL","start_dtc":"2024-04-28","end_dtc":"2024-04-28","visit":null},{"seq":"17","trt":"PSILOCYBIN","dose":"10.0","doseu":null,"dosef":"ONCE","route":"ORAL","start_dtc":"2024-04-29","end_dtc":"2024-04-29","visit":null},{"seq":"18","trt":"PSILOCYBIN","dose":"10.0","doseu":null,"dosef":"ONCE","route":"ORAL","start_dtc":"2024-04-30","end_dtc":"2024-04-30","visit":null},{"seq":"19","trt":"PSILOCYBIN","dose":"10.0","doseu":null,"dosef":"ONCE","route":"ORAL","start_dtc":"2024-05-01","end_dtc":"2024-05-01","visit":"WEEK 3"},{"seq":"20","trt":"PSILOCYBIN","dose":"10.0","doseu":null,"dosef":"ONCE","route":"ORAL","start_dtc":"2024-05-02","end_dtc":"2024-05-02","visit":"WEEK 3"},{"seq":"21","trt":"PSILOCYBIN","dose":"10.0","doseu":null,"dosef":"ONCE","route":"ORAL","start_dtc":"2024-05-03","end_dtc":"2024-05-03","visit":"WEEK 3"},{"seq":"22","trt":"PSILOCYBIN","dose":"10.0","doseu":null,"dosef":"ONCE","route":"ORAL","start_dtc":"2024-05-04","end_dtc":"2024-05-04","visit":"WEEK 3"},{"seq":"23","trt":"PSILOCYBIN","dose":"10.0","doseu":null,"dosef":"ONCE","route":"ORAL","start_dtc":"2024-05-05","end_dtc":"2024-05-05","visit":"WEEK 3"},{"seq":"24","trt":"PSILOCYBIN","dose":"10.0","doseu":null,"dosef":"ONCE","route":"ORAL","start_dtc":"2024-05-06","end_dtc":"2024-05-06","visit":"WEEK 3"},{"seq":"25","trt":"PSILOCYBIN","dose":"10.0","doseu":null,"dosef":"ONCE","route":"ORAL","start_dtc":"2024-05-07","end_dtc":"2024-05-07","visit":"WEEK 3"},{"seq":"26","trt":"PSILOCYBIN","dose":"10.0","doseu":null,"dosef":"ONCE","route":"ORAL","start_dtc":"2024-05-08","end_dtc":"2024-05-08","visit":null},{"seq":"27","trt":"PSILOCYBIN","dose":"10.0","doseu":null,"dosef":"ONCE","route":"ORAL","start_dtc":"2024-05-09","end_dtc":"2024-05-09","visit":null},{"seq":"28","trt":"PSILOCYBIN","dose":"10.0","doseu":null,"dosef":"ONCE","route":"ORAL","start_dtc":"2024-05-10","end_dtc":"2024-05-10","visit":null},{"seq":"29","trt":"PSILOCYBIN","dose":"10.0","doseu":null,"dosef":"ONCE","route":"ORAL","start_dtc":"2024-05-11","end_dtc":"2024-05-11","visit":null},{"seq":"30","trt":"PSILOCYBIN","dose":"10.0","doseu":null,"dosef":"ONCE","route":"ORAL","start_dtc":"2024-05-12","end_dtc":"2024-05-12","visit":null},{"seq":"31","trt":"PSILOCYBIN","dose":"10.0","doseu":null,"dosef":"ONCE","route":"ORAL","start_dtc":"2024-05-13","end_dtc":"2024-05-13","visit":null},{"seq":"32","trt":"PSILOCYBIN","dose":"10.0","doseu":null,"dosef":"ONCE","route":"ORAL","start_dtc":"2024-05-14","end_dtc":"2024-05-14","visit":null},{"seq":"33","trt":"PSILOCYBIN","dose":"10.0","doseu":null,"dosef":"ONCE","route":"ORAL","start_dtc":"2024-05-15","end_dtc":"2024-05-15","visit":null},{"seq":"34","trt":"PSILOCYBIN","dose":"10.0","doseu":null,"dosef":"ONCE","route":"ORAL","start_dtc":"2024-05-16","end_dtc":"2024-05-16","visit":null},{"seq":"35","trt":"PSILOCYBIN","dose":"10.0","doseu":null,"dosef":"ONCE","route":"ORAL","start_dtc":"2024-05-17","end_dtc":"2024-05-17","visit":null},{"seq":"36","trt":"PSILOCYBIN","dose":"10.0","doseu":null,"dosef":"ONCE","route":"ORAL","start_dtc":"2024-05-18","end_dtc":"2024-05-18","visit":null},{"seq":"37","trt":"PSILOCYBIN","dose":"10.0","doseu":null,"dosef":"ONCE","route":"ORAL","start_dtc":"2024-05-19","end_dtc":"2024-05-19","visit":null},{"seq":"38","trt":"PSILOCYBIN","dose":"10.0","doseu":null,"dosef":"ONCE","route":"ORAL","start_dtc":"2024-05-20","end_dtc":"2024-05-20","visit":null},{"seq":"39","trt":"PSILOCYBIN","dose":"10.0","doseu":null,"dosef":"ONCE","route":"ORAL","start_dtc":"2024-05-21","end_dtc":"2024-05-21","visit":null},{"seq":"40","trt":"PSILOCYBIN","dose":"10.0","doseu":null,"dosef":"ONCE","route":"ORAL","start_dtc":"2024-05-22","end_dtc":"2024-05-22","visit":"WEEK 6"},{"seq":"41","trt":"PSILOCYBIN","dose":"10.0","doseu":null,"dosef":"ONCE","route":"ORAL","start_dtc":"2024-05-23","end_dtc":"2024-05-23","visit":"WEEK 6"},{"seq":"42","trt":"PSILOCYBIN","dose":"10.0","doseu":null,"dosef":"ONCE","route":"ORAL","start_dtc":"2024-05-24","end_dtc":"2024-05-24","visit":"WEEK 6"},{"seq":"43","trt":"PSILOCYBIN","dose":"10.0","doseu":null,"dosef":"ONCE","route":"ORAL","start_dtc":"2024-05-25","end_dtc":"2024-05-25","visit":"WEEK 6"},{"seq":"44","trt":"PSILOCYBIN","dose":"10.0","doseu":null,"dosef":"ONCE","route":"ORAL","start_dtc":"2024-05-26","end_dtc":"2024-05-26","visit":"WEEK 6"},{"seq":"45","trt":"PSILOCYBIN","dose":"10.0","doseu":null,"dosef":"ONCE","route":"ORAL","start_dtc":"2024-05-27","end_dtc":"2024-05-27","visit":"WEEK 6"},{"seq":"46","trt":"PSILOCYBIN","dose":"10.0","doseu":null,"dosef":"ONCE","route":"ORAL","start_dtc":"2024-05-28","end_dtc":"2024-05-28","visit":"WEEK 6"},{"seq":"47","trt":"PSILOCYBIN","dose":"10.0","doseu":null,"dosef":"ONCE","route":"ORAL","start_dtc":"2024-05-29","end_dtc":"2024-05-29","visit":null},{"seq":"48","trt":"PSILOCYBIN","dose":"10.0","doseu":null,"dosef":"ONCE","route":"ORAL","start_dtc":"2024-05-30","end_dtc":"2024-05-30","visit":null},{"seq":"49","trt":"PSILOCYBIN","dose":"10.0","doseu":null,"dosef":"ONCE","route":"ORAL","start_dtc":"2024-05-31","end_dtc":"2024-05-31","visit":null},{"seq":"50","trt":"PSILOCYBIN","dose":"10.0","doseu":null,"dosef":"ONCE","route":"ORAL","start_dtc":"2024-06-01","end_dtc":"2024-06-01","visit":null},{"seq":"51","trt":"PSILOCYBIN","dose":"10.0","doseu":null,"dosef":"ONCE","route":"ORAL","start_dtc":"2024-06-02","end_dtc":"2024-06-02","visit":null},{"seq":"52","trt":"PSILOCYBIN","dose":"10.0","doseu":null,"dosef":"ONCE","route":"ORAL","start_dtc":"2024-06-03","end_dtc":"2024-06-03","visit":null},{"seq":"53","trt":"PSILOCYBIN","dose":"10.0","doseu":null,"dosef":"ONCE","route":"ORAL","start_dtc":"2024-06-04","end_dtc":"2024-06-04","visit":null},{"seq":"54","trt":"PSILOCYBIN","dose":"10.0","doseu":null,"dosef":"ONCE","route":"ORAL","start_dtc":"2024-06-05","end_dtc":"2024-06-05","visit":null},{"seq":"55","trt":"PSILOCYBIN","dose":"10.0","doseu":null,"dosef":"ONCE","route":"ORAL","start_dtc":"2024-06-06","end_dtc":"2024-06-06","visit":null},{"seq":"56","trt":"PSILOCYBIN","dose":"10.0","doseu":null,"dosef":"ONCE","route":"ORAL","start_dtc":"2024-06-07","end_dtc":"2024-06-07","visit":null},{"seq":"57","trt":"PSILOCYBIN","dose":"10.0","doseu":null,"dosef":"ONCE","route":"ORAL","start_dtc":"2024-06-08","end_dtc":"2024-06-08","visit":null},{"seq":"58","trt":"PSILOCYBIN","dose":"10.0","doseu":null,"dosef":"ONCE","route":"ORAL","start_dtc":"2024-06-09","end_dtc":"2024-06-09","visit":null},{"seq":"59","trt":"PSILOCYBIN","dose":"10.0","doseu":null,"dosef":"ONCE","route":"ORAL","start_dtc":"2024-06-10","end_dtc":"2024-06-10","visit":null},{"seq":"60","trt":"PSILOCYBIN","dose":"10.0","doseu":null,"dosef":"ONCE","route":"ORAL","start_dtc":"2024-06-11","end_dtc":"2024-06-11","visit":null},{"seq":"61","trt":"PSILOCYBIN","dose":"10.0","doseu":null,"dosef":"ONCE","route":"ORAL","start_dtc":"2024-06-12","end_dtc":"2024-06-12","visit":null},{"seq":"62","trt":"PSILOCYBIN","dose":"10.0","doseu":null,"dosef":"ONCE","route":"ORAL","start_dtc":"2024-06-13","end_dtc":"2024-06-13","visit":null},{"seq":"63","trt":"PSILOCYBIN","dose":"10.0","doseu":null,"dosef":"ONCE","route":"ORAL","start_dtc":"2024-06-14","end_dtc":"2024-06-14","visit":null},{"seq":"64","trt":"PSILOCYBIN","dose":"10.0","doseu":null,"dosef":"ONCE","route":"ORAL","start_dtc":"2024-06-15","end_dtc":"2024-06-15","visit":null},{"seq":"65","trt":"PSILOCYBIN","dose":"10.0","doseu":null,"dosef":"ONCE","route":"ORAL","start_dtc":"2024-06-16","end_dtc":"2024-06-16","visit":null},{"seq":"66","trt":"PSILOCYBIN","dose":"10.0","doseu":null,"dosef":"ONCE","route":"ORAL","start_dtc":"2024-06-17","end_dtc":"2024-06-17","visit":null},{"seq":"67","trt":"PSILOCYBIN","dose":"10.0","doseu":null,"dosef":"ONCE","route":"ORAL","start_dtc":"2024-06-18","end_dtc":"2024-06-18","visit":null}]},"section_7_adverse_events":{"summary":{"total_aes":3,"serious_aes":1,"fatal_aes":0,"by_severity":{"MILD":1,"SEVERE":1,"MODERATE":1},"by_soc":{"Infections and infestations":1,"Psychiatric disorders":1,"General disorders and administration site conditions":1}},"events":[{"seq":"1","term":"NASOPHARYNGITIS","decod":"Nasopharyngitis","llt":"Nasopharyngitis","hlt":"Upper respiratory tract infections","hlgt":"Upper respiratory tract infections","soc":"Infections and infestations","bodsys":"Infections and infestations","severity":"MILD","serious":"N","causality":"NOT RELATED","action_taken":"DOSE NOT CHANGED","outcome":"RECOVERING/RESOLVING","fatal":"N","hospitalization":"N","life_threatening":"N","onset_dtc":"2024-04-20","end_dtc":"2024-04-23","onset_dy":"8","end_dy":"11","duration":null,"epoch":"TREATMENT","visit":null,"supplemental":{}},{"seq":"2","term":"ANXIETY","decod":"Anxiety","llt":"Anxiety","hlt":"Anxiety symptoms","hlgt":"Anxiety disorders and symptoms","soc":"Psychiatric disorders","bodsys":"Psychiatric disorders","severity":"SEVERE","serious":"Y","causality":"UNLIKELY RELATED","action_taken":"DOSE NOT CHANGED","outcome":"RECOVERED/RESOLVED","fatal":"N","hospitalization":"Y","life_threatening":"N","onset_dtc":"2024-05-05","end_dtc":"2024-06-21","onset_dy":"23","end_dy":"70","duration":null,"epoch":"TREATMENT","visit":null,"supplemental":{}},{"seq":"3","term":"FATIGUE","decod":"Fatigue","llt":"Fatigue","hlt":"Asthenic conditions","hlgt":"General system disorders NEC","soc":"General disorders and administration site conditions","bodsys":"General disorders and administration site conditions","severity":"MODERATE","serious":"N","causality":"UNLIKELY RELATED","action_taken":"DOSE NOT CHANGED","outcome":"RECOVERED/RESOLVED","fatal":"N","hospitalization":"N","life_threatening":"N","onset_dtc":"2024-06-06","end_dtc":"2024-07-07","onset_dy":"55","end_dy":"86","duration":null,"epoch":"TREATMENT","visit":null,"supplemental":{}}]},"section_8_laboratory_results":{"summary":{"total_records":49,"abnormal_count":7,"abnormal_pct":14.3},"shift_summary":[{"testcd":"ALT","baseline_value":41.11,"baseline_nrind":"NORMAL","worst_post_baseline_value":39.33,"worst_post_baseline_nrind":"NORMAL","worst_visit":"DAY 2"},{"testcd":"AST","baseline_value":29.16,"baseline_nrind":"NORMAL","worst_post_baseline_value":31.33,"worst_post_baseline_nrind":"NORMAL","worst_visit":"DOSING DAY"},{"testcd":"CREAT","baseline_value":73.14,"baseline_nrind":"NORMAL","worst_post_baseline_value":77.18,"worst_post_baseline_nrind":"NORMAL","worst_visit":"WEEK 6"},{"testcd":"GLUC","baseline_value":6.05,"baseline_nrind":"HIGH","worst_post_baseline_value":6.2,"worst_post_baseline_nrind":"HIGH","worst_visit":"DOSING DAY"},{"testcd":"HGB","baseline_value":147.29,"baseline_nrind":"NORMAL","worst_post_baseline_value":146.42,"worst_post_baseline_nrind":"NORMAL","worst_visit":"WEEK 6"},{"testcd":"PLAT","baseline_value":302.91,"baseline_nrind":"NORMAL","worst_post_baseline_value":329.5,"worst_post_baseline_nrind":"NORMAL","worst_visit":"DAY 2"},{"testcd":"WBC","baseline_value":6.95,"baseline_nrind":"NORMAL","worst_post_baseline_value":7.62,"worst_post_baseline_nrind":"NORMAL","worst_visit":"WEEK 12"}],"results":[{"seq":"1","testcd":"ALT","test":"Alanine Aminotransferase","cat":"CHEMISTRY","orres":"41.11","orresu":"U/L","stresc":"41.11","stresn":"41.11","stresu":"U/L","stnrlo":"7","stnrhi":"56","nrind":"NORMAL","fast":null,"dtc":"2024-02-29","dy":"-44","visit":"SCREENING","visitnum":"1.0","epoch":"SCREENING","spec":null,"method":null},{"seq":"2","testcd":"AST","test":"Aspartate Aminotransferase","cat":"CHEMISTRY","orres":"29.16","orresu":"U/L","stresc":"29.16","stresn":"29.16","stresu":"U/L","stnrlo":"10","stnrhi":"40","nrind":"NORMAL","fast":null,"dtc":"2024-02-29","dy":"-44","visit":"SCREENING","visitnum":"1.0","epoch":"SCREENING","spec":null,"method":null},{"seq":"3","testcd":"CREAT","test":"Creatinine","cat":"CHEMISTRY","orres":"73.14","orresu":"umol/L","stresc":"73.14","stresn":"73.14","stresu":"umol/L","stnrlo":"62","stnrhi":"106","nrind":"NORMAL","fast":null,"dtc":"2024-02-29","dy":"-44","visit":"SCREENING","visitnum":"1.0","epoch":"SCREENING","spec":null,"method":null},{"seq":"4","testcd":"GLUC","test":"Glucose","cat":"CHEMISTRY","orres":"6.05","orresu":"mmol/L","stresc":"6.05","stresn":"6.05","stresu":"mmol/L","stnrlo":"3.9","stnrhi":"5.6","nrind":"HIGH","fast":null,"dtc":"2024-02-29","dy":"-44","visit":"SCREENING","visitnum":"1.0","epoch":"SCREENING","spec":null,"method":null},{"seq":"5","testcd":"HGB","test":"Hemoglobin","cat":"HEMATOLOGY","orres":"147.29","orresu":"g/L","stresc":"147.29","stresn":"147.29","stresu":"g/L","stnrlo":"130","stnrhi":"175","nrind":"NORMAL","fast":null,"dtc":"2024-02-29","dy":"-44","visit":"SCREENING","visitnum":"1.0","epoch":"SCREENING","spec":null,"method":null},{"seq":"6","testcd":"PLAT","test":"Platelets","cat":"HEMATOLOGY","orres":"302.91","orresu":"10^9/L","stresc":"302.91","stresn":"302.91","stresu":"10^9/L","stnrlo":"150","stnrhi":"400","nrind":"NORMAL","fast":null,"dtc":"2024-02-29","dy":"-44","visit":"SCREENING","visitnum":"1.0","epoch":"SCREENING","spec":null,"method":null},{"seq":"7","testcd":"WBC","test":"Leukocytes","cat":"HEMATOLOGY","orres":"6.95","orresu":"10^9/L","stresc":"6.95","stresn":"6.95","stresu":"10^9/L","stnrlo":"4.0","stnrhi":"11.0","nrind":"NORMAL","fast":null,"dtc":"2024-02-29","dy":"-44","visit":"SCREENING","visitnum":"1.0","epoch":"SCREENING","spec":null,"method":null},{"seq":"8","testcd":"ALT","test":"Alanine Aminotransferase","cat":"CHEMISTRY","orres":"38.74","orresu":"U/L","stresc":"38.74","stresn":"38.74","stresu":"U/L","stnrlo":"7","stnrhi":"56","nrind":"NORMAL","fast":null,"dtc":"2024-04-13","dy":"1","visit":"DOSING DAY","visitnum":"2.0","epoch":"TREATMENT","spec":null,"method":null},{"seq":"9","testcd":"AST","test":"Aspartate Aminotransferase","cat":"CHEMISTRY","orres":"31.33","orresu":"U/L","stresc":"31.33","stresn":"31.33","stresu":"U/L","stnrlo":"10","stnrhi":"40","nrind":"NORMAL","fast":null,"dtc":"2024-04-13","dy":"1","visit":"DOSING DAY","visitnum":"2.0","epoch":"TREATMENT","spec":null,"method":null},{"seq":"10","testcd":"CREAT","test":"Creatinine","cat":"CHEMISTRY","orres":"72.87","orresu":"umol/L","stresc":"72.87","stresn":"72.87","stresu":"umol/L","stnrlo":"62","stnrhi":"106","nrind":"NORMAL","fast":null,"dtc":"2024-04-13","dy":"1","visit":"DOSING DAY","visitnum":"2.0","epoch":"TREATMENT","spec":null,"method":null},{"seq":"11","testcd":"GLUC","test":"Glucose","cat":"CHEMISTRY","orres":"6.2","orresu":"mmol/L","stresc":"6.2","stresn":"6.2","stresu":"mmol/L","stnrlo":"3.9","stnrhi":"5.6","nrind":"HIGH","fast":null,"dtc":"2024-04-13","dy":"1","visit":"DOSING DAY","visitnum":"2.0","epoch":"TREATMENT","spec":null,"method":null},{"seq":"12","testcd":"HGB","test":"Hemoglobin","cat":"HEMATOLOGY","orres":"147.36","orresu":"g/L","stresc":"147.36","stresn":"147.36","stresu":"g/L","stnrlo":"130","stnrhi":"175","nrind":"NORMAL","fast":null,"dtc":"2024-04-13","dy":"1","visit":"DOSING DAY","visitnum":"2.0","epoch":"TREATMENT","spec":null,"method":null},{"seq":"13","testcd":"PLAT","test":"Platelets","cat":"HEMATOLOGY","orres":"323.12","orresu":"10^9/L","stresc":"323.12","stresn":"323.12","stresu":"10^9/L","stnrlo":"150","stnrhi":"400","nrind":"NORMAL","fast":null,"dtc":"2024-04-13","dy":"1","visit":"DOSING DAY","visitnum":"2.0","epoch":"TREATMENT","spec":null,"method":null},{"seq":"14","testcd":"WBC","test":"Leukocytes","cat":"HEMATOLOGY","orres":"6.97","orresu":"10^9/L","stresc":"6.97","stresn":"6.97","stresu":"10^9/L","stnrlo":"4.0","stnrhi":"11.0","nrind":"NORMAL","fast":null,"dtc":"2024-04-13","dy":"1","visit":"DOSING DAY","visitnum":"2.0","epoch":"TREATMENT","spec":null,"method":null},{"seq":"15","testcd":"ALT","test":"Alanine Aminotransferase","cat":"CHEMISTRY","orres":"39.33","orresu":"U/L","stresc":"39.33","stresn":"39.33","stresu":"U/L","stnrlo":"7","stnrhi":"56","nrind":"NORMAL","fast":null,"dtc":"2024-04-14","dy":"2","visit":"DAY 2","visitnum":"3.0","epoch":"FOLLOW-UP","spec":null,"method":null},{"seq":"16","testcd":"AST","test":"Aspartate Aminotransferase","cat":"CHEMISTRY","orres":null,"orresu":null,"stresc":null,"stresn":null,"stresu":null,"stnrlo":null,"stnrhi":null,"nrind":null,"fast":null,"dtc":"2024-04-14","dy":"2","visit":"DAY 2","visitnum":"3.0","epoch":"FOLLOW-UP","spec":null,"method":null},{"seq":"17","testcd":"CREAT","test":"Creatinine","cat":"CHEMISTRY","orres":"75.32","orresu":"umol/L","stresc":"75.32","stresn":"75.32","stresu":"umol/L","stnrlo":"62","stnrhi":"106","nrind":"NORMAL","fast":null,"dtc":"2024-04-14","dy":"2","visit":"DAY 2","visitnum":"3.0","epoch":"FOLLOW-UP","spec":null,"method":null},{"seq":"18","testcd":"GLUC","test":"Glucose","cat":"CHEMISTRY","orres":"6.07","orresu":"mmol/L","stresc":"6.07","stresn":"6.07","stresu":"mmol/L","stnrlo":"3.9","stnrhi":"5.6","nrind":"HIGH","fast":null,"dtc":"2024-04-14","dy":"2","visit":"DAY 2","visitnum":"3.0","epoch":"FOLLOW-UP","spec":null,"method":null},{"seq":"19","testcd":"HGB","test":"Hemoglobin","cat":"HEMATOLOGY","orres":"149.03","orresu":"g/L","stresc":"149.03","stresn":"149.03","stresu":"g/L","stnrlo":"130","stnrhi":"175","nrind":"NORMAL","fast":null,"dtc":"2024-04-14","dy":"2","visit":"DAY 2","visitnum":"3.0","epoch":"FOLLOW-UP","spec":null,"method":null},{"seq":"20","testcd":"PLAT","test":"Platelets","cat":"HEMATOLOGY","orres":"329.5","orresu":"10^9/L","stresc":"329.5","stresn":"329.5","stresu":"10^9/L","stnrlo":"150","stnrhi":"400","nrind":"NORMAL","fast":null,"dtc":"2024-04-14","dy":"2","visit":"DAY 2","visitnum":"3.0","epoch":"FOLLOW-UP","spec":null,"method":null},{"seq":"21","testcd":"WBC","test":"Leukocytes","cat":"HEMATOLOGY","orres":"6.51","orresu":"10^9/L","stresc":"6.51","stresn":"6.51","stresu":"10^9/L","stnrlo":"4.0","stnrhi":"11.0","nrind":"NORMAL","fast":null,"dtc":"2024-04-14","dy":"2","visit":"DAY 2","visitnum":"3.0","epoch":"FOLLOW-UP","spec":null,"method":null},{"seq":"22","testcd":"ALT","test":"Alanine Aminotransferase","cat":"CHEMISTRY","orres":"38.05","orresu":"U/L","stresc":"38.05","stresn":"38.05","stresu":"U/L","stnrlo":"7","stnrhi":"56","nrind":"NORMAL","fast":null,"dtc":"2024-04-19","dy":"7","visit":"WEEK 1","visitnum":"4.0","epoch":"FOLLOW-UP","spec":null,"method":null},{"seq":"23","testcd":"AST","test":"Aspartate Aminotransferase","cat":"CHEMISTRY","orres":"29.95","orresu":"U/L","stresc":"29.95","stresn":"29.95","stresu":"U/L","stnrlo":"10","stnrhi":"40","nrind":"NORMAL","fast":null,"dtc":"2024-04-19","dy":"7","visit":"WEEK 1","visitnum":"4.0","epoch":"FOLLOW-UP","spec":null,"method":null},{"seq":"24","testcd":"CREAT","test":"Creatinine","cat":"CHEMISTRY","orres":"76.08","orresu":"umol/L","stresc":"76.08","stresn":"76.08","stresu":"umol/L","stnrlo":"62","stnrhi":"106","nrind":"NORMAL","fast":null,"dtc":"2024-04-19","dy":"7","visit":"WEEK 1","visitnum":"4.0","epoch":"FOLLOW-UP","spec":null,"method":null},{"seq":"25","testcd":"GLUC","test":"Glucose","cat":"CHEMISTRY","orres":"6.04","orresu":"mmol/L","stresc":"6.04","stresn":"6.04","stresu":"mmol/L","stnrlo":"3.9","stnrhi":"5.6","nrind":"HIGH","fast":null,"dtc":"2024-04-19","dy":"7","visit":"WEEK 1","visitnum":"4.0","epoch":"FOLLOW-UP","spec":null,"method":null},{"seq":"26","testcd":"HGB","test":"Hemoglobin","cat":"HEMATOLOGY","orres":"150.13","orresu":"g/L","stresc":"150.13","stresn":"150.13","stresu":"g/L","stnrlo":"130","stnrhi":"175","nrind":"NORMAL","fast":null,"dtc":"2024-04-19","dy":"7","visit":"WEEK 1","visitnum":"4.0","epoch":"FOLLOW-UP","spec":null,"method":null},{"seq":"27","testcd":"PLAT","test":"Platelets","cat":"HEMATOLOGY","orres":"322.77","orresu":"10^9/L","stresc":"322.77","stresn":"322.77","stresu":"10^9/L","stnrlo":"150","stnrhi":"400","nrind":"NORMAL","fast":null,"dtc":"2024-04-19","dy":"7","visit":"WEEK 1","visitnum":"4.0","epoch":"FOLLOW-UP","spec":null,"method":null},{"seq":"28","testcd":"WBC","test":"Leukocytes","cat":"HEMATOLOGY","orres":"6.39","orresu":"10^9/L","stresc":"6.39","stresn":"6.39","stresu":"10^9/L","stnrlo":"4.0","stnrhi":"11.0","nrind":"NORMAL","fast":null,"dtc":"2024-04-19","dy":"7","visit":"WEEK 1","visitnum":"4.0","epoch":"FOLLOW-UP","spec":null,"method":null},{"seq":"29","testcd":"ALT","test":"Alanine Aminotransferase","cat":"CHEMISTRY","orres":"36.24","orresu":"U/L","stresc":"36.24","stresn":"36.24","stresu":"U/L","stnrlo":"7","stnrhi":"56","nrind":"NORMAL","fast":null,"dtc":"2024-05-03","dy":"21","visit":"WEEK 3","visitnum":"5.0","epoch":"FOLLOW-UP","spec":null,"method":null},{"seq":"30","testcd":"AST","test":"Aspartate Aminotransferase","cat":"CHEMISTRY","orres":"30.0","orresu":"U/L","stresc":"30.0","stresn":"30.0","stresu":"U/L","stnrlo":"10","stnrhi":"40","nrind":"NORMAL","fast":null,"dtc":"2024-05-03","dy":"21","visit":"WEEK 3","visitnum":"5.0","epoch":"FOLLOW-UP","spec":null,"method":null},{"seq":"31","testcd":"CREAT","test":"Creatinine","cat":"CHEMISTRY","orres":null,"orresu":null,"stresc":null,"stresn":null,"stresu":null,"stnrlo":null,"stnrhi":null,"nrind":null,"fast":null,"dtc":"2024-05-03","dy":"21","visit":"WEEK 3","visitnum":"5.0","epoch":"FOLLOW-UP","spec":null,"method":null},{"seq":"32","testcd":"GLUC","test":"Glucose","cat":"CHEMISTRY","orres":"6.14","orresu":"mmol/L","stresc":"6.14","stresn":"6.14","stresu":"mmol/L","stnrlo":"3.9","stnrhi":"5.6","nrind":"HIGH","fast":null,"dtc":"2024-05-03","dy":"21","visit":"WEEK 3","visitnum":"5.0","epoch":"FOLLOW-UP","spec":null,"method":null},{"seq":"33","testcd":"HGB","test":"Hemoglobin","cat":"HEMATOLOGY","orres":"148.48","orresu":"g/L","stresc":"148.48","stresn":"148.48","stresu":"g/L","stnrlo":"130","stnrhi":"175","nrind":"NORMAL","fast":null,"dtc":"2024-05-03","dy":"21","visit":"WEEK 3","visitnum":"5.0","epoch":"FOLLOW-UP","spec":null,"method":null},{"seq":"34","testcd":"PLAT","test":"Platelets","cat":"HEMATOLOGY","orres":"295.35","orresu":"10^9/L","stresc":"295.35","stresn":"295.35","stresu":"10^9/L","stnrlo":"150","stnrhi":"400","nrind":"NORMAL","fast":null,"dtc":"2024-05-03","dy":"21","visit":"WEEK 3","visitnum":"5.0","epoch":"FOLLOW-UP","spec":null,"method":null},{"seq":"35","testcd":"WBC","test":"Leukocytes","cat":"HEMATOLOGY","orres":"6.72","orresu":"10^9/L","stresc":"6.72","stresn":"6.72","stresu":"10^9/L","stnrlo":"4.0","stnrhi":"11.0","nrind":"NORMAL","fast":null,"dtc":"2024-05-03","dy":"21","visit":"WEEK 3","visitnum":"5.0","epoch":"FOLLOW-UP","spec":null,"method":null},{"seq":"36","testcd":"ALT","test":"Alanine Aminotransferase","cat":"CHEMISTRY","orres":"34.53","orresu":"U/L","stresc":"34.53","stresn":"34.53","stresu":"U/L","stnrlo":"7","stnrhi":"56","nrind":"NORMAL","fast":null,"dtc":"2024-05-23","dy":"41","visit":"WEEK 6","visitnum":"6.0","epoch":"FOLLOW-UP","spec":null,"method":null},{"seq":"37","testcd":"AST","test":"Aspartate Aminotransferase","cat":"CHEMISTRY","orres":"29.02","orresu":"U/L","stresc":"29.02","stresn":"29.02","stresu":"U/L","stnrlo":"10","stnrhi":"40","nrind":"NORMAL","fast":null,"dtc":"2024-05-23","dy":"41","visit":"WEEK 6","visitnum":"6.0","epoch":"FOLLOW-UP","spec":null,"method":null},{"seq":"38","testcd":"CREAT","test":"Creatinine","cat":"CHEMISTRY","orres":"77.18","orresu":"umol/L","stresc":"77.18","stresn":"77.18","stresu":"umol/L","stnrlo":"62","stnrhi":"106","nrind":"NORMAL","fast":null,"dtc":"2024-05-23","dy":"41","visit":"WEEK 6","visitnum":"6.0","epoch":"FOLLOW-UP","spec":null,"method":null},{"seq":"39","testcd":"GLUC","test":"Glucose","cat":"CHEMISTRY","orres":"6.14","orresu":"mmol/L","stresc":"6.14","stresn":"6.14","stresu":"mmol/L","stnrlo":"3.9","stnrhi":"5.6","nrind":"HIGH","fast":null,"dtc":"2024-05-23","dy":"41","visit":"WEEK 6","visitnum":"6.0","epoch":"FOLLOW-UP","spec":null,"method":null},{"seq":"40","testcd":"HGB","test":"Hemoglobin","cat":"HEMATOLOGY","orres":"146.42","orresu":"g/L","stresc":"146.42","stresn":"146.42","stresu":"g/L","stnrlo":"130","stnrhi":"175","nrind":"NORMAL","fast":null,"dtc":"2024-05-23","dy":"41","visit":"WEEK 6","visitnum":"6.0","epoch":"FOLLOW-UP","spec":null,"method":null},{"seq":"41","testcd":"PLAT","test":"Platelets","cat":"HEMATOLOGY","orres":"302.4","orresu":"10^9/L","stresc":"302.4","stresn":"302.4","stresu":"10^9/L","stnrlo":"150","stnrhi":"400","nrind":"NORMAL","fast":null,"dtc":"2024-05-23","dy":"41","visit":"WEEK 6","visitnum":"6.0","epoch":"FOLLOW-UP","spec":null,"method":null},{"seq":"42","testcd":"WBC","test":"Leukocytes","cat":"HEMATOLOGY","orres":"7.09","orresu":"10^9/L","stresc":"7.09","stresn":"7.09","stresu":"10^9/L","stnrlo":"4.0","stnrhi":"11.0","nrind":"NORMAL","fast":null,"dtc":"2024-05-23","dy":"41","visit":"WEEK 6","visitnum":"6.0","epoch":"FOLLOW-UP","spec":null,"method":null},{"seq":"43","testcd":"ALT","test":"Alanine Aminotransferase","cat":"CHEMISTRY","orres":"36.09","orresu":"U/L","stresc":"36.09","stresn":"36.09","stresu":"U/L","stnrlo":"7","stnrhi":"56","nrind":"NORMAL","fast":null,"dtc":"2024-07-07","dy":"86","visit":"WEEK 12","visitnum":"7.0","epoch":"FOLLOW-UP","spec":null,"method":null},{"seq":"44","testcd":"AST","test":"Aspartate Aminotransferase","cat":"CHEMISTRY","orres":"29.85","orresu":"U/L","stresc":"29.85","stresn":"29.85","stresu":"U/L","stnrlo":"10","stnrhi":"40","nrind":"NORMAL","fast":null,"dtc":"2024-07-07","dy":"86","visit":"WEEK 12","visitnum":"7.0","epoch":"FOLLOW-UP","spec":null,"method":null},{"seq":"45","testcd":"CREAT","test":"Creatinine","cat":"CHEMISTRY","orres":"75.23","orresu":"umol/L","stresc":"75.23","stresn":"75.23","stresu":"umol/L","stnrlo":"62","stnrhi":"106","nrind":"NORMAL","fast":null,"dtc":"2024-07-07","dy":"86","visit":"WEEK 12","visitnum":"7.0","epoch":"FOLLOW-UP","spec":null,"method":null},{"seq":"46","testcd":"GLUC","test":"Glucose","cat":"CHEMISTRY","orres":"6.04","orresu":"mmol/L","stresc":"6.04","stresn":"6.04","stresu":"mmol/L","stnrlo":"3.9","stnrhi":"5.6","nrind":"HIGH","fast":null,"dtc":"2024-07-07","dy":"86","visit":"WEEK 12","visitnum":"7.0","epoch":"FOLLOW-UP","spec":null,"method":null},{"seq":"47","testcd":"HGB","test":"Hemoglobin","cat":"HEMATOLOGY","orres":"146.95","orresu":"g/L","stresc":"146.95","stresn":"146.95","stresu":"g/L","stnrlo":"130","stnrhi":"175","nrind":"NORMAL","fast":null,"dtc":"2024-07-07","dy":"86","visit":"WEEK 12","visitnum":"7.0","epoch":"FOLLOW-UP","spec":null,"method":null},{"seq":"48","testcd":"PLAT","test":"Platelets","cat":"HEMATOLOGY","orres":"315.29","orresu":"10^9/L","stresc":"315.29","stresn":"315.29","stresu":"10^9/L","stnrlo":"150","stnrhi":"400","nrind":"NORMAL","fast":null,"dtc":"2024-07-07","dy":"86","visit":"WEEK 12","visitnum":"7.0","epoch":"FOLLOW-UP","spec":null,"method":null},{"seq":"49","testcd":"WBC","test":"Leukocytes","cat":"HEMATOLOGY","orres":"7.62","orresu":"10^9/L","stresc":"7.62","stresn":"7.62","stresu":"10^9/L","stnrlo":"4.0","stnrhi":"11.0","nrind":"NORMAL","fast":null,"dtc":"2024-07-07","dy":"86","visit":"WEEK 12","visitnum":"7.0","epoch":"FOLLOW-UP","spec":null,"method":null}]},"section_9_vital_signs":{"summary":{"total_records":48},"trends":{"BMI":[{"visit":"SCREENING","visitnum":"1.0","dtc":"2024-02-29","value":"19.7","unit":"kg/m2"},{"visit":"DOSING DAY","visitnum":"2.0","dtc":"2024-04-13","value":"18.8","unit":"kg/m2"},{"visit":"DAY 2","visitnum":"3.0","dtc":"2024-04-14","value":"19.2","unit":"kg/m2"},{"visit":"WEEK 1","visitnum":"4.0","dtc":"2024-04-19","value":"19.2","unit":"kg/m2"},{"visit":"WEEK 6","visitnum":"6.0","dtc":"2024-05-23","value":"19.2","unit":"kg/m2"},{"visit":"WEEK 12","visitnum":"7.0","dtc":"2024-07-07","value":"18.9","unit":"kg/m2"}],"DIABP":[{"visit":"SCREENING","visitnum":"1.0","dtc":"2024-02-29","value":"67.1","unit":"mmHg"},{"visit":"DOSING DAY","visitnum":"2.0","dtc":"2024-04-13","value":"66.0","unit":"mmHg"},{"visit":"DAY 2","visitnum":"3.0","dtc":"2024-04-14","value":"65.8","unit":"mmHg"},{"visit":"WEEK 1","visitnum":"4.0","dtc":"2024-04-19","value":"63.4","unit":"mmHg"},{"visit":"WEEK 6","visitnum":"6.0","dtc":"2024-05-23","value":"64.6","unit":"mmHg"},{"visit":"WEEK 12","visitnum":"7.0","dtc":"2024-07-07","value":"65.7","unit":"mmHg"}],"HEIGHT":[{"visit":"SCREENING","visitnum":"1.0","dtc":"2024-02-29","value":"173.3","unit":"cm"},{"visit":"DOSING DAY","visitnum":"2.0","dtc":"2024-04-13","value":"173.4","unit":"cm"},{"visit":"DAY 2","visitnum":"3.0","dtc":"2024-04-14","value":"174.1","unit":"cm"},{"visit":"WEEK 1","visitnum":"4.0","dtc":"2024-04-19","value":"174.4","unit":"cm"},{"visit":"WEEK 6","visitnum":"6.0","dtc":"2024-05-23","value":"174.7","unit":"cm"},{"visit":"WEEK 12","visitnum":"7.0","dtc":"2024-07-07","value":"175.2","unit":"cm"}],"PULSE":[{"visit":"SCREENING","visitnum":"1.0","dtc":"2024-02-29","value":"77.8","unit":"beats/min"},{"visit":"DOSING DAY","visitnum":"2.0","dtc":"2024-04-13","value":"79.1","unit":"beats/min"},{"visit":"DAY 2","visitnum":"3.0","dtc":"2024-04-14","value":"79.7","unit":"beats/min"},{"visit":"WEEK 1","visitnum":"4.0","dtc":"2024-04-19","value":"77.3","unit":"beats/min"},{"visit":"WEEK 6","visitnum":"6.0","dtc":"2024-05-23","value":"81.7","unit":"beats/min"},{"visit":"WEEK 12","visitnum":"7.0","dtc":"2024-07-07","value":"82.8","unit":"beats/min"}],"RESP":[{"visit":"SCREENING","visitnum":"1.0","dtc":"2024-02-29","value":"12.5","unit":"breaths/min"},{"visit":"DOSING DAY","visitnum":"2.0","dtc":"2024-04-13","value":"11.2","unit":"breaths/min"},{"visit":"DAY 2","visitnum":"3.0","dtc":"2024-04-14","value":"12.4","unit":"breaths/min"},{"visit":"WEEK 1","visitnum":"4.0","dtc":"2024-04-19","value":"10.8","unit":"breaths/min"},{"visit":"WEEK 6","visitnum":"6.0","dtc":"2024-05-23","value":"11.2","unit":"breaths/min"},{"visit":"WEEK 12","visitnum":"7.0","dtc":"2024-07-07","value":"13.3","unit":"breaths/min"}],"SYSBP":[{"visit":"SCREENING","visitnum":"1.0","dtc":"2024-02-29","value":"131.2","unit":"mmHg"},{"visit":"DOSING DAY","visitnum":"2.0","dtc":"2024-04-13","value":"127.0","unit":"mmHg"},{"visit":"DAY 2","visitnum":"3.0","dtc":"2024-04-14","value":"126.1","unit":"mmHg"},{"visit":"WEEK 1","visitnum":"4.0","dtc":"2024-04-19","value":"124.2","unit":"mmHg"},{"visit":"WEEK 6","visitnum":"6.0","dtc":"2024-05-23","value":"125.0","unit":"mmHg"},{"visit":"WEEK 12","visitnum":"7.0","dtc":"2024-07-07","value":"128.5","unit":"mmHg"}],"TEMP":[{"visit":"SCREENING","visitnum":"1.0","dtc":"2024-02-29","value":"36.2","unit":"C"},{"visit":"DOSING DAY","visitnum":"2.0","dtc":"2024-04-13","value":"36.3","unit":"C"},{"visit":"DAY 2","visitnum":"3.0","dtc":"2024-04-14","value":"36.4","unit":"C"},{"visit":"WEEK 1","visitnum":"4.0","dtc":"2024-04-19","value":"36.4","unit":"C"},{"visit":"WEEK 6","visitnum":"6.0","dtc":"2024-05-23","value":"36.4","unit":"C"},{"visit":"WEEK 12","visitnum":"7.0","dtc":"2024-07-07","value":"36.4","unit":"C"}],"WEIGHT":[{"visit":"SCREENING","visitnum":"1.0","dtc":"2024-02-29","value":"59.3","unit":"kg"},{"visit":"DOSING DAY","visitnum":"2.0","dtc":"2024-04-13","value":"56.5","unit":"kg"},{"visit":"DAY 2","visitnum":"3.0","dtc":"2024-04-14","value":"58.3","unit":"kg"},{"visit":"WEEK 1","visitnum":"4.0","dtc":"2024-04-19","value":"58.5","unit":"kg"},{"visit":"WEEK 6","visitnum":"6.0","dtc":"2024-05-23","value":"58.7","unit":"kg"},{"visit":"WEEK 12","visitnum":"7.0","dtc":"2024-07-07","value":"58.1","unit":"kg"}]},"results":[{"seq":"1","testcd":"BMI","test":"BMI","cat":null,"orres":"19.7","orresu":"kg/m2","stresc":"19.7","stresn":"19.7","stresu":"kg/m2","stnrlo":null,"stnrhi":null,"nrind":null,"pos":null,"loc":null,"dtc":"2024-02-29","dy":"-44","visit":"SCREENING","visitnum":"1.0","epoch":"SCREENING"},{"seq":"2","testcd":"DIABP","test":"Diastolic Blood Pressure","cat":null,"orres":"67.1","orresu":"mmHg","stresc":"67.1","stresn":"67.1","stresu":"mmHg","stnrlo":null,"stnrhi":null,"nrind":null,"pos":null,"loc":null,"dtc":"2024-02-29","dy":"-44","visit":"SCREENING","visitnum":"1.0","epoch":"SCREENING"},{"seq":"3","testcd":"HEIGHT","test":"Height","cat":null,"orres":"173.3","orresu":"cm","stresc":"173.3","stresn":"173.3","stresu":"cm","stnrlo":null,"stnrhi":null,"nrind":null,"pos":null,"loc":null,"dtc":"2024-02-29","dy":"-44","visit":"SCREENING","visitnum":"1.0","epoch":"SCREENING"},{"seq":"4","testcd":"PULSE","test":"Pulse Rate","cat":null,"orres":"77.8","orresu":"beats/min","stresc":"77.8","stresn":"77.8","stresu":"beats/min","stnrlo":null,"stnrhi":null,"nrind":null,"pos":null,"loc":null,"dtc":"2024-02-29","dy":"-44","visit":"SCREENING","visitnum":"1.0","epoch":"SCREENING"},{"seq":"5","testcd":"RESP","test":"Respiratory Rate","cat":null,"orres":"12.5","orresu":"breaths/min","stresc":"12.5","stresn":"12.5","stresu":"breaths/min","stnrlo":null,"stnrhi":null,"nrind":null,"pos":null,"loc":null,"dtc":"2024-02-29","dy":"-44","visit":"SCREENING","visitnum":"1.0","epoch":"SCREENING"},{"seq":"6","testcd":"SYSBP","test":"Systolic Blood Pressure","cat":null,"orres":"131.2","orresu":"mmHg","stresc":"131.2","stresn":"131.2","stresu":"mmHg","stnrlo":null,"stnrhi":null,"nrind":null,"pos":null,"loc":null,"dtc":"2024-02-29","dy":"-44","visit":"SCREENING","visitnum":"1.0","epoch":"SCREENING"},{"seq":"7","testcd":"TEMP","test":"Temperature","cat":null,"orres":"36.2","orresu":"C","stresc":"36.2","stresn":"36.2","stresu":"C","stnrlo":null,"stnrhi":null,"nrind":null,"pos":null,"loc":null,"dtc":"2024-02-29","dy":"-44","visit":"SCREENING","visitnum":"1.0","epoch":"SCREENING"},{"seq":"8","testcd":"WEIGHT","test":"Weight","cat":null,"orres":"59.3","orresu":"kg","stresc":"59.3","stresn":"59.3","stresu":"kg","stnrlo":null,"stnrhi":null,"nrind":null,"pos":null,"loc":null,"dtc":"2024-02-29","dy":"-44","visit":"SCREENING","visitnum":"1.0","epoch":"SCREENING"},{"seq":"9","testcd":"BMI","test":"BMI","cat":null,"orres":"18.8","orresu":"kg/m2","stresc":"18.8","stresn":"18.8","stresu":"kg/m2","stnrlo":null,"stnrhi":null,"nrind":null,"pos":null,"loc":null,"dtc":"2024-04-13","dy":"1","visit":"DOSING DAY","visitnum":"2.0","epoch":"TREATMENT"},{"seq":"10","testcd":"DIABP","test":"Diastolic Blood Pressure","cat":null,"orres":"66.0","orresu":"mmHg","stresc":"66.0","stresn":"66.0","stresu":"mmHg","stnrlo":null,"stnrhi":null,"nrind":null,"pos":null,"loc":null,"dtc":"2024-04-13","dy":"1","visit":"DOSING DAY","visitnum":"2.0","epoch":"TREATMENT"},{"seq":"11","testcd":"HEIGHT","test":"Height","cat":null,"orres":"173.4","orresu":"cm","stresc":"173.4","stresn":"173.4","stresu":"cm","stnrlo":null,"stnrhi":null,"nrind":null,"pos":null,"loc":null,"dtc":"2024-04-13","dy":"1","visit":"DOSING DAY","visitnum":"2.0","epoch":"TREATMENT"},{"seq":"12","testcd":"PULSE","test":"Pulse Rate","cat":null,"orres":"79.1","orresu":"beats/min","stresc":"79.1","stresn":"79.1","stresu":"beats/min","stnrlo":null,"stnrhi":null,"nrind":null,"pos":null,"loc":null,"dtc":"2024-04-13","dy":"1","visit":"DOSING DAY","visitnum":"2.0","epoch":"TREATMENT"},{"seq":"13","testcd":"RESP","test":"Respiratory Rate","cat":null,"orres":"11.2","orresu":"breaths/min","stresc":"11.2","stresn":"11.2","stresu":"breaths/min","stnrlo":null,"stnrhi":null,"nrind":null,"pos":null,"loc":null,"dtc":"2024-04-13","dy":"1","visit":"DOSING DAY","visitnum":"2.0","epoch":"TREATMENT"},{"seq":"14","testcd":"SYSBP","test":"Systolic Blood Pressure","cat":null,"orres":"127.0","orresu":"mmHg","stresc":"127.0","stresn":"127.0","stresu":"mmHg","stnrlo":null,"stnrhi":null,"nrind":null,"pos":null,"loc":null,"dtc":"2024-04-13","dy":"1","visit":"DOSING DAY","visitnum":"2.0","epoch":"TREATMENT"},{"seq":"15","testcd":"TEMP","test":"Temperature","cat":null,"orres":"36.3","orresu":"C","stresc":"36.3","stresn":"36.3","stresu":"C","stnrlo":null,"stnrhi":null,"nrind":null,"pos":null,"loc":null,"dtc":"2024-04-13","dy":"1","visit":"DOSING DAY","visitnum":"2.0","epoch":"TREATMENT"},{"seq":"16","testcd":"WEIGHT","test":"Weight","cat":null,"orres":"56.5","orresu":"kg","stresc":"56.5","stresn":"56.5","stresu":"kg","stnrlo":null,"stnrhi":null,"nrind":null,"pos":null,"loc":null,"dtc":"2024-04-13","dy":"1","visit":"DOSING DAY","visitnum":"2.0","epoch":"TREATMENT"},{"seq":"17","testcd":"BMI","test":"BMI","cat":null,"orres":"19.2","orresu":"kg/m2","stresc":"19.2","stresn":"19.2","stresu":"kg/m2","stnrlo":null,"stnrhi":null,"nrind":null,"pos":null,"loc":null,"dtc":"2024-04-14","dy":"2","visit":"DAY 2","visitnum":"3.0","epoch":"FOLLOW-UP"},{"seq":"18","testcd":"DIABP","test":"Diastolic Blood Pressure","cat":null,"orres":"65.8","orresu":"mmHg","stresc":"65.8","stresn":"65.8","stresu":"mmHg","stnrlo":null,"stnrhi":null,"nrind":null,"pos":null,"loc":null,"dtc":"2024-04-14","dy":"2","visit":"DAY 2","visitnum":"3.0","epoch":"FOLLOW-UP"},{"seq":"19","testcd":"HEIGHT","test":"Height","cat":null,"orres":"174.1","orresu":"cm","stresc":"174.1","stresn":"174.1","stresu":"cm","stnrlo":null,"stnrhi":null,"nrind":null,"pos":null,"loc":null,"dtc":"2024-04-14","dy":"2","visit":"DAY 2","visitnum":"3.0","epoch":"FOLLOW-UP"},{"seq":"20","testcd":"PULSE","test":"Pulse Rate","cat":null,"orres":"79.7","orresu":"beats/min","stresc":"79.7","stresn":"79.7","stresu":"beats/min","stnrlo":null,"stnrhi":null,"nrind":null,"pos":null,"loc":null,"dtc":"2024-04-14","dy":"2","visit":"DAY 2","visitnum":"3.0","epoch":"FOLLOW-UP"},{"seq":"21","testcd":"RESP","test":"Respiratory Rate","cat":null,"orres":"12.4","orresu":"breaths/min","stresc":"12.4","stresn":"12.4","stresu":"breaths/min","stnrlo":null,"stnrhi":null,"nrind":null,"pos":null,"loc":null,"dtc":"2024-04-14","dy":"2","visit":"DAY 2","visitnum":"3.0","epoch":"FOLLOW-UP"},{"seq":"22","testcd":"SYSBP","test":"Systolic Blood Pressure","cat":null,"orres":"126.1","orresu":"mmHg","stresc":"126.1","stresn":"126.1","stresu":"mmHg","stnrlo":null,"stnrhi":null,"nrind":null,"pos":null,"loc":null,"dtc":"2024-04-14","dy":"2","visit":"DAY 2","visitnum":"3.0","epoch":"FOLLOW-UP"},{"seq":"23","testcd":"TEMP","test":"Temperature","cat":null,"orres":"36.4","orresu":"C","stresc":"36.4","stresn":"36.4","stresu":"C","stnrlo":null,"stnrhi":null,"nrind":null,"pos":null,"loc":null,"dtc":"2024-04-14","dy":"2","visit":"DAY 2","visitnum":"3.0","epoch":"FOLLOW-UP"},{"seq":"24","testcd":"WEIGHT","test":"Weight","cat":null,"orres":"58.3","orresu":"kg","stresc":"58.3","stresn":"58.3","stresu":"kg","stnrlo":null,"stnrhi":null,"nrind":null,"pos":null,"loc":null,"dtc":"2024-04-14","dy":"2","visit":"DAY 2","visitnum":"3.0","epoch":"FOLLOW-UP"},{"seq":"25","testcd":"BMI","test":"BMI","cat":null,"orres":"19.2","orresu":"kg/m2","stresc":"19.2","stresn":"19.2","stresu":"kg/m2","stnrlo":null,"stnrhi":null,"nrind":null,"pos":null,"loc":null,"dtc":"2024-04-19","dy":"7","visit":"WEEK 1","visitnum":"4.0","epoch":"FOLLOW-UP"},{"seq":"26","testcd":"DIABP","test":"Diastolic Blood Pressure","cat":null,"orres":"63.4","orresu":"mmHg","stresc":"63.4","stresn":"63.4","stresu":"mmHg","stnrlo":null,"stnrhi":null,"nrind":null,"pos":null,"loc":null,"dtc":"2024-04-19","dy":"7","visit":"WEEK 1","visitnum":"4.0","epoch":"FOLLOW-UP"},{"seq":"27","testcd":"HEIGHT","test":"Height","cat":null,"orres":"174.4","orresu":"cm","stresc":"174.4","stresn":"174.4","stresu":"cm","stnrlo":null,"stnrhi":null,"nrind":null,"pos":null,"loc":null,"dtc":"2024-04-19","dy":"7","visit":"WEEK 1","visitnum":"4.0","epoch":"FOLLOW-UP"},{"seq":"28","testcd":"PULSE","test":"Pulse Rate","cat":null,"orres":"77.3","orresu":"beats/min","stresc":"77.3","stresn":"77.3","stresu":"beats/min","stnrlo":null,"stnrhi":null,"nrind":null,"pos":null,"loc":null,"dtc":"2024-04-19","dy":"7","visit":"WEEK 1","visitnum":"4.0","epoch":"FOLLOW-UP"},{"seq":"29","testcd":"RESP","test":"Respiratory Rate","cat":null,"orres":"10.8","orresu":"breaths/min","stresc":"10.8","stresn":"10.8","stresu":"breaths/min","stnrlo":null,"stnrhi":null,"nrind":null,"pos":null,"loc":null,"dtc":"2024-04-19","dy":"7","visit":"WEEK 1","visitnum":"4.0","epoch":"FOLLOW-UP"},{"seq":"30","testcd":"SYSBP","test":"Systolic Blood Pressure","cat":null,"orres":"124.2","orresu":"mmHg","stresc":"124.2","stresn":"124.2","stresu":"mmHg","stnrlo":null,"stnrhi":null,"nrind":null,"pos":null,"loc":null,"dtc":"2024-04-19","dy":"7","visit":"WEEK 1","visitnum":"4.0","epoch":"FOLLOW-UP"},{"seq":"31","testcd":"TEMP","test":"Temperature","cat":null,"orres":"36.4","orresu":"C","stresc":"36.4","stresn":"36.4","stresu":"C","stnrlo":null,"stnrhi":null,"nrind":null,"pos":null,"loc":null,"dtc":"2024-04-19","dy":"7","visit":"WEEK 1","visitnum":"4.0","epoch":"FOLLOW-UP"},{"seq":"32","testcd":"WEIGHT","test":"Weight","cat":null,"orres":"58.5","orresu":"kg","stresc":"58.5","stresn":"58.5","stresu":"kg","stnrlo":null,"stnrhi":null,"nrind":null,"pos":null,"loc":null,"dtc":"2024-04-19","dy":"7","visit":"WEEK 1","visitnum":"4.0","epoch":"FOLLOW-UP"},{"seq":"33","testcd":"BMI","test":"BMI","cat":null,"orres":"19.2","orresu":"kg/m2","stresc":"19.2","stresn":"19.2","stresu":"kg/m2","stnrlo":null,"stnrhi":null,"nrind":null,"pos":null,"loc":null,"dtc":"2024-05-23","dy":"41","visit":"WEEK 6","visitnum":"6.0","epoch":"FOLLOW-UP"},{"seq":"34","testcd":"DIABP","test":"Diastolic Blood Pressure","cat":null,"orres":"64.6","orresu":"mmHg","stresc":"64.6","stresn":"64.6","stresu":"mmHg","stnrlo":null,"stnrhi":null,"nrind":null,"pos":null,"loc":null,"dtc":"2024-05-23","dy":"41","visit":"WEEK 6","visitnum":"6.0","epoch":"FOLLOW-UP"},{"seq":"35","testcd":"HEIGHT","test":"Height","cat":null,"orres":"174.7","orresu":"cm","stresc":"174.7","stresn":"174.7","stresu":"cm","stnrlo":null,"stnrhi":null,"nrind":null,"pos":null,"loc":null,"dtc":"2024-05-23","dy":"41","visit":"WEEK 6","visitnum":"6.0","epoch":"FOLLOW-UP"},{"seq":"36","testcd":"PULSE","test":"Pulse Rate","cat":null,"orres":"81.7","orresu":"beats/min","stresc":"81.7","stresn":"81.7","stresu":"beats/min","stnrlo":null,"stnrhi":null,"nrind":null,"pos":null,"loc":null,"dtc":"2024-05-23","dy":"41","visit":"WEEK 6","visitnum":"6.0","epoch":"FOLLOW-UP"},{"seq":"37","testcd":"RESP","test":"Respiratory Rate","cat":null,"orres":"11.2","orresu":"breaths/min","stresc":"11.2","stresn":"11.2","stresu":"breaths/min","stnrlo":null,"stnrhi":null,"nrind":null,"pos":null,"loc":null,"dtc":"2024-05-23","dy":"41","visit":"WEEK 6","visitnum":"6.0","epoch":"FOLLOW-UP"},{"seq":"38","testcd":"SYSBP","test":"Systolic Blood Pressure","cat":null,"orres":"125.0","orresu":"mmHg","stresc":"125.0","stresn":"125.0","stresu":"mmHg","stnrlo":null,"stnrhi":null,"nrind":null,"pos":null,"loc":null,"dtc":"2024-05-23","dy":"41","visit":"WEEK 6","visitnum":"6.0","epoch":"FOLLOW-UP"},{"seq":"39","testcd":"TEMP","test":"Temperature","cat":null,"orres":"36.4","orresu":"C","stresc":"36.4","stresn":"36.4","stresu":"C","stnrlo":null,"stnrhi":null,"nrind":null,"pos":null,"loc":null,"dtc":"2024-05-23","dy":"41","visit":"WEEK 6","visitnum":"6.0","epoch":"FOLLOW-UP"},{"seq":"40","testcd":"WEIGHT","test":"Weight","cat":null,"orres":"58.7","orresu":"kg","stresc":"58.7","stresn":"58.7","stresu":"kg","stnrlo":null,"stnrhi":null,"nrind":null,"pos":null,"loc":null,"dtc":"2024-05-23","dy":"41","visit":"WEEK 6","visitnum":"6.0","epoch":"FOLLOW-UP"},{"seq":"41","testcd":"BMI","test":"BMI","cat":null,"orres":"18.9","orresu":"kg/m2","stresc":"18.9","stresn":"18.9","stresu":"kg/m2","stnrlo":null,"stnrhi":null,"nrind":null,"pos":null,"loc":null,"dtc":"2024-07-07","dy":"86","visit":"WEEK 12","visitnum":"7.0","epoch":"FOLLOW-UP"},{"seq":"42","testcd":"DIABP","test":"Diastolic Blood Pressure","cat":null,"orres":"65.7","orresu":"mmHg","stresc":"65.7","stresn":"65.7","stresu":"mmHg","stnrlo":null,"stnrhi":null,"nrind":null,"pos":null,"loc":null,"dtc":"2024-07-07","dy":"86","visit":"WEEK 12","visitnum":"7.0","epoch":"FOLLOW-UP"},{"seq":"43","testcd":"HEIGHT","test":"Height","cat":null,"orres":"175.2","orresu":"cm","stresc":"175.2","stresn":"175.2","stresu":"cm","stnrlo":null,"stnrhi":null,"nrind":null,"pos":null,"loc":null,"dtc":"2024-07-07","dy":"86","visit":"WEEK 12","visitnum":"7.0","epoch":"FOLLOW-UP"},{"seq":"44","testcd":"PULSE","test":"Pulse Rate","cat":null,"orres":"82.8","orresu":"beats/min","stresc":"82.8","stresn":"82.8","stresu":"beats/min","stnrlo":null,"stnrhi":null,"nrind":null,"pos":null,"loc":null,"dtc":"2024-07-07","dy":"86","visit":"WEEK 12","visitnum":"7.0","epoch":"FOLLOW-UP"},{"seq":"45","testcd":"RESP","test":"Respiratory Rate","cat":null,"orres":"13.3","orresu":"breaths/min","stresc":"13.3","stresn":"13.3","stresu":"breaths/min","stnrlo":null,"stnrhi":null,"nrind":null,"pos":null,"loc":null,"dtc":"2024-07-07","dy":"86","visit":"WEEK 12","visitnum":"7.0","epoch":"FOLLOW-UP"},{"seq":"46","testcd":"SYSBP","test":"Systolic Blood Pressure","cat":null,"orres":"128.5","orresu":"mmHg","stresc":"128.5","stresn":"128.5","stresu":"mmHg","stnrlo":null,"stnrhi":null,"nrind":null,"pos":null,"loc":null,"dtc":"2024-07-07","dy":"86","visit":"WEEK 12","visitnum":"7.0","epoch":"FOLLOW-UP"},{"seq":"47","testcd":"TEMP","test":"Temperature","cat":null,"orres":"36.4","orresu":"C","stresc":"36.4","stresn":"36.4","stresu":"C","stnrlo":null,"stnrhi":null,"nrind":null,"pos":null,"loc":null,"dtc":"2024-07-07","dy":"86","visit":"WEEK 12","visitnum":"7.0","epoch":"FOLLOW-UP"},{"seq":"48","testcd":"WEIGHT","test":"Weight","cat":null,"orres":"58.1","orresu":"kg","stresc":"58.1","stresn":"58.1","stresu":"kg","stnrlo":null,"stnrhi":null,"nrind":null,"pos":null,"loc":null,"dtc":"2024-07-07","dy":"86","visit":"WEEK 12","visitnum":"7.0","epoch":"FOLLOW-UP"}]},"section_10_questionnaires_and_scores":{"questionnaires":[{"seq":"1","testcd":"MADRS01","test":"Apparent Sadness","cat":"MADRS","scat":null,"orres":"3","stresc":"3","stresn":"3.0","dtc":"2024-03-25","dy":"-19","visit":"SCREENING","visitnum":"1.0"},{"seq":"2","testcd":"MADRS02","test":"Reported Sadness","cat":"MADRS","scat":null,"orres":"2","stresc":"2","stresn":"2.0","dtc":"2024-03-25","dy":"-19","visit":"SCREENING","visitnum":"1.0"},{"seq":"3","testcd":"MADRS03","test":"Inner Tension","cat":"MADRS","scat":null,"orres":"3","stresc":"3","stresn":"3.0","dtc":"2024-03-25","dy":"-19","visit":"SCREENING","visitnum":"1.0"},{"seq":"4","testcd":"MADRS04","test":"Reduced Sleep","cat":"MADRS","scat":null,"orres":"5","stresc":"5","stresn":"5.0","dtc":"2024-03-25","dy":"-19","visit":"SCREENING","visitnum":"1.0"},{"seq":"5","testcd":"MADRS05","test":"Reduced Appetite","cat":"MADRS","scat":null,"orres":"4","stresc":"4","stresn":"4.0","dtc":"2024-03-25","dy":"-19","visit":"SCREENING","visitnum":"1.0"},{"seq":"6","testcd":"MADRS06","test":"Concentration Difficulties","cat":"MADRS","scat":null,"orres":"1","stresc":"1","stresn":"1.0","dtc":"2024-03-25","dy":"-19","visit":"SCREENING","visitnum":"1.0"},{"seq":"7","testcd":"MADRS07","test":"Lassitude","cat":"MADRS","scat":null,"orres":"3","stresc":"3","stresn":"3.0","dtc":"2024-03-25","dy":"-19","visit":"SCREENING","visitnum":"1.0"},{"seq":"8","testcd":"MADRS08","test":"Inability to Feel","cat":"MADRS","scat":null,"orres":"5","stresc":"5","stresn":"5.0","dtc":"2024-03-25","dy":"-19","visit":"SCREENING","visitnum":"1.0"},{"seq":"9","testcd":"MADRS09","test":"Pessimistic Thoughts","cat":"MADRS","scat":null,"orres":"3","stresc":"3","stresn":"3.0","dtc":"2024-03-25","dy":"-19","visit":"SCREENING","visitnum":"1.0"},{"seq":"10","testcd":"MADRS10","test":"Suicidal Thoughts","cat":"MADRS","scat":null,"orres":"2","stresc":"2","stresn":"2.0","dtc":"2024-03-25","dy":"-19","visit":"SCREENING","visitnum":"1.0"},{"seq":"11","testcd":"MADRSTOT","test":"MADRS Total Score","cat":"MADRS","scat":"TOTAL","orres":"31.0","stresc":"31.0","stresn":"31.0","dtc":"2024-03-25","dy":"-19","visit":"SCREENING","visitnum":"1.0"},{"seq":"12","testcd":"MADRS01","test":"Apparent Sadness","cat":"MADRS","scat":null,"orres":"3","stresc":"3","stresn":"3.0","dtc":"2024-04-13","dy":"1","visit":"DOSING DAY","visitnum":"2.0"},{"seq":"13","testcd":"MADRS02","test":"Reported Sadness","cat":"MADRS","scat":null,"orres":"3","stresc":"3","stresn":"3.0","dtc":"2024-04-13","dy":"1","visit":"DOSING DAY","visitnum":"2.0"},{"seq":"14","testcd":"MADRS03","test":"Inner Tension","cat":"MADRS","scat":null,"orres":"0","stresc":"0","stresn":"0.0","dtc":"2024-04-13","dy":"1","visit":"DOSING DAY","visitnum":"2.0"},{"seq":"15","testcd":"MADRS04","test":"Reduced Sleep","cat":"MADRS","scat":null,"orres":"3","stresc":"3","stresn":"3.0","dtc":"2024-04-13","dy":"1","visit":"DOSING DAY","visitnum":"2.0"},{"seq":"16","testcd":"MADRS05","test":"Reduced Appetite","cat":"MADRS","scat":null,"orres":"5","stresc":"5","stresn":"5.0","dtc":"2024-04-13","dy":"1","visit":"DOSING DAY","visitnum":"2.0"},{"seq":"17","testcd":"MADRS06","test":"Concentration Difficulties","cat":"MADRS","scat":null,"orres":"2","stresc":"2","stresn":"2.0","dtc":"2024-04-13","dy":"1","visit":"DOSING DAY","visitnum":"2.0"},{"seq":"18","testcd":"MADRS07","test":"Lassitude","cat":"MADRS","scat":null,"orres":"2","stresc":"2","stresn":"2.0","dtc":"2024-04-13","dy":"1","visit":"DOSING DAY","visitnum":"2.0"},{"seq":"19","testcd":"MADRS08","test":"Inability to Feel","cat":"MADRS","scat":null,"orres":"3","stresc":"3","stresn":"3.0","dtc":"2024-04-13","dy":"1","visit":"DOSING DAY","visitnum":"2.0"},{"seq":"20","testcd":"MADRS09","test":"Pessimistic Thoughts","cat":"MADRS","scat":null,"orres":"3","stresc":"3","stresn":"3.0","dtc":"2024-04-13","dy":"1","visit":"DOSING DAY","visitnum":"2.0"},{"seq":"21","testcd":"MADRS10","test":"Suicidal Thoughts","cat":"MADRS","scat":null,"orres":"2","stresc":"2","stresn":"2.0","dtc":"2024-04-13","dy":"1","visit":"DOSING DAY","visitnum":"2.0"},{"seq":"22","testcd":"MADRSTOT","test":"MADRS Total Score","cat":"MADRS","scat":"TOTAL","orres":"26.0","stresc":"26.0","stresn":"26.0","dtc":"2024-04-13","dy":"1","visit":"DOSING DAY","visitnum":"2.0"}],"findings_about":[]},"section_11_protocol_deviations":{"deviations":[{"seq":"1","term":"Visit WEEK 1 occurred 1 days early (Day 7 vs planned Day 8)","decod":"VISIT OCCURRED OUTSIDE VISIT WINDOW","cat":"MINOR","scat":"VISIT WINDOW","start_dtc":"2024-04-19","end_dtc":null,"visit":null},{"seq":"2","term":"Missed PSILOCYBIN dose on 2024-04-20","decod":"MISSED DOSE","cat":"MINOR","scat":"DOSING","start_dtc":"2024-04-20","end_dtc":null,"visit":null}],"total":2},"section_12_disposition":{"completion_status":"COMPLETED","disposition_records":[{"seq":"1","term":"INFORMED CONSENT OBTAINED","decod":"INFORMED CONSENT OBTAINED","cat":"PROTOCOL MILESTONE","scat":null,"dtc":"2024-03-25","dy":null,"visit":null,"epoch":"SCREENING"},{"seq":"2","term":"RANDOMIZED","decod":"RANDOMIZED","cat":"PROTOCOL MILESTONE","scat":null,"dtc":"2024-04-13","dy":null,"visit":null,"epoch":"TREATMENT"},{"seq":"3","term":"COMPLETED","decod":"COMPLETED","cat":"DISPOSITION EVENT","scat":null,"dtc":"2024-08-04","dy":null,"visit":null,"epoch":"FOLLOW-UP"}],"death":null},"section_13_hospitalizations":{"items":[{"seq":"1","term":"Anxiety","decod":"Anxiety","cat":"HOSPITALIZATION","start_dtc":"2024-05-05","end_dtc":"2024-05-08","epoch":"TREATMENT"}],"total":1},"section_14_substance_use":{"items":[{"seq":"1","substance":"ALCOHOL","decod":"ALCOHOL","cat":"ALCOHOL","scat":null,"usage":"N","dose":null,"dosu":null,"freq":null,"start_dtc":null,"end_dtc":null},{"seq":"2","substance":"COFFEE","decod":"COFFEE","cat":"CAFFEINE","scat":null,"usage":"Y","dose":"5.0","dosu":"CUPS/DAY","freq":"QD","start_dtc":"2011-03-29","end_dtc":null},{"seq":"3","substance":"CIGARETTES","decod":"CIGARETTES","cat":"TOBACCO","scat":"CIGARETTES","usage":"Y","dose":null,"dosu":null,"freq":null,"start_dtc":"1996-04-01","end_dtc":"1999-04-01"}],"total":3},"section_15_subject_status":{"items":[{"seq":"1","testcd":"SURVSTAT","test":"Survival Status","orres":"ALIVE","stresc":"ALIVE","dtc":"2024-08-04","visit":"END OF STUDY","epoch":"FOLLOW-UP"}],"total":1}}