{"subject_id":"TERPSIS-MDD-201-SITE003-0048","study_id":"TERPSIS-MDD-201","generated_at":"2026-06-16T11:15:11.672672+00:00","sdtmig_version":"3.4","flags":{"has_serious_ae":false,"has_fatal_ae":false,"has_protocol_deviation":true,"n_protocol_deviations":4,"n_adverse_events":2,"n_concomitant_meds":4,"max_ae_severity":"MODERATE","screen_failure":false,"discontinued_early":false,"discontinuation_reason":null,"death":false,"exposure_days":78},"timeline":[{"dtc":"2016-04-11","dy":"-2935","event":"CM START: LISINOPRIL","domain":"CM","category":"concomitant_med"},{"dtc":"2022-04-10","dy":"-745","event":"CM START: OMEPRAZOLE","domain":"CM","category":"concomitant_med"},{"dtc":"2024-04-07","dy":"-17","event":"VISIT: SCREENING","domain":"SV","category":"visit"},{"dtc":"2024-04-09","dy":"-15","event":"INFORMED CONSENT OBTAINED","domain":"DS","category":"milestone"},{"dtc":"2024-04-24","dy":"1","event":"RANDOMIZED","domain":"DS","category":"milestone"},{"dtc":"2024-04-24","dy":"1","event":"FIRST DOSE: PSILOCYBIN","domain":"EX","category":"exposure"},{"dtc":"2024-04-24","dy":"1","event":"VISIT: DOSING DAY","domain":"SV","category":"visit"},{"dtc":"2024-04-25","dy":"2","event":"VISIT: DAY 2","domain":"SV","category":"visit"},{"dtc":"2024-04-30","dy":"7","event":"VISIT: WEEK 1","domain":"SV","category":"visit"},{"dtc":"2024-05-02","dy":"9","event":"AE: Anxiety (MODERATE)","domain":"AE","category":"adverse_event"},{"dtc":"2024-05-11","dy":"18","event":"CM START: IBUPROFEN","domain":"CM","category":"concomitant_med"},{"dtc":"2024-05-15","dy":"22","event":"DEVIATION: MISSED DOSE","domain":"DV","category":"deviation"},{"dtc":"2024-05-16","dy":"23","event":"DEVIATION: VISIT OCCURRED OUTSIDE VISIT WINDOW","domain":"DV","category":"deviation"},{"dtc":"2024-05-16","dy":"23","event":"VISIT: WEEK 3","domain":"SV","category":"visit"},{"dtc":"2024-05-21","dy":"28","event":"AE: Anxiety (MODERATE)","domain":"AE","category":"adverse_event"},{"dtc":"2024-05-21","dy":"28","event":"CM START: LORAZEPAM","domain":"CM","category":"concomitant_med"},{"dtc":"2024-06-07","dy":"45","event":"VISIT: WEEK 6","domain":"SV","category":"visit"},{"dtc":"2024-07-13","dy":"81","event":"DEVIATION: VISIT OCCURRED OUTSIDE VISIT WINDOW","domain":"DV","category":"deviation"},{"dtc":"2024-07-13","dy":"81","event":"DEVIATION: MISSED ASSESSMENT","domain":"DV","category":"deviation"},{"dtc":"2024-07-13","dy":"81","event":"VISIT: WEEK 12","domain":"SV","category":"visit"},{"dtc":"2024-08-15","dy":"114","event":"COMPLETED","domain":"DS","category":"milestone"}],"section_1_demographics":{"usubjid":"TERPSIS-MDD-201-SITE003-0048","subjid":"0048","siteid":"SITE003","age":"51","ageu":"YEARS","sex":"F","race":"WHITE","ethnicity":"NOT HISPANIC OR LATINO","country":"USA","arm":"Psilocybin 1mg (Control)","armcd":"PSI1","actarm":"Psilocybin 1mg (Control)","actarmcd":"PSI1","randomization_date":null,"informed_consent_date":"2024-04-09","reference_start_date":"2024-04-24","reference_end_date":"2024-08-15","screen_failure":false,"death_flag":null,"death_date":null,"subject_characteristics":[{"testcd":"ALCUSE","test":"Alcohol Use","orres":"NON-DRINKER","stresc":"NON-DRINKER","visit":null,"dtc":"2024-04-09"},{"testcd":"BMI","test":"Body Mass Index","orres":"17.9","stresc":"17.9","visit":null,"dtc":"2024-04-09"},{"testcd":"DURDIS","test":"Duration of Disease","orres":"97 months","stresc":"97","visit":null,"dtc":"2024-04-09"},{"testcd":"TOBPKYR","test":"Tobacco Pack-Years","orres":"18","stresc":"18","visit":null,"dtc":"2024-04-09"},{"testcd":"TOBUSE","test":"Tobacco Use","orres":"FORMER SMOKER","stresc":"FORMER SMOKER","visit":null,"dtc":"2024-04-09"}]},"section_2_medical_history":{"items":[{"seq":"1","term":"DEPRESSION","decod":"DEPRESSION","cat":"PSYCHIATRIC","scat":null,"presp":null,"occur":null,"status":null,"onset_dtc":"2016-04-11","end_dtc":"2017-04-25","visit":null},{"seq":"2","term":"DIABETES MELLITUS TYPE 2","decod":"DIABETES MELLITUS TYPE 2","cat":"ENDOCRINE","scat":null,"presp":null,"occur":null,"status":null,"onset_dtc":"2020-04-10","end_dtc":"2021-02-24","visit":null},{"seq":"3","term":"GASTROESOPHAGEAL REFLUX DISEASE","decod":"GASTROESOPHAGEAL REFLUX DISEASE","cat":"GASTROINTESTINAL","scat":null,"presp":null,"occur":null,"status":null,"onset_dtc":"2022-04-10","end_dtc":null,"visit":null},{"seq":"4","term":"HYPERTENSION","decod":"HYPERTENSION","cat":"CARDIOVASCULAR","scat":null,"presp":null,"occur":null,"status":null,"onset_dtc":"2016-04-11","end_dtc":null,"visit":null}]},"section_3_inclusion_exclusion":{"criteria":[]},"section_4_trial_participation":{"visits":[{"visitnum":"1.0","visit":"SCREENING","start_dtc":"2024-04-07","end_dtc":"2024-04-07","updes":null},{"visitnum":"2.0","visit":"DOSING DAY","start_dtc":"2024-04-24","end_dtc":"2024-04-24","updes":null},{"visitnum":"3.0","visit":"DAY 2","start_dtc":"2024-04-25","end_dtc":"2024-04-25","updes":null},{"visitnum":"4.0","visit":"WEEK 1","start_dtc":"2024-04-30","end_dtc":"2024-04-30","updes":null},{"visitnum":"5.0","visit":"WEEK 3","start_dtc":"2024-05-16","end_dtc":"2024-05-16","updes":null},{"visitnum":"6.0","visit":"WEEK 6","start_dtc":"2024-06-07","end_dtc":"2024-06-07","updes":null},{"visitnum":"7.0","visit":"WEEK 12","start_dtc":"2024-07-13","end_dtc":"2024-07-13","updes":null}],"epochs":[{"seq":"1","etcd":"SCRN","element":"Screening","start_dtc":"2024-03-27","end_dtc":"2024-04-24","updes":null},{"seq":"2","etcd":"TRT","element":"Treatment/Observation","start_dtc":"2024-04-24","end_dtc":"2024-07-18","updes":null},{"seq":"3","etcd":"FU","element":"Follow-up","start_dtc":"2024-07-18","end_dtc":"2024-07-18","updes":null}],"visit_count":7},"section_5_concomitant_medications":{"medications":[{"seq":"1","trt":"LISINOPRIL","decod":"LISINOPRIL","cat":"PRIOR","dose":"10","doseu":null,"dosef":"QD","route":"ORAL","indication":"HYPERTENSION","start_dtc":"2016-04-11","end_dtc":"2024-08-15","ongoing":null,"visit":null},{"seq":"2","trt":"OMEPRAZOLE","decod":"OMEPRAZOLE","cat":"PRIOR","dose":"20","doseu":null,"dosef":"QD","route":"ORAL","indication":"GASTROESOPHAGEAL REFLUX DISEASE","start_dtc":"2022-04-10","end_dtc":"2024-08-15","ongoing":null,"visit":null},{"seq":"3","trt":"IBUPROFEN","decod":"IBUPROFEN","cat":"CONCOMITANT","dose":null,"doseu":null,"dosef":"PRN","route":"ORAL","indication":null,"start_dtc":"2024-05-11","end_dtc":"2024-07-10","ongoing":null,"visit":null},{"seq":"4","trt":"LORAZEPAM","decod":"LORAZEPAM","cat":"CONCOMITANT","dose":"0.5","doseu":null,"dosef":"PRN","route":"ORAL","indication":"ANXIETY","start_dtc":"2024-05-21","end_dtc":"2024-06-05","ongoing":null,"visit":null}]},"section_6_exposure":{"exposure_as_administered":[{"seq":"1","trt":"PSILOCYBIN","dose":"1.0","doseu":null,"dosef":"ONCE","route":"ORAL","lot":null,"start_dtc":"2024-04-24","end_dtc":"2024-07-11","start_dy":"1","end_dy":"79","epoch":"TREATMENT","visit":null}],"exposure_as_collected":[{"seq":"1","trt":"PSILOCYBIN","dose":"1.0","doseu":null,"dosef":"ONCE","route":"ORAL","start_dtc":"2024-04-24","end_dtc":"2024-04-24","visit":"DOSING DAY"},{"seq":"2","trt":"PSILOCYBIN","dose":"1.0","doseu":null,"dosef":"ONCE","route":"ORAL","start_dtc":"2024-04-25","end_dtc":"2024-04-25","visit":"DOSING DAY"},{"seq":"3","trt":"PSILOCYBIN","dose":"1.0","doseu":null,"dosef":"ONCE","route":"ORAL","start_dtc":"2024-04-26","end_dtc":"2024-04-26","visit":"DOSING DAY"},{"seq":"4","trt":"PSILOCYBIN","dose":"1.0","doseu":null,"dosef":"ONCE","route":"ORAL","start_dtc":"2024-04-27","end_dtc":"2024-04-27","visit":"DOSING DAY"},{"seq":"5","trt":"PSILOCYBIN","dose":"1.0","doseu":null,"dosef":"ONCE","route":"ORAL","start_dtc":"2024-04-28","end_dtc":"2024-04-28","visit":"DAY 2"},{"seq":"6","trt":"PSILOCYBIN","dose":"1.0","doseu":null,"dosef":"ONCE","route":"ORAL","start_dtc":"2024-04-29","end_dtc":"2024-04-29","visit":"WEEK 1"},{"seq":"7","trt":"PSILOCYBIN","dose":"1.0","doseu":null,"dosef":"ONCE","route":"ORAL","start_dtc":"2024-04-30","end_dtc":"2024-04-30","visit":"WEEK 1"},{"seq":"8","trt":"PSILOCYBIN","dose":"1.0","doseu":null,"dosef":"ONCE","route":"ORAL","start_dtc":"2024-05-01","end_dtc":"2024-05-01","visit":"WEEK 1"},{"seq":"9","trt":"PSILOCYBIN","dose":"1.0","doseu":null,"dosef":"ONCE","route":"ORAL","start_dtc":"2024-05-02","end_dtc":"2024-05-02","visit":"WEEK 1"},{"seq":"10","trt":"PSILOCYBIN","dose":"1.0","doseu":null,"dosef":"ONCE","route":"ORAL","start_dtc":"2024-05-03","end_dtc":"2024-05-03","visit":"WEEK 1"},{"seq":"11","trt":"PSILOCYBIN","dose":"1.0","doseu":null,"dosef":"ONCE","route":"ORAL","start_dtc":"2024-05-04","end_dtc":"2024-05-04","visit":"WEEK 1"},{"seq":"12","trt":"PSILOCYBIN","dose":"1.0","doseu":null,"dosef":"ONCE","route":"ORAL","start_dtc":"2024-05-05","end_dtc":"2024-05-05","visit":null},{"seq":"13","trt":"PSILOCYBIN","dose":"1.0","doseu":null,"dosef":"ONCE","route":"ORAL","start_dtc":"2024-05-06","end_dtc":"2024-05-06","visit":null},{"seq":"14","trt":"PSILOCYBIN","dose":"1.0","doseu":null,"dosef":"ONCE","route":"ORAL","start_dtc":"2024-05-07","end_dtc":"2024-05-07","visit":null},{"seq":"15","trt":"PSILOCYBIN","dose":"1.0","doseu":null,"dosef":"ONCE","route":"ORAL","start_dtc":"2024-05-08","end_dtc":"2024-05-08","visit":null},{"seq":"16","trt":"PSILOCYBIN","dose":"1.0","doseu":null,"dosef":"ONCE","route":"ORAL","start_dtc":"2024-05-09","end_dtc":"2024-05-09","visit":null},{"seq":"17","trt":"PSILOCYBIN","dose":"1.0","doseu":null,"dosef":"ONCE","route":"ORAL","start_dtc":"2024-05-10","end_dtc":"2024-05-10","visit":null},{"seq":"18","trt":"PSILOCYBIN","dose":"1.0","doseu":null,"dosef":"ONCE","route":"ORAL","start_dtc":"2024-05-11","end_dtc":"2024-05-11","visit":null},{"seq":"19","trt":"PSILOCYBIN","dose":"1.0","doseu":null,"dosef":"ONCE","route":"ORAL","start_dtc":"2024-05-12","end_dtc":"2024-05-12","visit":"WEEK 3"},{"seq":"20","trt":"PSILOCYBIN","dose":"1.0","doseu":null,"dosef":"ONCE","route":"ORAL","start_dtc":"2024-05-13","end_dtc":"2024-05-13","visit":"WEEK 3"},{"seq":"21","trt":"PSILOCYBIN","dose":"1.0","doseu":null,"dosef":"ONCE","route":"ORAL","start_dtc":"2024-05-14","end_dtc":"2024-05-14","visit":"WEEK 3"},{"seq":"22","trt":"PSILOCYBIN","dose":null,"doseu":null,"dosef":"ONCE","route":"ORAL","start_dtc":"2024-05-15","end_dtc":"2024-05-15","visit":"WEEK 3"},{"seq":"23","trt":"PSILOCYBIN","dose":"1.0","doseu":null,"dosef":"ONCE","route":"ORAL","start_dtc":"2024-05-16","end_dtc":"2024-05-16","visit":"WEEK 3"},{"seq":"24","trt":"PSILOCYBIN","dose":"1.0","doseu":null,"dosef":"ONCE","route":"ORAL","start_dtc":"2024-05-17","end_dtc":"2024-05-17","visit":"WEEK 3"},{"seq":"25","trt":"PSILOCYBIN","dose":"1.0","doseu":null,"dosef":"ONCE","route":"ORAL","start_dtc":"2024-05-18","end_dtc":"2024-05-18","visit":"WEEK 3"},{"seq":"26","trt":"PSILOCYBIN","dose":"1.0","doseu":null,"dosef":"ONCE","route":"ORAL","start_dtc":"2024-05-19","end_dtc":"2024-05-19","visit":null},{"seq":"27","trt":"PSILOCYBIN","dose":"1.0","doseu":null,"dosef":"ONCE","route":"ORAL","start_dtc":"2024-05-20","end_dtc":"2024-05-20","visit":null},{"seq":"28","trt":"PSILOCYBIN","dose":"1.0","doseu":null,"dosef":"ONCE","route":"ORAL","start_dtc":"2024-05-21","end_dtc":"2024-05-21","visit":null},{"seq":"29","trt":"PSILOCYBIN","dose":"1.0","doseu":null,"dosef":"ONCE","route":"ORAL","start_dtc":"2024-05-22","end_dtc":"2024-05-22","visit":null},{"seq":"30","trt":"PSILOCYBIN","dose":"1.0","doseu":null,"dosef":"ONCE","route":"ORAL","start_dtc":"2024-05-23","end_dtc":"2024-05-23","visit":null},{"seq":"31","trt":"PSILOCYBIN","dose":"1.0","doseu":null,"dosef":"ONCE","route":"ORAL","start_dtc":"2024-05-24","end_dtc":"2024-05-24","visit":null},{"seq":"32","trt":"PSILOCYBIN","dose":"1.0","doseu":null,"dosef":"ONCE","route":"ORAL","start_dtc":"2024-05-25","end_dtc":"2024-05-25","visit":null},{"seq":"33","trt":"PSILOCYBIN","dose":"1.0","doseu":null,"dosef":"ONCE","route":"ORAL","start_dtc":"2024-05-26","end_dtc":"2024-05-26","visit":null},{"seq":"34","trt":"PSILOCYBIN","dose":"1.0","doseu":null,"dosef":"ONCE","route":"ORAL","start_dtc":"2024-05-27","end_dtc":"2024-05-27","visit":null},{"seq":"35","trt":"PSILOCYBIN","dose":"1.0","doseu":null,"dosef":"ONCE","route":"ORAL","start_dtc":"2024-05-28","end_dtc":"2024-05-28","visit":null},{"seq":"36","trt":"PSILOCYBIN","dose":"1.0","doseu":null,"dosef":"ONCE","route":"ORAL","start_dtc":"2024-05-29","end_dtc":"2024-05-29","visit":null},{"seq":"37","trt":"PSILOCYBIN","dose":"1.0","doseu":null,"dosef":"ONCE","route":"ORAL","start_dtc":"2024-05-30","end_dtc":"2024-05-30","visit":null},{"seq":"38","trt":"PSILOCYBIN","dose":"1.0","doseu":null,"dosef":"ONCE","route":"ORAL","start_dtc":"2024-05-31","end_dtc":"2024-05-31","visit":null},{"seq":"39","trt":"PSILOCYBIN","dose":"1.0","doseu":null,"dosef":"ONCE","route":"ORAL","start_dtc":"2024-06-01","end_dtc":"2024-06-01","visit":null},{"seq":"40","trt":"PSILOCYBIN","dose":"1.0","doseu":null,"dosef":"ONCE","route":"ORAL","start_dtc":"2024-06-02","end_dtc":"2024-06-02","visit":"WEEK 6"},{"seq":"41","trt":"PSILOCYBIN","dose":"1.0","doseu":null,"dosef":"ONCE","route":"ORAL","start_dtc":"2024-06-03","end_dtc":"2024-06-03","visit":"WEEK 6"},{"seq":"42","trt":"PSILOCYBIN","dose":"1.0","doseu":null,"dosef":"ONCE","route":"ORAL","start_dtc":"2024-06-04","end_dtc":"2024-06-04","visit":"WEEK 6"},{"seq":"43","trt":"PSILOCYBIN","dose":"1.0","doseu":null,"dosef":"ONCE","route":"ORAL","start_dtc":"2024-06-05","end_dtc":"2024-06-05","visit":"WEEK 6"},{"seq":"44","trt":"PSILOCYBIN","dose":"1.0","doseu":null,"dosef":"ONCE","route":"ORAL","start_dtc":"2024-06-06","end_dtc":"2024-06-06","visit":"WEEK 6"},{"seq":"45","trt":"PSILOCYBIN","dose":"1.0","doseu":null,"dosef":"ONCE","route":"ORAL","start_dtc":"2024-06-07","end_dtc":"2024-06-07","visit":"WEEK 6"},{"seq":"46","trt":"PSILOCYBIN","dose":"1.0","doseu":null,"dosef":"ONCE","route":"ORAL","start_dtc":"2024-06-08","end_dtc":"2024-06-08","visit":"WEEK 6"},{"seq":"47","trt":"PSILOCYBIN","dose":"1.0","doseu":null,"dosef":"ONCE","route":"ORAL","start_dtc":"2024-06-09","end_dtc":"2024-06-09","visit":null},{"seq":"48","trt":"PSILOCYBIN","dose":"1.0","doseu":null,"dosef":"ONCE","route":"ORAL","start_dtc":"2024-06-10","end_dtc":"2024-06-10","visit":null},{"seq":"49","trt":"PSILOCYBIN","dose":"1.0","doseu":null,"dosef":"ONCE","route":"ORAL","start_dtc":"2024-06-11","end_dtc":"2024-06-11","visit":null},{"seq":"50","trt":"PSILOCYBIN","dose":"1.0","doseu":null,"dosef":"ONCE","route":"ORAL","start_dtc":"2024-06-12","end_dtc":"2024-06-12","visit":null},{"seq":"51","trt":"PSILOCYBIN","dose":"1.0","doseu":null,"dosef":"ONCE","route":"ORAL","start_dtc":"2024-06-13","end_dtc":"2024-06-13","visit":null},{"seq":"52","trt":"PSILOCYBIN","dose":"1.0","doseu":null,"dosef":"ONCE","route":"ORAL","start_dtc":"2024-06-14","end_dtc":"2024-06-14","visit":null},{"seq":"53","trt":"PSILOCYBIN","dose":"1.0","doseu":null,"dosef":"ONCE","route":"ORAL","start_dtc":"2024-06-15","end_dtc":"2024-06-15","visit":null},{"seq":"54","trt":"PSILOCYBIN","dose":"1.0","doseu":null,"dosef":"ONCE","route":"ORAL","start_dtc":"2024-06-16","end_dtc":"2024-06-16","visit":null},{"seq":"55","trt":"PSILOCYBIN","dose":"1.0","doseu":null,"dosef":"ONCE","route":"ORAL","start_dtc":"2024-06-17","end_dtc":"2024-06-17","visit":null},{"seq":"56","trt":"PSILOCYBIN","dose":"1.0","doseu":null,"dosef":"ONCE","route":"ORAL","start_dtc":"2024-06-18","end_dtc":"2024-06-18","visit":null},{"seq":"57","trt":"PSILOCYBIN","dose":"1.0","doseu":null,"dosef":"ONCE","route":"ORAL","start_dtc":"2024-06-19","end_dtc":"2024-06-19","visit":null},{"seq":"58","trt":"PSILOCYBIN","dose":"1.0","doseu":null,"dosef":"ONCE","route":"ORAL","start_dtc":"2024-06-20","end_dtc":"2024-06-20","visit":null},{"seq":"59","trt":"PSILOCYBIN","dose":"1.0","doseu":null,"dosef":"ONCE","route":"ORAL","start_dtc":"2024-06-21","end_dtc":"2024-06-21","visit":null},{"seq":"60","trt":"PSILOCYBIN","dose":"1.0","doseu":null,"dosef":"ONCE","route":"ORAL","start_dtc":"2024-06-22","end_dtc":"2024-06-22","visit":null},{"seq":"61","trt":"PSILOCYBIN","dose":"1.0","doseu":null,"dosef":"ONCE","route":"ORAL","start_dtc":"2024-06-23","end_dtc":"2024-06-23","visit":null},{"seq":"62","trt":"PSILOCYBIN","dose":"1.0","doseu":null,"dosef":"ONCE","route":"ORAL","start_dtc":"2024-06-24","end_dtc":"2024-06-24","visit":null},{"seq":"63","trt":"PSILOCYBIN","dose":"1.0","doseu":null,"dosef":"ONCE","route":"ORAL","start_dtc":"2024-06-25","end_dtc":"2024-06-25","visit":null},{"seq":"64","trt":"PSILOCYBIN","dose":"1.0","doseu":null,"dosef":"ONCE","route":"ORAL","start_dtc":"2024-06-26","end_dtc":"2024-06-26","visit":null},{"seq":"65","trt":"PSILOCYBIN","dose":"1.0","doseu":null,"dosef":"ONCE","route":"ORAL","start_dtc":"2024-06-27","end_dtc":"2024-06-27","visit":null},{"seq":"66","trt":"PSILOCYBIN","dose":"1.0","doseu":null,"dosef":"ONCE","route":"ORAL","start_dtc":"2024-06-28","end_dtc":"2024-06-28","visit":null},{"seq":"67","trt":"PSILOCYBIN","dose":"1.0","doseu":null,"dosef":"ONCE","route":"ORAL","start_dtc":"2024-06-29","end_dtc":"2024-06-29","visit":null},{"seq":"68","trt":"PSILOCYBIN","dose":"1.0","doseu":null,"dosef":"ONCE","route":"ORAL","start_dtc":"2024-06-30","end_dtc":"2024-06-30","visit":null},{"seq":"69","trt":"PSILOCYBIN","dose":"1.0","doseu":null,"dosef":"ONCE","route":"ORAL","start_dtc":"2024-07-01","end_dtc":"2024-07-01","visit":null},{"seq":"70","trt":"PSILOCYBIN","dose":"1.0","doseu":null,"dosef":"ONCE","route":"ORAL","start_dtc":"2024-07-02","end_dtc":"2024-07-02","visit":null},{"seq":"71","trt":"PSILOCYBIN","dose":"1.0","doseu":null,"dosef":"ONCE","route":"ORAL","start_dtc":"2024-07-03","end_dtc":"2024-07-03","visit":null},{"seq":"72","trt":"PSILOCYBIN","dose":"1.0","doseu":null,"dosef":"ONCE","route":"ORAL","start_dtc":"2024-07-04","end_dtc":"2024-07-04","visit":null},{"seq":"73","trt":"PSILOCYBIN","dose":"1.0","doseu":null,"dosef":"ONCE","route":"ORAL","start_dtc":"2024-07-05","end_dtc":"2024-07-05","visit":null},{"seq":"74","trt":"PSILOCYBIN","dose":"1.0","doseu":null,"dosef":"ONCE","route":"ORAL","start_dtc":"2024-07-06","end_dtc":"2024-07-06","visit":null},{"seq":"75","trt":"PSILOCYBIN","dose":"1.0","doseu":null,"dosef":"ONCE","route":"ORAL","start_dtc":"2024-07-07","end_dtc":"2024-07-07","visit":null},{"seq":"76","trt":"PSILOCYBIN","dose":"1.0","doseu":null,"dosef":"ONCE","route":"ORAL","start_dtc":"2024-07-08","end_dtc":"2024-07-08","visit":null},{"seq":"77","trt":"PSILOCYBIN","dose":"1.0","doseu":null,"dosef":"ONCE","route":"ORAL","start_dtc":"2024-07-09","end_dtc":"2024-07-09","visit":null},{"seq":"78","trt":"PSILOCYBIN","dose":"1.0","doseu":null,"dosef":"ONCE","route":"ORAL","start_dtc":"2024-07-10","end_dtc":"2024-07-10","visit":null},{"seq":"79","trt":"PSILOCYBIN","dose":"1.0","doseu":null,"dosef":"ONCE","route":"ORAL","start_dtc":"2024-07-11","end_dtc":"2024-07-11","visit":null}]},"section_7_adverse_events":{"summary":{"total_aes":2,"serious_aes":0,"fatal_aes":0,"by_severity":{"MODERATE":2},"by_soc":{"Psychiatric disorders":2}},"events":[{"seq":"1","term":"ANXIETY","decod":"Anxiety","llt":"Anxiety","hlt":"Anxiety symptoms","hlgt":"Anxiety disorders and symptoms","soc":"Psychiatric disorders","bodsys":"Psychiatric disorders","severity":"MODERATE","serious":"N","causality":"NOT RELATED","action_taken":"DOSE NOT CHANGED","outcome":"RECOVERED/RESOLVED","fatal":"N","hospitalization":"N","life_threatening":"N","onset_dtc":"2024-05-02","end_dtc":"2024-05-15","onset_dy":"9","end_dy":"22","duration":null,"epoch":"TREATMENT","visit":null,"supplemental":{}},{"seq":"2","term":"ANXIETY","decod":"Anxiety","llt":"Anxiety","hlt":"Anxiety symptoms","hlgt":"Anxiety disorders and symptoms","soc":"Psychiatric disorders","bodsys":"Psychiatric disorders","severity":"MODERATE","serious":"N","causality":"POSSIBLY RELATED","action_taken":"DOSE NOT CHANGED","outcome":"RECOVERED/RESOLVED","fatal":"N","hospitalization":"N","life_threatening":"N","onset_dtc":"2024-05-21","end_dtc":"2024-06-15","onset_dy":"28","end_dy":"53","duration":null,"epoch":"TREATMENT","visit":null,"supplemental":{}}]},"section_8_laboratory_results":{"summary":{"total_records":42,"abnormal_count":8,"abnormal_pct":19.0},"shift_summary":[{"testcd":"ALT","baseline_value":33.98,"baseline_nrind":"NORMAL","worst_post_baseline_value":34.89,"worst_post_baseline_nrind":"NORMAL","worst_visit":"WEEK 3"},{"testcd":"AST","baseline_value":18.45,"baseline_nrind":"NORMAL","worst_post_baseline_value":20.22,"worst_post_baseline_nrind":"NORMAL","worst_visit":"WEEK 1"},{"testcd":"CREAT","baseline_value":68.15,"baseline_nrind":"NORMAL","worst_post_baseline_value":73.72,"worst_post_baseline_nrind":"NORMAL","worst_visit":"WEEK 3"},{"testcd":"GLUC","baseline_value":5.62,"baseline_nrind":"HIGH","worst_post_baseline_value":5.62,"worst_post_baseline_nrind":"HIGH","worst_visit":"WEEK 12"},{"testcd":"HGB","baseline_value":104.81,"baseline_nrind":"LOW","worst_post_baseline_value":105.32,"worst_post_baseline_nrind":"LOW","worst_visit":"WEEK 3"},{"testcd":"PLAT","baseline_value":243.58,"baseline_nrind":"NORMAL","worst_post_baseline_value":253.12,"worst_post_baseline_nrind":"NORMAL","worst_visit":"DOSING DAY"},{"testcd":"WBC","baseline_value":6.35,"baseline_nrind":"NORMAL","worst_post_baseline_value":7.43,"worst_post_baseline_nrind":"NORMAL","worst_visit":"WEEK 3"}],"results":[{"seq":"1","testcd":"ALT","test":"Alanine Aminotransferase","cat":"CHEMISTRY","orres":"33.98","orresu":"U/L","stresc":"33.98","stresn":"33.98","stresu":"U/L","stnrlo":"7","stnrhi":"56","nrind":"NORMAL","fast":null,"dtc":"2024-04-07","dy":"-17","visit":"SCREENING","visitnum":"1.0","epoch":"SCREENING","spec":null,"method":null},{"seq":"2","testcd":"AST","test":"Aspartate Aminotransferase","cat":"CHEMISTRY","orres":"18.45","orresu":"U/L","stresc":"18.45","stresn":"18.45","stresu":"U/L","stnrlo":"10","stnrhi":"40","nrind":"NORMAL","fast":null,"dtc":"2024-04-07","dy":"-17","visit":"SCREENING","visitnum":"1.0","epoch":"SCREENING","spec":null,"method":null},{"seq":"3","testcd":"CREAT","test":"Creatinine","cat":"CHEMISTRY","orres":"68.15","orresu":"umol/L","stresc":"68.15","stresn":"68.15","stresu":"umol/L","stnrlo":"44","stnrhi":"80","nrind":"NORMAL","fast":null,"dtc":"2024-04-07","dy":"-17","visit":"SCREENING","visitnum":"1.0","epoch":"SCREENING","spec":null,"method":null},{"seq":"4","testcd":"GLUC","test":"Glucose","cat":"CHEMISTRY","orres":"5.62","orresu":"mmol/L","stresc":"5.62","stresn":"5.62","stresu":"mmol/L","stnrlo":"3.9","stnrhi":"5.6","nrind":"HIGH","fast":null,"dtc":"2024-04-07","dy":"-17","visit":"SCREENING","visitnum":"1.0","epoch":"SCREENING","spec":null,"method":null},{"seq":"5","testcd":"HGB","test":"Hemoglobin","cat":"HEMATOLOGY","orres":"104.81","orresu":"g/L","stresc":"104.81","stresn":"104.81","stresu":"g/L","stnrlo":"120","stnrhi":"155","nrind":"LOW","fast":null,"dtc":"2024-04-07","dy":"-17","visit":"SCREENING","visitnum":"1.0","epoch":"SCREENING","spec":null,"method":null},{"seq":"6","testcd":"PLAT","test":"Platelets","cat":"HEMATOLOGY","orres":"243.58","orresu":"10^9/L","stresc":"243.58","stresn":"243.58","stresu":"10^9/L","stnrlo":"150","stnrhi":"400","nrind":"NORMAL","fast":null,"dtc":"2024-04-07","dy":"-17","visit":"SCREENING","visitnum":"1.0","epoch":"SCREENING","spec":null,"method":null},{"seq":"7","testcd":"WBC","test":"Leukocytes","cat":"HEMATOLOGY","orres":"6.35","orresu":"10^9/L","stresc":"6.35","stresn":"6.35","stresu":"10^9/L","stnrlo":"4.0","stnrhi":"11.0","nrind":"NORMAL","fast":null,"dtc":"2024-04-07","dy":"-17","visit":"SCREENING","visitnum":"1.0","epoch":"SCREENING","spec":null,"method":null},{"seq":"8","testcd":"ALT","test":"Alanine Aminotransferase","cat":"CHEMISTRY","orres":"33.4","orresu":"U/L","stresc":"33.4","stresn":"33.4","stresu":"U/L","stnrlo":"7","stnrhi":"56","nrind":"NORMAL","fast":null,"dtc":"2024-04-24","dy":"1","visit":"DOSING DAY","visitnum":"2.0","epoch":"TREATMENT","spec":null,"method":null},{"seq":"9","testcd":"AST","test":"Aspartate Aminotransferase","cat":"CHEMISTRY","orres":"19.22","orresu":"U/L","stresc":"19.22","stresn":"19.22","stresu":"U/L","stnrlo":"10","stnrhi":"40","nrind":"NORMAL","fast":null,"dtc":"2024-04-24","dy":"1","visit":"DOSING DAY","visitnum":"2.0","epoch":"TREATMENT","spec":null,"method":null},{"seq":"10","testcd":"CREAT","test":"Creatinine","cat":"CHEMISTRY","orres":"67.3","orresu":"umol/L","stresc":"67.3","stresn":"67.3","stresu":"umol/L","stnrlo":"44","stnrhi":"80","nrind":"NORMAL","fast":null,"dtc":"2024-04-24","dy":"1","visit":"DOSING DAY","visitnum":"2.0","epoch":"TREATMENT","spec":null,"method":null},{"seq":"11","testcd":"GLUC","test":"Glucose","cat":"CHEMISTRY","orres":"5.51","orresu":"mmol/L","stresc":"5.51","stresn":"5.51","stresu":"mmol/L","stnrlo":"3.9","stnrhi":"5.6","nrind":"NORMAL","fast":null,"dtc":"2024-04-24","dy":"1","visit":"DOSING DAY","visitnum":"2.0","epoch":"TREATMENT","spec":null,"method":null},{"seq":"12","testcd":"HGB","test":"Hemoglobin","cat":"HEMATOLOGY","orres":"105.54","orresu":"g/L","stresc":"105.54","stresn":"105.54","stresu":"g/L","stnrlo":"120","stnrhi":"155","nrind":"LOW","fast":null,"dtc":"2024-04-24","dy":"1","visit":"DOSING DAY","visitnum":"2.0","epoch":"TREATMENT","spec":null,"method":null},{"seq":"13","testcd":"PLAT","test":"Platelets","cat":"HEMATOLOGY","orres":"253.12","orresu":"10^9/L","stresc":"253.12","stresn":"253.12","stresu":"10^9/L","stnrlo":"150","stnrhi":"400","nrind":"NORMAL","fast":null,"dtc":"2024-04-24","dy":"1","visit":"DOSING DAY","visitnum":"2.0","epoch":"TREATMENT","spec":null,"method":null},{"seq":"14","testcd":"WBC","test":"Leukocytes","cat":"HEMATOLOGY","orres":"6.36","orresu":"10^9/L","stresc":"6.36","stresn":"6.36","stresu":"10^9/L","stnrlo":"4.0","stnrhi":"11.0","nrind":"NORMAL","fast":null,"dtc":"2024-04-24","dy":"1","visit":"DOSING DAY","visitnum":"2.0","epoch":"TREATMENT","spec":null,"method":null},{"seq":"15","testcd":"ALT","test":"Alanine Aminotransferase","cat":"CHEMISTRY","orres":null,"orresu":null,"stresc":null,"stresn":null,"stresu":null,"stnrlo":null,"stnrhi":null,"nrind":null,"fast":null,"dtc":"2024-04-25","dy":"2","visit":"DAY 2","visitnum":"3.0","epoch":"FOLLOW-UP","spec":null,"method":null},{"seq":"16","testcd":"AST","test":"Aspartate Aminotransferase","cat":"CHEMISTRY","orres":"19.84","orresu":"U/L","stresc":"19.84","stresn":"19.84","stresu":"U/L","stnrlo":"10","stnrhi":"40","nrind":"NORMAL","fast":null,"dtc":"2024-04-25","dy":"2","visit":"DAY 2","visitnum":"3.0","epoch":"FOLLOW-UP","spec":null,"method":null},{"seq":"17","testcd":"CREAT","test":"Creatinine","cat":"CHEMISTRY","orres":"65.97","orresu":"umol/L","stresc":"65.97","stresn":"65.97","stresu":"umol/L","stnrlo":"44","stnrhi":"80","nrind":"NORMAL","fast":null,"dtc":"2024-04-25","dy":"2","visit":"DAY 2","visitnum":"3.0","epoch":"FOLLOW-UP","spec":null,"method":null},{"seq":"18","testcd":"GLUC","test":"Glucose","cat":"CHEMISTRY","orres":"5.49","orresu":"mmol/L","stresc":"5.49","stresn":"5.49","stresu":"mmol/L","stnrlo":"3.9","stnrhi":"5.6","nrind":"NORMAL","fast":null,"dtc":"2024-04-25","dy":"2","visit":"DAY 2","visitnum":"3.0","epoch":"FOLLOW-UP","spec":null,"method":null},{"seq":"19","testcd":"HGB","test":"Hemoglobin","cat":"HEMATOLOGY","orres":"107.6","orresu":"g/L","stresc":"107.6","stresn":"107.6","stresu":"g/L","stnrlo":"120","stnrhi":"155","nrind":"LOW","fast":null,"dtc":"2024-04-25","dy":"2","visit":"DAY 2","visitnum":"3.0","epoch":"FOLLOW-UP","spec":null,"method":null},{"seq":"20","testcd":"PLAT","test":"Platelets","cat":"HEMATOLOGY","orres":"235.74","orresu":"10^9/L","stresc":"235.74","stresn":"235.74","stresu":"10^9/L","stnrlo":"150","stnrhi":"400","nrind":"NORMAL","fast":null,"dtc":"2024-04-25","dy":"2","visit":"DAY 2","visitnum":"3.0","epoch":"FOLLOW-UP","spec":null,"method":null},{"seq":"21","testcd":"WBC","test":"Leukocytes","cat":"HEMATOLOGY","orres":"6.67","orresu":"10^9/L","stresc":"6.67","stresn":"6.67","stresu":"10^9/L","stnrlo":"4.0","stnrhi":"11.0","nrind":"NORMAL","fast":null,"dtc":"2024-04-25","dy":"2","visit":"DAY 2","visitnum":"3.0","epoch":"FOLLOW-UP","spec":null,"method":null},{"seq":"22","testcd":"ALT","test":"Alanine Aminotransferase","cat":"CHEMISTRY","orres":"32.89","orresu":"U/L","stresc":"32.89","stresn":"32.89","stresu":"U/L","stnrlo":"7","stnrhi":"56","nrind":"NORMAL","fast":null,"dtc":"2024-04-30","dy":"7","visit":"WEEK 1","visitnum":"4.0","epoch":"FOLLOW-UP","spec":null,"method":null},{"seq":"23","testcd":"AST","test":"Aspartate Aminotransferase","cat":"CHEMISTRY","orres":"20.22","orresu":"U/L","stresc":"20.22","stresn":"20.22","stresu":"U/L","stnrlo":"10","stnrhi":"40","nrind":"NORMAL","fast":null,"dtc":"2024-04-30","dy":"7","visit":"WEEK 1","visitnum":"4.0","epoch":"FOLLOW-UP","spec":null,"method":null},{"seq":"24","testcd":"CREAT","test":"Creatinine","cat":"CHEMISTRY","orres":"69.41","orresu":"umol/L","stresc":"69.41","stresn":"69.41","stresu":"umol/L","stnrlo":"44","stnrhi":"80","nrind":"NORMAL","fast":null,"dtc":"2024-04-30","dy":"7","visit":"WEEK 1","visitnum":"4.0","epoch":"FOLLOW-UP","spec":null,"method":null},{"seq":"25","testcd":"GLUC","test":"Glucose","cat":"CHEMISTRY","orres":"5.42","orresu":"mmol/L","stresc":"5.42","stresn":"5.42","stresu":"mmol/L","stnrlo":"3.9","stnrhi":"5.6","nrind":"NORMAL","fast":null,"dtc":"2024-04-30","dy":"7","visit":"WEEK 1","visitnum":"4.0","epoch":"FOLLOW-UP","spec":null,"method":null},{"seq":"26","testcd":"HGB","test":"Hemoglobin","cat":"HEMATOLOGY","orres":"105.47","orresu":"g/L","stresc":"105.47","stresn":"105.47","stresu":"g/L","stnrlo":"120","stnrhi":"155","nrind":"LOW","fast":null,"dtc":"2024-04-30","dy":"7","visit":"WEEK 1","visitnum":"4.0","epoch":"FOLLOW-UP","spec":null,"method":null},{"seq":"27","testcd":"PLAT","test":"Platelets","cat":"HEMATOLOGY","orres":"242.35","orresu":"10^9/L","stresc":"242.35","stresn":"242.35","stresu":"10^9/L","stnrlo":"150","stnrhi":"400","nrind":"NORMAL","fast":null,"dtc":"2024-04-30","dy":"7","visit":"WEEK 1","visitnum":"4.0","epoch":"FOLLOW-UP","spec":null,"method":null},{"seq":"28","testcd":"WBC","test":"Leukocytes","cat":"HEMATOLOGY","orres":"7.1","orresu":"10^9/L","stresc":"7.1","stresn":"7.1","stresu":"10^9/L","stnrlo":"4.0","stnrhi":"11.0","nrind":"NORMAL","fast":null,"dtc":"2024-04-30","dy":"7","visit":"WEEK 1","visitnum":"4.0","epoch":"FOLLOW-UP","spec":null,"method":null},{"seq":"29","testcd":"ALT","test":"Alanine Aminotransferase","cat":"CHEMISTRY","orres":"34.89","orresu":"U/L","stresc":"34.89","stresn":"34.89","stresu":"U/L","stnrlo":"7","stnrhi":"56","nrind":"NORMAL","fast":null,"dtc":"2024-05-16","dy":"23","visit":"WEEK 3","visitnum":"5.0","epoch":"FOLLOW-UP","spec":null,"method":null},{"seq":"30","testcd":"AST","test":"Aspartate Aminotransferase","cat":"CHEMISTRY","orres":"19.49","orresu":"U/L","stresc":"19.49","stresn":"19.49","stresu":"U/L","stnrlo":"10","stnrhi":"40","nrind":"NORMAL","fast":null,"dtc":"2024-05-16","dy":"23","visit":"WEEK 3","visitnum":"5.0","epoch":"FOLLOW-UP","spec":null,"method":null},{"seq":"31","testcd":"CREAT","test":"Creatinine","cat":"CHEMISTRY","orres":"73.72","orresu":"umol/L","stresc":"73.72","stresn":"73.72","stresu":"umol/L","stnrlo":"44","stnrhi":"80","nrind":"NORMAL","fast":null,"dtc":"2024-05-16","dy":"23","visit":"WEEK 3","visitnum":"5.0","epoch":"FOLLOW-UP","spec":null,"method":null},{"seq":"32","testcd":"GLUC","test":"Glucose","cat":"CHEMISTRY","orres":"5.46","orresu":"mmol/L","stresc":"5.46","stresn":"5.46","stresu":"mmol/L","stnrlo":"3.9","stnrhi":"5.6","nrind":"NORMAL","fast":null,"dtc":"2024-05-16","dy":"23","visit":"WEEK 3","visitnum":"5.0","epoch":"FOLLOW-UP","spec":null,"method":null},{"seq":"33","testcd":"HGB","test":"Hemoglobin","cat":"HEMATOLOGY","orres":"105.32","orresu":"g/L","stresc":"105.32","stresn":"105.32","stresu":"g/L","stnrlo":"120","stnrhi":"155","nrind":"LOW","fast":null,"dtc":"2024-05-16","dy":"23","visit":"WEEK 3","visitnum":"5.0","epoch":"FOLLOW-UP","spec":null,"method":null},{"seq":"34","testcd":"PLAT","test":"Platelets","cat":"HEMATOLOGY","orres":"251.2","orresu":"10^9/L","stresc":"251.2","stresn":"251.2","stresu":"10^9/L","stnrlo":"150","stnrhi":"400","nrind":"NORMAL","fast":null,"dtc":"2024-05-16","dy":"23","visit":"WEEK 3","visitnum":"5.0","epoch":"FOLLOW-UP","spec":null,"method":null},{"seq":"35","testcd":"WBC","test":"Leukocytes","cat":"HEMATOLOGY","orres":"7.43","orresu":"10^9/L","stresc":"7.43","stresn":"7.43","stresu":"10^9/L","stnrlo":"4.0","stnrhi":"11.0","nrind":"NORMAL","fast":null,"dtc":"2024-05-16","dy":"23","visit":"WEEK 3","visitnum":"5.0","epoch":"FOLLOW-UP","spec":null,"method":null},{"seq":"36","testcd":"ALT","test":"Alanine Aminotransferase","cat":"CHEMISTRY","orres":"33.97","orresu":"U/L","stresc":"33.97","stresn":"33.97","stresu":"U/L","stnrlo":"7","stnrhi":"56","nrind":"NORMAL","fast":null,"dtc":"2024-07-13","dy":"81","visit":"WEEK 12","visitnum":"7.0","epoch":"FOLLOW-UP","spec":null,"method":null},{"seq":"37","testcd":"AST","test":"Aspartate Aminotransferase","cat":"CHEMISTRY","orres":"20.07","orresu":"U/L","stresc":"20.07","stresn":"20.07","stresu":"U/L","stnrlo":"10","stnrhi":"40","nrind":"NORMAL","fast":null,"dtc":"2024-07-13","dy":"81","visit":"WEEK 12","visitnum":"7.0","epoch":"FOLLOW-UP","spec":null,"method":null},{"seq":"38","testcd":"CREAT","test":"Creatinine","cat":"CHEMISTRY","orres":"71.04","orresu":"umol/L","stresc":"71.04","stresn":"71.04","stresu":"umol/L","stnrlo":"44","stnrhi":"80","nrind":"NORMAL","fast":null,"dtc":"2024-07-13","dy":"81","visit":"WEEK 12","visitnum":"7.0","epoch":"FOLLOW-UP","spec":null,"method":null},{"seq":"39","testcd":"GLUC","test":"Glucose","cat":"CHEMISTRY","orres":"5.62","orresu":"mmol/L","stresc":"5.62","stresn":"5.62","stresu":"mmol/L","stnrlo":"3.9","stnrhi":"5.6","nrind":"HIGH","fast":null,"dtc":"2024-07-13","dy":"81","visit":"WEEK 12","visitnum":"7.0","epoch":"FOLLOW-UP","spec":null,"method":null},{"seq":"40","testcd":"HGB","test":"Hemoglobin","cat":"HEMATOLOGY","orres":"106.21","orresu":"g/L","stresc":"106.21","stresn":"106.21","stresu":"g/L","stnrlo":"120","stnrhi":"155","nrind":"LOW","fast":null,"dtc":"2024-07-13","dy":"81","visit":"WEEK 12","visitnum":"7.0","epoch":"FOLLOW-UP","spec":null,"method":null},{"seq":"41","testcd":"PLAT","test":"Platelets","cat":"HEMATOLOGY","orres":"237.94","orresu":"10^9/L","stresc":"237.94","stresn":"237.94","stresu":"10^9/L","stnrlo":"150","stnrhi":"400","nrind":"NORMAL","fast":null,"dtc":"2024-07-13","dy":"81","visit":"WEEK 12","visitnum":"7.0","epoch":"FOLLOW-UP","spec":null,"method":null},{"seq":"42","testcd":"WBC","test":"Leukocytes","cat":"HEMATOLOGY","orres":"7.42","orresu":"10^9/L","stresc":"7.42","stresn":"7.42","stresu":"10^9/L","stnrlo":"4.0","stnrhi":"11.0","nrind":"NORMAL","fast":null,"dtc":"2024-07-13","dy":"81","visit":"WEEK 12","visitnum":"7.0","epoch":"FOLLOW-UP","spec":null,"method":null}]},"section_9_vital_signs":{"summary":{"total_records":48},"trends":{"BMI":[{"visit":"SCREENING","visitnum":"1.0","dtc":"2024-04-07","value":"17.9","unit":"kg/m2"},{"visit":"DOSING DAY","visitnum":"2.0","dtc":"2024-04-24","value":"17.4","unit":"kg/m2"},{"visit":"DAY 2","visitnum":"3.0","dtc":"2024-04-25","value":"18.4","unit":"kg/m2"},{"visit":"WEEK 1","visitnum":"4.0","dtc":"2024-04-30","value":"18.0","unit":"kg/m2"},{"visit":"WEEK 3","visitnum":"5.0","dtc":"2024-05-16","value":"18.7","unit":"kg/m2"},{"visit":"WEEK 12","visitnum":"7.0","dtc":"2024-07-13","value":"18.3","unit":"kg/m2"}],"DIABP":[{"visit":"SCREENING","visitnum":"1.0","dtc":"2024-04-07","value":"90.9","unit":"mmHg"},{"visit":"DOSING DAY","visitnum":"2.0","dtc":"2024-04-24","value":"90.2","unit":"mmHg"},{"visit":"DAY 2","visitnum":"3.0","dtc":"2024-04-25","value":"88.7","unit":"mmHg"},{"visit":"WEEK 1","visitnum":"4.0","dtc":"2024-04-30","value":"90.0","unit":"mmHg"},{"visit":"WEEK 3","visitnum":"5.0","dtc":"2024-05-16","value":"89.5","unit":"mmHg"}],"HEIGHT":[{"visit":"SCREENING","visitnum":"1.0","dtc":"2024-04-07","value":"163.7","unit":"cm"},{"visit":"DOSING DAY","visitnum":"2.0","dtc":"2024-04-24","value":"164.3","unit":"cm"},{"visit":"DAY 2","visitnum":"3.0","dtc":"2024-04-25","value":"163.9","unit":"cm"},{"visit":"WEEK 1","visitnum":"4.0","dtc":"2024-04-30","value":"163.8","unit":"cm"},{"visit":"WEEK 3","visitnum":"5.0","dtc":"2024-05-16","value":"163.5","unit":"cm"},{"visit":"WEEK 12","visitnum":"7.0","dtc":"2024-07-13","value":"163.1","unit":"cm"}],"PULSE":[{"visit":"SCREENING","visitnum":"1.0","dtc":"2024-04-07","value":"60.0","unit":"beats/min"},{"visit":"DOSING DAY","visitnum":"2.0","dtc":"2024-04-24","value":"63.7","unit":"beats/min"},{"visit":"DAY 2","visitnum":"3.0","dtc":"2024-04-25","value":"64.0","unit":"beats/min"},{"visit":"WEEK 3","visitnum":"5.0","dtc":"2024-05-16","value":"65.9","unit":"beats/min"},{"visit":"WEEK 12","visitnum":"7.0","dtc":"2024-07-13","value":"67.1","unit":"beats/min"}],"RESP":[{"visit":"SCREENING","visitnum":"1.0","dtc":"2024-04-07","value":"10.3","unit":"breaths/min"},{"visit":"DOSING DAY","visitnum":"2.0","dtc":"2024-04-24","value":"8.9","unit":"breaths/min"},{"visit":"DAY 2","visitnum":"3.0","dtc":"2024-04-25","value":"10.6","unit":"breaths/min"},{"visit":"WEEK 1","visitnum":"4.0","dtc":"2024-04-30","value":"10.2","unit":"breaths/min"},{"visit":"WEEK 3","visitnum":"5.0","dtc":"2024-05-16","value":"8.0","unit":"breaths/min"},{"visit":"WEEK 12","visitnum":"7.0","dtc":"2024-07-13","value":"8.0","unit":"breaths/min"}],"SYSBP":[{"visit":"SCREENING","visitnum":"1.0","dtc":"2024-04-07","value":"154.1","unit":"mmHg"},{"visit":"DOSING DAY","visitnum":"2.0","dtc":"2024-04-24","value":"154.0","unit":"mmHg"},{"visit":"DAY 2","visitnum":"3.0","dtc":"2024-04-25","value":"151.0","unit":"mmHg"},{"visit":"WEEK 1","visitnum":"4.0","dtc":"2024-04-30","value":"150.4","unit":"mmHg"},{"visit":"WEEK 3","visitnum":"5.0","dtc":"2024-05-16","value":"152.6","unit":"mmHg"},{"visit":"WEEK 12","visitnum":"7.0","dtc":"2024-07-13","value":"154.0","unit":"mmHg"}],"TEMP":[{"visit":"SCREENING","visitnum":"1.0","dtc":"2024-04-07","value":"37.4","unit":"C"},{"visit":"DOSING DAY","visitnum":"2.0","dtc":"2024-04-24","value":"37.3","unit":"C"},{"visit":"DAY 2","visitnum":"3.0","dtc":"2024-04-25","value":"37.1","unit":"C"},{"visit":"WEEK 1","visitnum":"4.0","dtc":"2024-04-30","value":"37.3","unit":"C"},{"visit":"WEEK 3","visitnum":"5.0","dtc":"2024-05-16","value":"37.1","unit":"C"},{"visit":"WEEK 12","visitnum":"7.0","dtc":"2024-07-13","value":"37.1","unit":"C"}],"WEIGHT":[{"visit":"SCREENING","visitnum":"1.0","dtc":"2024-04-07","value":"48.1","unit":"kg"},{"visit":"DOSING DAY","visitnum":"2.0","dtc":"2024-04-24","value":"46.9","unit":"kg"},{"visit":"DAY 2","visitnum":"3.0","dtc":"2024-04-25","value":"49.3","unit":"kg"},{"visit":"WEEK 1","visitnum":"4.0","dtc":"2024-04-30","value":"48.3","unit":"kg"},{"visit":"WEEK 3","visitnum":"5.0","dtc":"2024-05-16","value":"50.0","unit":"kg"},{"visit":"WEEK 12","visitnum":"7.0","dtc":"2024-07-13","value":"48.7","unit":"kg"}]},"results":[{"seq":"1","testcd":"BMI","test":"BMI","cat":null,"orres":"17.9","orresu":"kg/m2","stresc":"17.9","stresn":"17.9","stresu":"kg/m2","stnrlo":null,"stnrhi":null,"nrind":null,"pos":null,"loc":null,"dtc":"2024-04-07","dy":"-17","visit":"SCREENING","visitnum":"1.0","epoch":"SCREENING"},{"seq":"2","testcd":"DIABP","test":"Diastolic Blood Pressure","cat":null,"orres":"90.9","orresu":"mmHg","stresc":"90.9","stresn":"90.9","stresu":"mmHg","stnrlo":null,"stnrhi":null,"nrind":null,"pos":null,"loc":null,"dtc":"2024-04-07","dy":"-17","visit":"SCREENING","visitnum":"1.0","epoch":"SCREENING"},{"seq":"3","testcd":"HEIGHT","test":"Height","cat":null,"orres":"163.7","orresu":"cm","stresc":"163.7","stresn":"163.7","stresu":"cm","stnrlo":null,"stnrhi":null,"nrind":null,"pos":null,"loc":null,"dtc":"2024-04-07","dy":"-17","visit":"SCREENING","visitnum":"1.0","epoch":"SCREENING"},{"seq":"4","testcd":"PULSE","test":"Pulse Rate","cat":null,"orres":"60.0","orresu":"beats/min","stresc":"60.0","stresn":"60.0","stresu":"beats/min","stnrlo":null,"stnrhi":null,"nrind":null,"pos":null,"loc":null,"dtc":"2024-04-07","dy":"-17","visit":"SCREENING","visitnum":"1.0","epoch":"SCREENING"},{"seq":"5","testcd":"RESP","test":"Respiratory Rate","cat":null,"orres":"10.3","orresu":"breaths/min","stresc":"10.3","stresn":"10.3","stresu":"breaths/min","stnrlo":null,"stnrhi":null,"nrind":null,"pos":null,"loc":null,"dtc":"2024-04-07","dy":"-17","visit":"SCREENING","visitnum":"1.0","epoch":"SCREENING"},{"seq":"6","testcd":"SYSBP","test":"Systolic Blood Pressure","cat":null,"orres":"154.1","orresu":"mmHg","stresc":"154.1","stresn":"154.1","stresu":"mmHg","stnrlo":null,"stnrhi":null,"nrind":null,"pos":null,"loc":null,"dtc":"2024-04-07","dy":"-17","visit":"SCREENING","visitnum":"1.0","epoch":"SCREENING"},{"seq":"7","testcd":"TEMP","test":"Temperature","cat":null,"orres":"37.4","orresu":"C","stresc":"37.4","stresn":"37.4","stresu":"C","stnrlo":null,"stnrhi":null,"nrind":null,"pos":null,"loc":null,"dtc":"2024-04-07","dy":"-17","visit":"SCREENING","visitnum":"1.0","epoch":"SCREENING"},{"seq":"8","testcd":"WEIGHT","test":"Weight","cat":null,"orres":"48.1","orresu":"kg","stresc":"48.1","stresn":"48.1","stresu":"kg","stnrlo":null,"stnrhi":null,"nrind":null,"pos":null,"loc":null,"dtc":"2024-04-07","dy":"-17","visit":"SCREENING","visitnum":"1.0","epoch":"SCREENING"},{"seq":"9","testcd":"BMI","test":"BMI","cat":null,"orres":"17.4","orresu":"kg/m2","stresc":"17.4","stresn":"17.4","stresu":"kg/m2","stnrlo":null,"stnrhi":null,"nrind":null,"pos":null,"loc":null,"dtc":"2024-04-24","dy":"1","visit":"DOSING DAY","visitnum":"2.0","epoch":"TREATMENT"},{"seq":"10","testcd":"DIABP","test":"Diastolic Blood Pressure","cat":null,"orres":"90.2","orresu":"mmHg","stresc":"90.2","stresn":"90.2","stresu":"mmHg","stnrlo":null,"stnrhi":null,"nrind":null,"pos":null,"loc":null,"dtc":"2024-04-24","dy":"1","visit":"DOSING DAY","visitnum":"2.0","epoch":"TREATMENT"},{"seq":"11","testcd":"HEIGHT","test":"Height","cat":null,"orres":"164.3","orresu":"cm","stresc":"164.3","stresn":"164.3","stresu":"cm","stnrlo":null,"stnrhi":null,"nrind":null,"pos":null,"loc":null,"dtc":"2024-04-24","dy":"1","visit":"DOSING DAY","visitnum":"2.0","epoch":"TREATMENT"},{"seq":"12","testcd":"PULSE","test":"Pulse Rate","cat":null,"orres":"63.7","orresu":"beats/min","stresc":"63.7","stresn":"63.7","stresu":"beats/min","stnrlo":null,"stnrhi":null,"nrind":null,"pos":null,"loc":null,"dtc":"2024-04-24","dy":"1","visit":"DOSING DAY","visitnum":"2.0","epoch":"TREATMENT"},{"seq":"13","testcd":"RESP","test":"Respiratory Rate","cat":null,"orres":"8.9","orresu":"breaths/min","stresc":"8.9","stresn":"8.9","stresu":"breaths/min","stnrlo":null,"stnrhi":null,"nrind":null,"pos":null,"loc":null,"dtc":"2024-04-24","dy":"1","visit":"DOSING DAY","visitnum":"2.0","epoch":"TREATMENT"},{"seq":"14","testcd":"SYSBP","test":"Systolic Blood Pressure","cat":null,"orres":"154.0","orresu":"mmHg","stresc":"154.0","stresn":"154.0","stresu":"mmHg","stnrlo":null,"stnrhi":null,"nrind":null,"pos":null,"loc":null,"dtc":"2024-04-24","dy":"1","visit":"DOSING DAY","visitnum":"2.0","epoch":"TREATMENT"},{"seq":"15","testcd":"TEMP","test":"Temperature","cat":null,"orres":"37.3","orresu":"C","stresc":"37.3","stresn":"37.3","stresu":"C","stnrlo":null,"stnrhi":null,"nrind":null,"pos":null,"loc":null,"dtc":"2024-04-24","dy":"1","visit":"DOSING DAY","visitnum":"2.0","epoch":"TREATMENT"},{"seq":"16","testcd":"WEIGHT","test":"Weight","cat":null,"orres":"46.9","orresu":"kg","stresc":"46.9","stresn":"46.9","stresu":"kg","stnrlo":null,"stnrhi":null,"nrind":null,"pos":null,"loc":null,"dtc":"2024-04-24","dy":"1","visit":"DOSING DAY","visitnum":"2.0","epoch":"TREATMENT"},{"seq":"17","testcd":"BMI","test":"BMI","cat":null,"orres":"18.4","orresu":"kg/m2","stresc":"18.4","stresn":"18.4","stresu":"kg/m2","stnrlo":null,"stnrhi":null,"nrind":null,"pos":null,"loc":null,"dtc":"2024-04-25","dy":"2","visit":"DAY 2","visitnum":"3.0","epoch":"FOLLOW-UP"},{"seq":"18","testcd":"DIABP","test":"Diastolic Blood Pressure","cat":null,"orres":"88.7","orresu":"mmHg","stresc":"88.7","stresn":"88.7","stresu":"mmHg","stnrlo":null,"stnrhi":null,"nrind":null,"pos":null,"loc":null,"dtc":"2024-04-25","dy":"2","visit":"DAY 2","visitnum":"3.0","epoch":"FOLLOW-UP"},{"seq":"19","testcd":"HEIGHT","test":"Height","cat":null,"orres":"163.9","orresu":"cm","stresc":"163.9","stresn":"163.9","stresu":"cm","stnrlo":null,"stnrhi":null,"nrind":null,"pos":null,"loc":null,"dtc":"2024-04-25","dy":"2","visit":"DAY 2","visitnum":"3.0","epoch":"FOLLOW-UP"},{"seq":"20","testcd":"PULSE","test":"Pulse Rate","cat":null,"orres":"64.0","orresu":"beats/min","stresc":"64.0","stresn":"64.0","stresu":"beats/min","stnrlo":null,"stnrhi":null,"nrind":null,"pos":null,"loc":null,"dtc":"2024-04-25","dy":"2","visit":"DAY 2","visitnum":"3.0","epoch":"FOLLOW-UP"},{"seq":"21","testcd":"RESP","test":"Respiratory Rate","cat":null,"orres":"10.6","orresu":"breaths/min","stresc":"10.6","stresn":"10.6","stresu":"breaths/min","stnrlo":null,"stnrhi":null,"nrind":null,"pos":null,"loc":null,"dtc":"2024-04-25","dy":"2","visit":"DAY 2","visitnum":"3.0","epoch":"FOLLOW-UP"},{"seq":"22","testcd":"SYSBP","test":"Systolic Blood Pressure","cat":null,"orres":"151.0","orresu":"mmHg","stresc":"151.0","stresn":"151.0","stresu":"mmHg","stnrlo":null,"stnrhi":null,"nrind":null,"pos":null,"loc":null,"dtc":"2024-04-25","dy":"2","visit":"DAY 2","visitnum":"3.0","epoch":"FOLLOW-UP"},{"seq":"23","testcd":"TEMP","test":"Temperature","cat":null,"orres":"37.1","orresu":"C","stresc":"37.1","stresn":"37.1","stresu":"C","stnrlo":null,"stnrhi":null,"nrind":null,"pos":null,"loc":null,"dtc":"2024-04-25","dy":"2","visit":"DAY 2","visitnum":"3.0","epoch":"FOLLOW-UP"},{"seq":"24","testcd":"WEIGHT","test":"Weight","cat":null,"orres":"49.3","orresu":"kg","stresc":"49.3","stresn":"49.3","stresu":"kg","stnrlo":null,"stnrhi":null,"nrind":null,"pos":null,"loc":null,"dtc":"2024-04-25","dy":"2","visit":"DAY 2","visitnum":"3.0","epoch":"FOLLOW-UP"},{"seq":"25","testcd":"BMI","test":"BMI","cat":null,"orres":"18.0","orresu":"kg/m2","stresc":"18.0","stresn":"18.0","stresu":"kg/m2","stnrlo":null,"stnrhi":null,"nrind":null,"pos":null,"loc":null,"dtc":"2024-04-30","dy":"7","visit":"WEEK 1","visitnum":"4.0","epoch":"FOLLOW-UP"},{"seq":"26","testcd":"DIABP","test":"Diastolic Blood Pressure","cat":null,"orres":"90.0","orresu":"mmHg","stresc":"90.0","stresn":"90.0","stresu":"mmHg","stnrlo":null,"stnrhi":null,"nrind":null,"pos":null,"loc":null,"dtc":"2024-04-30","dy":"7","visit":"WEEK 1","visitnum":"4.0","epoch":"FOLLOW-UP"},{"seq":"27","testcd":"HEIGHT","test":"Height","cat":null,"orres":"163.8","orresu":"cm","stresc":"163.8","stresn":"163.8","stresu":"cm","stnrlo":null,"stnrhi":null,"nrind":null,"pos":null,"loc":null,"dtc":"2024-04-30","dy":"7","visit":"WEEK 1","visitnum":"4.0","epoch":"FOLLOW-UP"},{"seq":"28","testcd":"PULSE","test":"Pulse Rate","cat":null,"orres":null,"orresu":null,"stresc":null,"stresn":null,"stresu":null,"stnrlo":null,"stnrhi":null,"nrind":null,"pos":null,"loc":null,"dtc":"2024-04-30","dy":"7","visit":"WEEK 1","visitnum":"4.0","epoch":"FOLLOW-UP"},{"seq":"29","testcd":"RESP","test":"Respiratory Rate","cat":null,"orres":"10.2","orresu":"breaths/min","stresc":"10.2","stresn":"10.2","stresu":"breaths/min","stnrlo":null,"stnrhi":null,"nrind":null,"pos":null,"loc":null,"dtc":"2024-04-30","dy":"7","visit":"WEEK 1","visitnum":"4.0","epoch":"FOLLOW-UP"},{"seq":"30","testcd":"SYSBP","test":"Systolic Blood Pressure","cat":null,"orres":"150.4","orresu":"mmHg","stresc":"150.4","stresn":"150.4","stresu":"mmHg","stnrlo":null,"stnrhi":null,"nrind":null,"pos":null,"loc":null,"dtc":"2024-04-30","dy":"7","visit":"WEEK 1","visitnum":"4.0","epoch":"FOLLOW-UP"},{"seq":"31","testcd":"TEMP","test":"Temperature","cat":null,"orres":"37.3","orresu":"C","stresc":"37.3","stresn":"37.3","stresu":"C","stnrlo":null,"stnrhi":null,"nrind":null,"pos":null,"loc":null,"dtc":"2024-04-30","dy":"7","visit":"WEEK 1","visitnum":"4.0","epoch":"FOLLOW-UP"},{"seq":"32","testcd":"WEIGHT","test":"Weight","cat":null,"orres":"48.3","orresu":"kg","stresc":"48.3","stresn":"48.3","stresu":"kg","stnrlo":null,"stnrhi":null,"nrind":null,"pos":null,"loc":null,"dtc":"2024-04-30","dy":"7","visit":"WEEK 1","visitnum":"4.0","epoch":"FOLLOW-UP"},{"seq":"33","testcd":"BMI","test":"BMI","cat":null,"orres":"18.7","orresu":"kg/m2","stresc":"18.7","stresn":"18.7","stresu":"kg/m2","stnrlo":null,"stnrhi":null,"nrind":null,"pos":null,"loc":null,"dtc":"2024-05-16","dy":"23","visit":"WEEK 3","visitnum":"5.0","epoch":"FOLLOW-UP"},{"seq":"34","testcd":"DIABP","test":"Diastolic Blood Pressure","cat":null,"orres":"89.5","orresu":"mmHg","stresc":"89.5","stresn":"89.5","stresu":"mmHg","stnrlo":null,"stnrhi":null,"nrind":null,"pos":null,"loc":null,"dtc":"2024-05-16","dy":"23","visit":"WEEK 3","visitnum":"5.0","epoch":"FOLLOW-UP"},{"seq":"35","testcd":"HEIGHT","test":"Height","cat":null,"orres":"163.5","orresu":"cm","stresc":"163.5","stresn":"163.5","stresu":"cm","stnrlo":null,"stnrhi":null,"nrind":null,"pos":null,"loc":null,"dtc":"2024-05-16","dy":"23","visit":"WEEK 3","visitnum":"5.0","epoch":"FOLLOW-UP"},{"seq":"36","testcd":"PULSE","test":"Pulse Rate","cat":null,"orres":"65.9","orresu":"beats/min","stresc":"65.9","stresn":"65.9","stresu":"beats/min","stnrlo":null,"stnrhi":null,"nrind":null,"pos":null,"loc":null,"dtc":"2024-05-16","dy":"23","visit":"WEEK 3","visitnum":"5.0","epoch":"FOLLOW-UP"},{"seq":"37","testcd":"RESP","test":"Respiratory Rate","cat":null,"orres":"8.0","orresu":"breaths/min","stresc":"8.0","stresn":"8.0","stresu":"breaths/min","stnrlo":null,"stnrhi":null,"nrind":null,"pos":null,"loc":null,"dtc":"2024-05-16","dy":"23","visit":"WEEK 3","visitnum":"5.0","epoch":"FOLLOW-UP"},{"seq":"38","testcd":"SYSBP","test":"Systolic Blood Pressure","cat":null,"orres":"152.6","orresu":"mmHg","stresc":"152.6","stresn":"152.6","stresu":"mmHg","stnrlo":null,"stnrhi":null,"nrind":null,"pos":null,"loc":null,"dtc":"2024-05-16","dy":"23","visit":"WEEK 3","visitnum":"5.0","epoch":"FOLLOW-UP"},{"seq":"39","testcd":"TEMP","test":"Temperature","cat":null,"orres":"37.1","orresu":"C","stresc":"37.1","stresn":"37.1","stresu":"C","stnrlo":null,"stnrhi":null,"nrind":null,"pos":null,"loc":null,"dtc":"2024-05-16","dy":"23","visit":"WEEK 3","visitnum":"5.0","epoch":"FOLLOW-UP"},{"seq":"40","testcd":"WEIGHT","test":"Weight","cat":null,"orres":"50.0","orresu":"kg","stresc":"50.0","stresn":"50.0","stresu":"kg","stnrlo":null,"stnrhi":null,"nrind":null,"pos":null,"loc":null,"dtc":"2024-05-16","dy":"23","visit":"WEEK 3","visitnum":"5.0","epoch":"FOLLOW-UP"},{"seq":"41","testcd":"BMI","test":"BMI","cat":null,"orres":"18.3","orresu":"kg/m2","stresc":"18.3","stresn":"18.3","stresu":"kg/m2","stnrlo":null,"stnrhi":null,"nrind":null,"pos":null,"loc":null,"dtc":"2024-07-13","dy":"81","visit":"WEEK 12","visitnum":"7.0","epoch":"FOLLOW-UP"},{"seq":"42","testcd":"DIABP","test":"Diastolic Blood Pressure","cat":null,"orres":null,"orresu":null,"stresc":null,"stresn":null,"stresu":null,"stnrlo":null,"stnrhi":null,"nrind":null,"pos":null,"loc":null,"dtc":"2024-07-13","dy":"81","visit":"WEEK 12","visitnum":"7.0","epoch":"FOLLOW-UP"},{"seq":"43","testcd":"HEIGHT","test":"Height","cat":null,"orres":"163.1","orresu":"cm","stresc":"163.1","stresn":"163.1","stresu":"cm","stnrlo":null,"stnrhi":null,"nrind":null,"pos":null,"loc":null,"dtc":"2024-07-13","dy":"81","visit":"WEEK 12","visitnum":"7.0","epoch":"FOLLOW-UP"},{"seq":"44","testcd":"PULSE","test":"Pulse Rate","cat":null,"orres":"67.1","orresu":"beats/min","stresc":"67.1","stresn":"67.1","stresu":"beats/min","stnrlo":null,"stnrhi":null,"nrind":null,"pos":null,"loc":null,"dtc":"2024-07-13","dy":"81","visit":"WEEK 12","visitnum":"7.0","epoch":"FOLLOW-UP"},{"seq":"45","testcd":"RESP","test":"Respiratory Rate","cat":null,"orres":"8.0","orresu":"breaths/min","stresc":"8.0","stresn":"8.0","stresu":"breaths/min","stnrlo":null,"stnrhi":null,"nrind":null,"pos":null,"loc":null,"dtc":"2024-07-13","dy":"81","visit":"WEEK 12","visitnum":"7.0","epoch":"FOLLOW-UP"},{"seq":"46","testcd":"SYSBP","test":"Systolic Blood Pressure","cat":null,"orres":"154.0","orresu":"mmHg","stresc":"154.0","stresn":"154.0","stresu":"mmHg","stnrlo":null,"stnrhi":null,"nrind":null,"pos":null,"loc":null,"dtc":"2024-07-13","dy":"81","visit":"WEEK 12","visitnum":"7.0","epoch":"FOLLOW-UP"},{"seq":"47","testcd":"TEMP","test":"Temperature","cat":null,"orres":"37.1","orresu":"C","stresc":"37.1","stresn":"37.1","stresu":"C","stnrlo":null,"stnrhi":null,"nrind":null,"pos":null,"loc":null,"dtc":"2024-07-13","dy":"81","visit":"WEEK 12","visitnum":"7.0","epoch":"FOLLOW-UP"},{"seq":"48","testcd":"WEIGHT","test":"Weight","cat":null,"orres":"48.7","orresu":"kg","stresc":"48.7","stresn":"48.7","stresu":"kg","stnrlo":null,"stnrhi":null,"nrind":null,"pos":null,"loc":null,"dtc":"2024-07-13","dy":"81","visit":"WEEK 12","visitnum":"7.0","epoch":"FOLLOW-UP"}]},"section_10_questionnaires_and_scores":{"questionnaires":[{"seq":"1","testcd":"MADRS01","test":"Apparent Sadness","cat":"MADRS","scat":null,"orres":"1","stresc":"1","stresn":"1.0","dtc":"2024-04-09","dy":"-15","visit":"SCREENING","visitnum":"1.0"},{"seq":"2","testcd":"MADRS02","test":"Reported Sadness","cat":"MADRS","scat":null,"orres":"2","stresc":"2","stresn":"2.0","dtc":"2024-04-09","dy":"-15","visit":"SCREENING","visitnum":"1.0"},{"seq":"3","testcd":"MADRS03","test":"Inner Tension","cat":"MADRS","scat":null,"orres":"1","stresc":"1","stresn":"1.0","dtc":"2024-04-09","dy":"-15","visit":"SCREENING","visitnum":"1.0"},{"seq":"4","testcd":"MADRS04","test":"Reduced Sleep","cat":"MADRS","scat":null,"orres":"2","stresc":"2","stresn":"2.0","dtc":"2024-04-09","dy":"-15","visit":"SCREENING","visitnum":"1.0"},{"seq":"5","testcd":"MADRS05","test":"Reduced Appetite","cat":"MADRS","scat":null,"orres":"2","stresc":"2","stresn":"2.0","dtc":"2024-04-09","dy":"-15","visit":"SCREENING","visitnum":"1.0"},{"seq":"6","testcd":"MADRS06","test":"Concentration Difficulties","cat":"MADRS","scat":null,"orres":"2","stresc":"2","stresn":"2.0","dtc":"2024-04-09","dy":"-15","visit":"SCREENING","visitnum":"1.0"},{"seq":"7","testcd":"MADRS07","test":"Lassitude","cat":"MADRS","scat":null,"orres":"3","stresc":"3","stresn":"3.0","dtc":"2024-04-09","dy":"-15","visit":"SCREENING","visitnum":"1.0"},{"seq":"8","testcd":"MADRS08","test":"Inability to Feel","cat":"MADRS","scat":null,"orres":"4","stresc":"4","stresn":"4.0","dtc":"2024-04-09","dy":"-15","visit":"SCREENING","visitnum":"1.0"},{"seq":"9","testcd":"MADRS09","test":"Pessimistic Thoughts","cat":"MADRS","scat":null,"orres":"3","stresc":"3","stresn":"3.0","dtc":"2024-04-09","dy":"-15","visit":"SCREENING","visitnum":"1.0"},{"seq":"10","testcd":"MADRS10","test":"Suicidal Thoughts","cat":"MADRS","scat":null,"orres":"3","stresc":"3","stresn":"3.0","dtc":"2024-04-09","dy":"-15","visit":"SCREENING","visitnum":"1.0"},{"seq":"11","testcd":"MADRSTOT","test":"MADRS Total Score","cat":"MADRS","scat":"TOTAL","orres":"23.0","stresc":"23.0","stresn":"23.0","dtc":"2024-04-09","dy":"-15","visit":"SCREENING","visitnum":"1.0"},{"seq":"12","testcd":"MADRS01","test":"Apparent Sadness","cat":"MADRS","scat":null,"orres":"2","stresc":"2","stresn":"2.0","dtc":"2024-04-24","dy":"1","visit":"DOSING DAY","visitnum":"2.0"},{"seq":"13","testcd":"MADRS02","test":"Reported Sadness","cat":"MADRS","scat":null,"orres":"4","stresc":"4","stresn":"4.0","dtc":"2024-04-24","dy":"1","visit":"DOSING DAY","visitnum":"2.0"},{"seq":"14","testcd":"MADRS03","test":"Inner Tension","cat":"MADRS","scat":null,"orres":"3","stresc":"3","stresn":"3.0","dtc":"2024-04-24","dy":"1","visit":"DOSING DAY","visitnum":"2.0"},{"seq":"15","testcd":"MADRS04","test":"Reduced Sleep","cat":"MADRS","scat":null,"orres":"2","stresc":"2","stresn":"2.0","dtc":"2024-04-24","dy":"1","visit":"DOSING DAY","visitnum":"2.0"},{"seq":"16","testcd":"MADRS05","test":"Reduced Appetite","cat":"MADRS","scat":null,"orres":"5","stresc":"5","stresn":"5.0","dtc":"2024-04-24","dy":"1","visit":"DOSING DAY","visitnum":"2.0"},{"seq":"17","testcd":"MADRS06","test":"Concentration Difficulties","cat":"MADRS","scat":null,"orres":"3","stresc":"3","stresn":"3.0","dtc":"2024-04-24","dy":"1","visit":"DOSING DAY","visitnum":"2.0"},{"seq":"18","testcd":"MADRS07","test":"Lassitude","cat":"MADRS","scat":null,"orres":"1","stresc":"1","stresn":"1.0","dtc":"2024-04-24","dy":"1","visit":"DOSING DAY","visitnum":"2.0"},{"seq":"19","testcd":"MADRS08","test":"Inability to Feel","cat":"MADRS","scat":null,"orres":"3","stresc":"3","stresn":"3.0","dtc":"2024-04-24","dy":"1","visit":"DOSING DAY","visitnum":"2.0"},{"seq":"20","testcd":"MADRS09","test":"Pessimistic Thoughts","cat":"MADRS","scat":null,"orres":"3","stresc":"3","stresn":"3.0","dtc":"2024-04-24","dy":"1","visit":"DOSING DAY","visitnum":"2.0"},{"seq":"21","testcd":"MADRS10","test":"Suicidal Thoughts","cat":"MADRS","scat":null,"orres":"4","stresc":"4","stresn":"4.0","dtc":"2024-04-24","dy":"1","visit":"DOSING DAY","visitnum":"2.0"},{"seq":"22","testcd":"MADRSTOT","test":"MADRS Total Score","cat":"MADRS","scat":"TOTAL","orres":"30.0","stresc":"30.0","stresn":"30.0","dtc":"2024-04-24","dy":"1","visit":"DOSING DAY","visitnum":"2.0"}],"findings_about":[]},"section_11_protocol_deviations":{"deviations":[{"seq":"1","term":"Missed PSILOCYBIN dose on 2024-05-15","decod":"MISSED DOSE","cat":"MINOR","scat":"DOSING","start_dtc":"2024-05-15","end_dtc":null,"visit":null},{"seq":"2","term":"Visit WEEK 3 occurred 1 days late (Day 23 vs planned Day 22)","decod":"VISIT OCCURRED OUTSIDE VISIT WINDOW","cat":"MINOR","scat":"VISIT WINDOW","start_dtc":"2024-05-16","end_dtc":null,"visit":null},{"seq":"3","term":"Visit WEEK 12 occurred 4 days early (Day 81 vs planned Day 85)","decod":"VISIT OCCURRED OUTSIDE VISIT WINDOW","cat":"MINOR","scat":"VISIT WINDOW","start_dtc":"2024-07-13","end_dtc":null,"visit":null},{"seq":"4","term":"Vital signs assessment not performed at WEEK 12","decod":"MISSED ASSESSMENT","cat":"MINOR","scat":"ASSESSMENT","start_dtc":"2024-07-13","end_dtc":null,"visit":null}],"total":4},"section_12_disposition":{"completion_status":"COMPLETED","disposition_records":[{"seq":"1","term":"INFORMED CONSENT OBTAINED","decod":"INFORMED CONSENT OBTAINED","cat":"PROTOCOL MILESTONE","scat":null,"dtc":"2024-04-09","dy":null,"visit":null,"epoch":"SCREENING"},{"seq":"2","term":"RANDOMIZED","decod":"RANDOMIZED","cat":"PROTOCOL MILESTONE","scat":null,"dtc":"2024-04-24","dy":null,"visit":null,"epoch":"TREATMENT"},{"seq":"3","term":"COMPLETED","decod":"COMPLETED","cat":"DISPOSITION EVENT","scat":null,"dtc":"2024-08-15","dy":null,"visit":null,"epoch":"FOLLOW-UP"}],"death":null},"section_13_hospitalizations":{"items":[],"total":0},"section_14_substance_use":{"items":[{"seq":"1","substance":"ALCOHOL","decod":"ALCOHOL","cat":"ALCOHOL","scat":null,"usage":"N","dose":null,"dosu":null,"freq":null,"start_dtc":null,"end_dtc":null},{"seq":"2","substance":"COFFEE","decod":"COFFEE","cat":"CAFFEINE","scat":null,"usage":"Y","dose":"4.0","dosu":"CUPS/DAY","freq":"QD","start_dtc":"1996-04-16","end_dtc":null},{"seq":"3","substance":"CIGARETTES","decod":"CIGARETTES","cat":"TOBACCO","scat":"CIGARETTES","usage":"Y","dose":null,"dosu":null,"freq":null,"start_dtc":"2007-04-14","end_dtc":"2012-04-12"}],"total":3},"section_15_subject_status":{"items":[{"seq":"1","testcd":"SURVSTAT","test":"Survival Status","orres":"ALIVE","stresc":"ALIVE","dtc":"2024-08-15","visit":"END OF STUDY","epoch":"FOLLOW-UP"}],"total":1}}