{"subject_id":"TERPSIS-MDD-201-SITE003-0024","study_id":"TERPSIS-MDD-201","generated_at":"2026-06-16T11:15:10.721623+00:00","sdtmig_version":"3.4","flags":{"has_serious_ae":true,"has_fatal_ae":false,"has_protocol_deviation":true,"n_protocol_deviations":6,"n_adverse_events":7,"n_concomitant_meds":3,"max_ae_severity":"SEVERE","screen_failure":false,"discontinued_early":false,"discontinuation_reason":null,"death":false,"exposure_days":33},"timeline":[{"dtc":"2024-01-18","dy":"-40","event":"VISIT: SCREENING","domain":"SV","category":"visit"},{"dtc":"2024-02-17","dy":"-10","event":"INFORMED CONSENT OBTAINED","domain":"DS","category":"milestone"},{"dtc":"2024-02-27","dy":"1","event":"RANDOMIZED","domain":"DS","category":"milestone"},{"dtc":"2024-02-27","dy":"1","event":"FIRST DOSE: PSILOCYBIN","domain":"EX","category":"exposure"},{"dtc":"2024-02-27","dy":"1","event":"VISIT: DOSING DAY","domain":"SV","category":"visit"},{"dtc":"2024-02-28","dy":"2","event":"VISIT: DAY 2","domain":"SV","category":"visit"},{"dtc":"2024-03-02","dy":"5","event":"AE: Headache (SEVERE) [SERIOUS]","domain":"AE","category":"adverse_event"},{"dtc":"2024-03-02","dy":"5","event":"CM START: PARACETAMOL","domain":"CM","category":"concomitant_med"},{"dtc":"2024-03-04","dy":"7","event":"VISIT: WEEK 1","domain":"SV","category":"visit"},{"dtc":"2024-03-12","dy":"15","event":"DEVIATION: MISSED DOSE","domain":"DV","category":"deviation"},{"dtc":"2024-03-13","dy":"16","event":"AE: Nasopharyngitis (MODERATE)","domain":"AE","category":"adverse_event"},{"dtc":"2024-03-16","dy":"19","event":"DEVIATION: MISSED DOSE","domain":"DV","category":"deviation"},{"dtc":"2024-03-17","dy":"20","event":"DEVIATION: VISIT OCCURRED OUTSIDE VISIT WINDOW","domain":"DV","category":"deviation"},{"dtc":"2024-03-17","dy":"20","event":"VISIT: WEEK 3","domain":"SV","category":"visit"},{"dtc":"2024-03-23","dy":"26","event":"DEVIATION: MISSED DOSE","domain":"DV","category":"deviation"},{"dtc":"2024-03-26","dy":"29","event":"DEVIATION: MISSED DOSE","domain":"DV","category":"deviation"},{"dtc":"2024-03-27","dy":"30","event":"DEVIATION: MISSED DOSE","domain":"DV","category":"deviation"},{"dtc":"2024-03-29","dy":"32","event":"AE: Constipation (MILD)","domain":"AE","category":"adverse_event"},{"dtc":"2024-03-29","dy":"32","event":"CM START: POLYETHYLENE GLYCOL","domain":"CM","category":"concomitant_med"},{"dtc":"2024-04-04","dy":"38","event":"AE: Anxiety (MODERATE)","domain":"AE","category":"adverse_event"},{"dtc":"2024-04-09","dy":"43","event":"VISIT: WEEK 6","domain":"SV","category":"visit"},{"dtc":"2024-04-10","dy":"44","event":"AE: Dry mouth (MILD)","domain":"AE","category":"adverse_event"},{"dtc":"2024-04-24","dy":"58","event":"AE: Dry mouth (MILD)","domain":"AE","category":"adverse_event"},{"dtc":"2024-04-28","dy":"62","event":"AE: Dry mouth (SEVERE) [SERIOUS]","domain":"AE","category":"adverse_event"},{"dtc":"2024-04-28","dy":"62","event":"CM START: ARTIFICIAL SALIVA","domain":"CM","category":"concomitant_med"},{"dtc":"2024-05-19","dy":"83","event":"VISIT: WEEK 12","domain":"SV","category":"visit"},{"dtc":"2024-06-19","dy":"114","event":"COMPLETED","domain":"DS","category":"milestone"}],"section_1_demographics":{"usubjid":"TERPSIS-MDD-201-SITE003-0024","subjid":"0024","siteid":"SITE003","age":"63","ageu":"YEARS","sex":"F","race":"ASIAN","ethnicity":"UNKNOWN","country":"USA","arm":"Psilocybin 1mg (Control)","armcd":"PSI1","actarm":"Psilocybin 1mg (Control)","actarmcd":"PSI1","randomization_date":null,"informed_consent_date":"2024-02-17","reference_start_date":"2024-02-27","reference_end_date":"2024-06-19","screen_failure":false,"death_flag":null,"death_date":null,"subject_characteristics":[{"testcd":"ALCUSE","test":"Alcohol Use","orres":"NON-DRINKER","stresc":"NON-DRINKER","visit":null,"dtc":"2024-02-17"},{"testcd":"BMI","test":"Body Mass Index","orres":"27.1","stresc":"27.1","visit":null,"dtc":"2024-02-17"},{"testcd":"TOBUSE","test":"Tobacco Use","orres":"NEVER SMOKED","stresc":"NEVER SMOKED","visit":null,"dtc":"2024-02-17"}]},"section_2_medical_history":{"items":[]},"section_3_inclusion_exclusion":{"criteria":[]},"section_4_trial_participation":{"visits":[{"visitnum":"1.0","visit":"SCREENING","start_dtc":"2024-01-18","end_dtc":"2024-01-18","updes":null},{"visitnum":"2.0","visit":"DOSING DAY","start_dtc":"2024-02-27","end_dtc":"2024-02-27","updes":null},{"visitnum":"3.0","visit":"DAY 2","start_dtc":"2024-02-28","end_dtc":"2024-02-28","updes":null},{"visitnum":"4.0","visit":"WEEK 1","start_dtc":"2024-03-04","end_dtc":"2024-03-04","updes":null},{"visitnum":"5.0","visit":"WEEK 3","start_dtc":"2024-03-17","end_dtc":"2024-03-17","updes":null},{"visitnum":"6.0","visit":"WEEK 6","start_dtc":"2024-04-09","end_dtc":"2024-04-09","updes":null},{"visitnum":"7.0","visit":"WEEK 12","start_dtc":"2024-05-19","end_dtc":"2024-05-19","updes":null}],"epochs":[{"seq":"1","etcd":"SCRN","element":"Screening","start_dtc":"2024-01-30","end_dtc":"2024-02-27","updes":null},{"seq":"2","etcd":"TRT","element":"Treatment/Observation","start_dtc":"2024-02-27","end_dtc":"2024-05-22","updes":null},{"seq":"3","etcd":"FU","element":"Follow-up","start_dtc":"2024-05-22","end_dtc":"2024-05-22","updes":null}],"visit_count":7},"section_5_concomitant_medications":{"medications":[{"seq":"1","trt":"PARACETAMOL","decod":"PARACETAMOL","cat":"CONCOMITANT","dose":"500","doseu":null,"dosef":"PRN","route":"ORAL","indication":"HEADACHE","start_dtc":"2024-03-02","end_dtc":"2024-03-31","ongoing":null,"visit":null},{"seq":"2","trt":"POLYETHYLENE GLYCOL","decod":"POLYETHYLENE GLYCOL","cat":"CONCOMITANT","dose":"17","doseu":null,"dosef":"QD","route":"ORAL","indication":"CONSTIPATION","start_dtc":"2024-03-29","end_dtc":"2024-04-25","ongoing":null,"visit":null},{"seq":"3","trt":"ARTIFICIAL SALIVA","decod":"ARTIFICIAL SALIVA","cat":"CONCOMITANT","dose":null,"doseu":null,"dosef":"PRN","route":"ORAL","indication":"DRY MOUTH","start_dtc":"2024-04-28","end_dtc":"2024-05-10","ongoing":null,"visit":null}]},"section_6_exposure":{"exposure_as_administered":[{"seq":"1","trt":"PSILOCYBIN","dose":"1.0","doseu":null,"dosef":"ONCE","route":"ORAL","lot":null,"start_dtc":"2024-02-27","end_dtc":"2024-03-31","start_dy":"1","end_dy":"34","epoch":"TREATMENT","visit":null}],"exposure_as_collected":[{"seq":"1","trt":"PSILOCYBIN","dose":"1.0","doseu":null,"dosef":"ONCE","route":"ORAL","start_dtc":"2024-02-27","end_dtc":"2024-02-27","visit":"DOSING DAY"},{"seq":"2","trt":"PSILOCYBIN","dose":"1.0","doseu":null,"dosef":"ONCE","route":"ORAL","start_dtc":"2024-02-28","end_dtc":"2024-02-28","visit":"DOSING DAY"},{"seq":"3","trt":"PSILOCYBIN","dose":"1.0","doseu":null,"dosef":"ONCE","route":"ORAL","start_dtc":"2024-02-29","end_dtc":"2024-02-29","visit":"DOSING DAY"},{"seq":"4","trt":"PSILOCYBIN","dose":"1.0","doseu":null,"dosef":"ONCE","route":"ORAL","start_dtc":"2024-03-01","end_dtc":"2024-03-01","visit":"DOSING DAY"},{"seq":"5","trt":"PSILOCYBIN","dose":"1.0","doseu":null,"dosef":"ONCE","route":"ORAL","start_dtc":"2024-03-02","end_dtc":"2024-03-02","visit":"DAY 2"},{"seq":"6","trt":"PSILOCYBIN","dose":"1.0","doseu":null,"dosef":"ONCE","route":"ORAL","start_dtc":"2024-03-03","end_dtc":"2024-03-03","visit":"WEEK 1"},{"seq":"7","trt":"PSILOCYBIN","dose":"1.0","doseu":null,"dosef":"ONCE","route":"ORAL","start_dtc":"2024-03-04","end_dtc":"2024-03-04","visit":"WEEK 1"},{"seq":"8","trt":"PSILOCYBIN","dose":"1.0","doseu":null,"dosef":"ONCE","route":"ORAL","start_dtc":"2024-03-05","end_dtc":"2024-03-05","visit":"WEEK 1"},{"seq":"9","trt":"PSILOCYBIN","dose":"1.0","doseu":null,"dosef":"ONCE","route":"ORAL","start_dtc":"2024-03-06","end_dtc":"2024-03-06","visit":"WEEK 1"},{"seq":"10","trt":"PSILOCYBIN","dose":"1.0","doseu":null,"dosef":"ONCE","route":"ORAL","start_dtc":"2024-03-07","end_dtc":"2024-03-07","visit":"WEEK 1"},{"seq":"11","trt":"PSILOCYBIN","dose":"1.0","doseu":null,"dosef":"ONCE","route":"ORAL","start_dtc":"2024-03-08","end_dtc":"2024-03-08","visit":"WEEK 1"},{"seq":"12","trt":"PSILOCYBIN","dose":"1.0","doseu":null,"dosef":"ONCE","route":"ORAL","start_dtc":"2024-03-09","end_dtc":"2024-03-09","visit":null},{"seq":"13","trt":"PSILOCYBIN","dose":"1.0","doseu":null,"dosef":"ONCE","route":"ORAL","start_dtc":"2024-03-10","end_dtc":"2024-03-10","visit":null},{"seq":"14","trt":"PSILOCYBIN","dose":"1.0","doseu":null,"dosef":"ONCE","route":"ORAL","start_dtc":"2024-03-11","end_dtc":"2024-03-11","visit":null},{"seq":"15","trt":"PSILOCYBIN","dose":null,"doseu":null,"dosef":"ONCE","route":"ORAL","start_dtc":"2024-03-12","end_dtc":"2024-03-12","visit":null},{"seq":"16","trt":"PSILOCYBIN","dose":"1.0","doseu":null,"dosef":"ONCE","route":"ORAL","start_dtc":"2024-03-13","end_dtc":"2024-03-13","visit":null},{"seq":"17","trt":"PSILOCYBIN","dose":"1.0","doseu":null,"dosef":"ONCE","route":"ORAL","start_dtc":"2024-03-14","end_dtc":"2024-03-14","visit":null},{"seq":"18","trt":"PSILOCYBIN","dose":"1.0","doseu":null,"dosef":"ONCE","route":"ORAL","start_dtc":"2024-03-15","end_dtc":"2024-03-15","visit":null},{"seq":"19","trt":"PSILOCYBIN","dose":null,"doseu":null,"dosef":"ONCE","route":"ORAL","start_dtc":"2024-03-16","end_dtc":"2024-03-16","visit":"WEEK 3"},{"seq":"20","trt":"PSILOCYBIN","dose":"1.0","doseu":null,"dosef":"ONCE","route":"ORAL","start_dtc":"2024-03-17","end_dtc":"2024-03-17","visit":"WEEK 3"},{"seq":"21","trt":"PSILOCYBIN","dose":"1.0","doseu":null,"dosef":"ONCE","route":"ORAL","start_dtc":"2024-03-18","end_dtc":"2024-03-18","visit":"WEEK 3"},{"seq":"22","trt":"PSILOCYBIN","dose":"1.0","doseu":null,"dosef":"ONCE","route":"ORAL","start_dtc":"2024-03-19","end_dtc":"2024-03-19","visit":"WEEK 3"},{"seq":"23","trt":"PSILOCYBIN","dose":"1.0","doseu":null,"dosef":"ONCE","route":"ORAL","start_dtc":"2024-03-20","end_dtc":"2024-03-20","visit":"WEEK 3"},{"seq":"24","trt":"PSILOCYBIN","dose":"1.0","doseu":null,"dosef":"ONCE","route":"ORAL","start_dtc":"2024-03-21","end_dtc":"2024-03-21","visit":"WEEK 3"},{"seq":"25","trt":"PSILOCYBIN","dose":"1.0","doseu":null,"dosef":"ONCE","route":"ORAL","start_dtc":"2024-03-22","end_dtc":"2024-03-22","visit":"WEEK 3"},{"seq":"26","trt":"PSILOCYBIN","dose":null,"doseu":null,"dosef":"ONCE","route":"ORAL","start_dtc":"2024-03-23","end_dtc":"2024-03-23","visit":null},{"seq":"27","trt":"PSILOCYBIN","dose":"1.0","doseu":null,"dosef":"ONCE","route":"ORAL","start_dtc":"2024-03-24","end_dtc":"2024-03-24","visit":null},{"seq":"28","trt":"PSILOCYBIN","dose":"1.0","doseu":null,"dosef":"ONCE","route":"ORAL","start_dtc":"2024-03-25","end_dtc":"2024-03-25","visit":null},{"seq":"29","trt":"PSILOCYBIN","dose":null,"doseu":null,"dosef":"ONCE","route":"ORAL","start_dtc":"2024-03-26","end_dtc":"2024-03-26","visit":null},{"seq":"30","trt":"PSILOCYBIN","dose":null,"doseu":null,"dosef":"ONCE","route":"ORAL","start_dtc":"2024-03-27","end_dtc":"2024-03-27","visit":null},{"seq":"31","trt":"PSILOCYBIN","dose":"1.0","doseu":null,"dosef":"ONCE","route":"ORAL","start_dtc":"2024-03-28","end_dtc":"2024-03-28","visit":null},{"seq":"32","trt":"PSILOCYBIN","dose":"1.0","doseu":null,"dosef":"ONCE","route":"ORAL","start_dtc":"2024-03-29","end_dtc":"2024-03-29","visit":null},{"seq":"33","trt":"PSILOCYBIN","dose":"1.0","doseu":null,"dosef":"ONCE","route":"ORAL","start_dtc":"2024-03-30","end_dtc":"2024-03-30","visit":null},{"seq":"34","trt":"PSILOCYBIN","dose":"1.0","doseu":null,"dosef":"ONCE","route":"ORAL","start_dtc":"2024-03-31","end_dtc":"2024-03-31","visit":null}]},"section_7_adverse_events":{"summary":{"total_aes":7,"serious_aes":2,"fatal_aes":0,"by_severity":{"SEVERE":2,"MODERATE":2,"MILD":3},"by_soc":{"Nervous system disorders":1,"Infections and infestations":1,"Gastrointestinal disorders":4,"Psychiatric disorders":1}},"events":[{"seq":"1","term":"HEADACHE","decod":"Headache","llt":"Headache","hlt":"Headaches NEC","hlgt":"Headaches","soc":"Nervous system disorders","bodsys":"Nervous system disorders","severity":"SEVERE","serious":"Y","causality":"NOT RELATED","action_taken":"DOSE NOT CHANGED","outcome":"RECOVERED/RESOLVED","fatal":"N","hospitalization":"N","life_threatening":"N","onset_dtc":"2024-03-02","end_dtc":"2024-03-12","onset_dy":"5","end_dy":"15","duration":null,"epoch":"TREATMENT","visit":null,"supplemental":{}},{"seq":"2","term":"NASOPHARYNGITIS","decod":"Nasopharyngitis","llt":"Nasopharyngitis","hlt":"Upper respiratory tract infections","hlgt":"Upper respiratory tract infections","soc":"Infections and infestations","bodsys":"Infections and infestations","severity":"MODERATE","serious":"N","causality":"POSSIBLY RELATED","action_taken":"DOSE NOT CHANGED","outcome":"RECOVERED/RESOLVED","fatal":"N","hospitalization":"N","life_threatening":"N","onset_dtc":"2024-03-13","end_dtc":"2024-03-18","onset_dy":"16","end_dy":"21","duration":null,"epoch":"TREATMENT","visit":null,"supplemental":{}},{"seq":"3","term":"CONSTIPATION","decod":"Constipation","llt":"Constipation","hlt":"Gastrointestinal motility and defaecation conditions NEC","hlgt":"Gastrointestinal motility and defaecation conditions","soc":"Gastrointestinal disorders","bodsys":"Gastrointestinal disorders","severity":"MILD","serious":"N","causality":"NOT RELATED","action_taken":"DOSE NOT CHANGED","outcome":"RECOVERED/RESOLVED","fatal":"N","hospitalization":"N","life_threatening":"N","onset_dtc":"2024-03-29","end_dtc":"2024-04-04","onset_dy":"32","end_dy":"38","duration":null,"epoch":"TREATMENT","visit":null,"supplemental":{}},{"seq":"4","term":"ANXIETY","decod":"Anxiety","llt":"Anxiety","hlt":"Anxiety symptoms","hlgt":"Anxiety disorders and symptoms","soc":"Psychiatric disorders","bodsys":"Psychiatric disorders","severity":"MODERATE","serious":"N","causality":"PROBABLY RELATED","action_taken":"DRUG INTERRUPTED","outcome":"RECOVERED/RESOLVED","fatal":"N","hospitalization":"N","life_threatening":"N","onset_dtc":"2024-04-04","end_dtc":"2024-05-03","onset_dy":"38","end_dy":"67","duration":null,"epoch":"TREATMENT","visit":null,"supplemental":{}},{"seq":"5","term":"DRY MOUTH","decod":"Dry mouth","llt":"Dry mouth","hlt":"Salivary gland conditions","hlgt":"Oral soft tissue conditions","soc":"Gastrointestinal disorders","bodsys":"Gastrointestinal disorders","severity":"MILD","serious":"N","causality":"NOT RELATED","action_taken":"DOSE NOT CHANGED","outcome":"RECOVERED/RESOLVED","fatal":"N","hospitalization":"N","life_threatening":"N","onset_dtc":"2024-04-10","end_dtc":"2024-04-17","onset_dy":"44","end_dy":"51","duration":null,"epoch":"TREATMENT","visit":null,"supplemental":{}},{"seq":"6","term":"DRY MOUTH","decod":"Dry mouth","llt":"Dry mouth","hlt":"Salivary gland conditions","hlgt":"Oral soft tissue conditions","soc":"Gastrointestinal disorders","bodsys":"Gastrointestinal disorders","severity":"MILD","serious":"N","causality":"UNLIKELY RELATED","action_taken":"DOSE NOT CHANGED","outcome":"RECOVERED/RESOLVED","fatal":"N","hospitalization":"N","life_threatening":"N","onset_dtc":"2024-04-24","end_dtc":"2024-05-03","onset_dy":"58","end_dy":"67","duration":null,"epoch":"TREATMENT","visit":null,"supplemental":{}},{"seq":"7","term":"DRY MOUTH","decod":"Dry mouth","llt":"Dry mouth","hlt":"Salivary gland conditions","hlgt":"Oral soft tissue conditions","soc":"Gastrointestinal disorders","bodsys":"Gastrointestinal disorders","severity":"SEVERE","serious":"Y","causality":"UNLIKELY RELATED","action_taken":"DOSE NOT CHANGED","outcome":"RECOVERED/RESOLVED","fatal":"N","hospitalization":"Y","life_threatening":"N","onset_dtc":"2024-04-28","end_dtc":"2024-06-13","onset_dy":"62","end_dy":"108","duration":null,"epoch":"TREATMENT","visit":null,"supplemental":{}}]},"section_8_laboratory_results":{"summary":{"total_records":49,"abnormal_count":0,"abnormal_pct":0.0},"shift_summary":[{"testcd":"ALT","baseline_value":18.51,"baseline_nrind":"NORMAL","worst_post_baseline_value":19.83,"worst_post_baseline_nrind":"NORMAL","worst_visit":"WEEK 3"},{"testcd":"AST","baseline_value":19.37,"baseline_nrind":"NORMAL","worst_post_baseline_value":21.37,"worst_post_baseline_nrind":"NORMAL","worst_visit":"WEEK 12"},{"testcd":"CREAT","baseline_value":72.63,"baseline_nrind":"NORMAL","worst_post_baseline_value":74.56,"worst_post_baseline_nrind":"NORMAL","worst_visit":"DAY 2"},{"testcd":"GLUC","baseline_value":5.4,"baseline_nrind":"NORMAL","worst_post_baseline_value":5.51,"worst_post_baseline_nrind":"NORMAL","worst_visit":"WEEK 6"},{"testcd":"HGB","baseline_value":133.48,"baseline_nrind":"NORMAL","worst_post_baseline_value":133.91,"worst_post_baseline_nrind":"NORMAL","worst_visit":"DOSING DAY"},{"testcd":"PLAT","baseline_value":217.03,"baseline_nrind":"NORMAL","worst_post_baseline_value":215.57,"worst_post_baseline_nrind":"NORMAL","worst_visit":"DAY 2"},{"testcd":"WBC","baseline_value":6.68,"baseline_nrind":"NORMAL","worst_post_baseline_value":7.4,"worst_post_baseline_nrind":"NORMAL","worst_visit":"DAY 2"}],"results":[{"seq":"1","testcd":"ALT","test":"Alanine Aminotransferase","cat":"CHEMISTRY","orres":"18.51","orresu":"U/L","stresc":"18.51","stresn":"18.51","stresu":"U/L","stnrlo":"7","stnrhi":"56","nrind":"NORMAL","fast":null,"dtc":"2024-01-18","dy":"-40","visit":"SCREENING","visitnum":"1.0","epoch":"SCREENING","spec":null,"method":null},{"seq":"2","testcd":"AST","test":"Aspartate Aminotransferase","cat":"CHEMISTRY","orres":"19.37","orresu":"U/L","stresc":"19.37","stresn":"19.37","stresu":"U/L","stnrlo":"10","stnrhi":"40","nrind":"NORMAL","fast":null,"dtc":"2024-01-18","dy":"-40","visit":"SCREENING","visitnum":"1.0","epoch":"SCREENING","spec":null,"method":null},{"seq":"3","testcd":"CREAT","test":"Creatinine","cat":"CHEMISTRY","orres":"72.63","orresu":"umol/L","stresc":"72.63","stresn":"72.63","stresu":"umol/L","stnrlo":"44","stnrhi":"80","nrind":"NORMAL","fast":null,"dtc":"2024-01-18","dy":"-40","visit":"SCREENING","visitnum":"1.0","epoch":"SCREENING","spec":null,"method":null},{"seq":"4","testcd":"GLUC","test":"Glucose","cat":"CHEMISTRY","orres":"5.4","orresu":"mmol/L","stresc":"5.4","stresn":"5.4","stresu":"mmol/L","stnrlo":"3.9","stnrhi":"5.6","nrind":"NORMAL","fast":null,"dtc":"2024-01-18","dy":"-40","visit":"SCREENING","visitnum":"1.0","epoch":"SCREENING","spec":null,"method":null},{"seq":"5","testcd":"HGB","test":"Hemoglobin","cat":"HEMATOLOGY","orres":"133.48","orresu":"g/L","stresc":"133.48","stresn":"133.48","stresu":"g/L","stnrlo":"120","stnrhi":"155","nrind":"NORMAL","fast":null,"dtc":"2024-01-18","dy":"-40","visit":"SCREENING","visitnum":"1.0","epoch":"SCREENING","spec":null,"method":null},{"seq":"6","testcd":"PLAT","test":"Platelets","cat":"HEMATOLOGY","orres":"217.03","orresu":"10^9/L","stresc":"217.03","stresn":"217.03","stresu":"10^9/L","stnrlo":"150","stnrhi":"400","nrind":"NORMAL","fast":null,"dtc":"2024-01-18","dy":"-40","visit":"SCREENING","visitnum":"1.0","epoch":"SCREENING","spec":null,"method":null},{"seq":"7","testcd":"WBC","test":"Leukocytes","cat":"HEMATOLOGY","orres":"6.68","orresu":"10^9/L","stresc":"6.68","stresn":"6.68","stresu":"10^9/L","stnrlo":"4.0","stnrhi":"11.0","nrind":"NORMAL","fast":null,"dtc":"2024-01-18","dy":"-40","visit":"SCREENING","visitnum":"1.0","epoch":"SCREENING","spec":null,"method":null},{"seq":"8","testcd":"ALT","test":"Alanine Aminotransferase","cat":"CHEMISTRY","orres":"16.82","orresu":"U/L","stresc":"16.82","stresn":"16.82","stresu":"U/L","stnrlo":"7","stnrhi":"56","nrind":"NORMAL","fast":null,"dtc":"2024-02-27","dy":"1","visit":"DOSING DAY","visitnum":"2.0","epoch":"TREATMENT","spec":null,"method":null},{"seq":"9","testcd":"AST","test":"Aspartate Aminotransferase","cat":"CHEMISTRY","orres":"20.02","orresu":"U/L","stresc":"20.02","stresn":"20.02","stresu":"U/L","stnrlo":"10","stnrhi":"40","nrind":"NORMAL","fast":null,"dtc":"2024-02-27","dy":"1","visit":"DOSING DAY","visitnum":"2.0","epoch":"TREATMENT","spec":null,"method":null},{"seq":"10","testcd":"CREAT","test":"Creatinine","cat":"CHEMISTRY","orres":null,"orresu":null,"stresc":null,"stresn":null,"stresu":null,"stnrlo":null,"stnrhi":null,"nrind":null,"fast":null,"dtc":"2024-02-27","dy":"1","visit":"DOSING DAY","visitnum":"2.0","epoch":"TREATMENT","spec":null,"method":null},{"seq":"11","testcd":"GLUC","test":"Glucose","cat":"CHEMISTRY","orres":"5.46","orresu":"mmol/L","stresc":"5.46","stresn":"5.46","stresu":"mmol/L","stnrlo":"3.9","stnrhi":"5.6","nrind":"NORMAL","fast":null,"dtc":"2024-02-27","dy":"1","visit":"DOSING DAY","visitnum":"2.0","epoch":"TREATMENT","spec":null,"method":null},{"seq":"12","testcd":"HGB","test":"Hemoglobin","cat":"HEMATOLOGY","orres":"133.91","orresu":"g/L","stresc":"133.91","stresn":"133.91","stresu":"g/L","stnrlo":"120","stnrhi":"155","nrind":"NORMAL","fast":null,"dtc":"2024-02-27","dy":"1","visit":"DOSING DAY","visitnum":"2.0","epoch":"TREATMENT","spec":null,"method":null},{"seq":"13","testcd":"PLAT","test":"Platelets","cat":"HEMATOLOGY","orres":null,"orresu":null,"stresc":null,"stresn":null,"stresu":null,"stnrlo":null,"stnrhi":null,"nrind":null,"fast":null,"dtc":"2024-02-27","dy":"1","visit":"DOSING DAY","visitnum":"2.0","epoch":"TREATMENT","spec":null,"method":null},{"seq":"14","testcd":"WBC","test":"Leukocytes","cat":"HEMATOLOGY","orres":"6.76","orresu":"10^9/L","stresc":"6.76","stresn":"6.76","stresu":"10^9/L","stnrlo":"4.0","stnrhi":"11.0","nrind":"NORMAL","fast":null,"dtc":"2024-02-27","dy":"1","visit":"DOSING DAY","visitnum":"2.0","epoch":"TREATMENT","spec":null,"method":null},{"seq":"15","testcd":"ALT","test":"Alanine Aminotransferase","cat":"CHEMISTRY","orres":"17.43","orresu":"U/L","stresc":"17.43","stresn":"17.43","stresu":"U/L","stnrlo":"7","stnrhi":"56","nrind":"NORMAL","fast":null,"dtc":"2024-02-28","dy":"2","visit":"DAY 2","visitnum":"3.0","epoch":"FOLLOW-UP","spec":null,"method":null},{"seq":"16","testcd":"AST","test":"Aspartate Aminotransferase","cat":"CHEMISTRY","orres":"20.4","orresu":"U/L","stresc":"20.4","stresn":"20.4","stresu":"U/L","stnrlo":"10","stnrhi":"40","nrind":"NORMAL","fast":null,"dtc":"2024-02-28","dy":"2","visit":"DAY 2","visitnum":"3.0","epoch":"FOLLOW-UP","spec":null,"method":null},{"seq":"17","testcd":"CREAT","test":"Creatinine","cat":"CHEMISTRY","orres":"74.56","orresu":"umol/L","stresc":"74.56","stresn":"74.56","stresu":"umol/L","stnrlo":"44","stnrhi":"80","nrind":"NORMAL","fast":null,"dtc":"2024-02-28","dy":"2","visit":"DAY 2","visitnum":"3.0","epoch":"FOLLOW-UP","spec":null,"method":null},{"seq":"18","testcd":"GLUC","test":"Glucose","cat":"CHEMISTRY","orres":"5.47","orresu":"mmol/L","stresc":"5.47","stresn":"5.47","stresu":"mmol/L","stnrlo":"3.9","stnrhi":"5.6","nrind":"NORMAL","fast":null,"dtc":"2024-02-28","dy":"2","visit":"DAY 2","visitnum":"3.0","epoch":"FOLLOW-UP","spec":null,"method":null},{"seq":"19","testcd":"HGB","test":"Hemoglobin","cat":"HEMATOLOGY","orres":"134.98","orresu":"g/L","stresc":"134.98","stresn":"134.98","stresu":"g/L","stnrlo":"120","stnrhi":"155","nrind":"NORMAL","fast":null,"dtc":"2024-02-28","dy":"2","visit":"DAY 2","visitnum":"3.0","epoch":"FOLLOW-UP","spec":null,"method":null},{"seq":"20","testcd":"PLAT","test":"Platelets","cat":"HEMATOLOGY","orres":"215.57","orresu":"10^9/L","stresc":"215.57","stresn":"215.57","stresu":"10^9/L","stnrlo":"150","stnrhi":"400","nrind":"NORMAL","fast":null,"dtc":"2024-02-28","dy":"2","visit":"DAY 2","visitnum":"3.0","epoch":"FOLLOW-UP","spec":null,"method":null},{"seq":"21","testcd":"WBC","test":"Leukocytes","cat":"HEMATOLOGY","orres":"7.4","orresu":"10^9/L","stresc":"7.4","stresn":"7.4","stresu":"10^9/L","stnrlo":"4.0","stnrhi":"11.0","nrind":"NORMAL","fast":null,"dtc":"2024-02-28","dy":"2","visit":"DAY 2","visitnum":"3.0","epoch":"FOLLOW-UP","spec":null,"method":null},{"seq":"22","testcd":"ALT","test":"Alanine Aminotransferase","cat":"CHEMISTRY","orres":"18.09","orresu":"U/L","stresc":"18.09","stresn":"18.09","stresu":"U/L","stnrlo":"7","stnrhi":"56","nrind":"NORMAL","fast":null,"dtc":"2024-03-04","dy":"7","visit":"WEEK 1","visitnum":"4.0","epoch":"FOLLOW-UP","spec":null,"method":null},{"seq":"23","testcd":"AST","test":"Aspartate Aminotransferase","cat":"CHEMISTRY","orres":"19.95","orresu":"U/L","stresc":"19.95","stresn":"19.95","stresu":"U/L","stnrlo":"10","stnrhi":"40","nrind":"NORMAL","fast":null,"dtc":"2024-03-04","dy":"7","visit":"WEEK 1","visitnum":"4.0","epoch":"FOLLOW-UP","spec":null,"method":null},{"seq":"24","testcd":"CREAT","test":"Creatinine","cat":"CHEMISTRY","orres":"69.7","orresu":"umol/L","stresc":"69.7","stresn":"69.7","stresu":"umol/L","stnrlo":"44","stnrhi":"80","nrind":"NORMAL","fast":null,"dtc":"2024-03-04","dy":"7","visit":"WEEK 1","visitnum":"4.0","epoch":"FOLLOW-UP","spec":null,"method":null},{"seq":"25","testcd":"GLUC","test":"Glucose","cat":"CHEMISTRY","orres":"5.33","orresu":"mmol/L","stresc":"5.33","stresn":"5.33","stresu":"mmol/L","stnrlo":"3.9","stnrhi":"5.6","nrind":"NORMAL","fast":null,"dtc":"2024-03-04","dy":"7","visit":"WEEK 1","visitnum":"4.0","epoch":"FOLLOW-UP","spec":null,"method":null},{"seq":"26","testcd":"HGB","test":"Hemoglobin","cat":"HEMATOLOGY","orres":"136.41","orresu":"g/L","stresc":"136.41","stresn":"136.41","stresu":"g/L","stnrlo":"120","stnrhi":"155","nrind":"NORMAL","fast":null,"dtc":"2024-03-04","dy":"7","visit":"WEEK 1","visitnum":"4.0","epoch":"FOLLOW-UP","spec":null,"method":null},{"seq":"27","testcd":"PLAT","test":"Platelets","cat":"HEMATOLOGY","orres":"199.53","orresu":"10^9/L","stresc":"199.53","stresn":"199.53","stresu":"10^9/L","stnrlo":"150","stnrhi":"400","nrind":"NORMAL","fast":null,"dtc":"2024-03-04","dy":"7","visit":"WEEK 1","visitnum":"4.0","epoch":"FOLLOW-UP","spec":null,"method":null},{"seq":"28","testcd":"WBC","test":"Leukocytes","cat":"HEMATOLOGY","orres":"7.26","orresu":"10^9/L","stresc":"7.26","stresn":"7.26","stresu":"10^9/L","stnrlo":"4.0","stnrhi":"11.0","nrind":"NORMAL","fast":null,"dtc":"2024-03-04","dy":"7","visit":"WEEK 1","visitnum":"4.0","epoch":"FOLLOW-UP","spec":null,"method":null},{"seq":"29","testcd":"ALT","test":"Alanine Aminotransferase","cat":"CHEMISTRY","orres":"19.83","orresu":"U/L","stresc":"19.83","stresn":"19.83","stresu":"U/L","stnrlo":"7","stnrhi":"56","nrind":"NORMAL","fast":null,"dtc":"2024-03-17","dy":"20","visit":"WEEK 3","visitnum":"5.0","epoch":"FOLLOW-UP","spec":null,"method":null},{"seq":"30","testcd":"AST","test":"Aspartate Aminotransferase","cat":"CHEMISTRY","orres":"19.08","orresu":"U/L","stresc":"19.08","stresn":"19.08","stresu":"U/L","stnrlo":"10","stnrhi":"40","nrind":"NORMAL","fast":null,"dtc":"2024-03-17","dy":"20","visit":"WEEK 3","visitnum":"5.0","epoch":"FOLLOW-UP","spec":null,"method":null},{"seq":"31","testcd":"CREAT","test":"Creatinine","cat":"CHEMISTRY","orres":"69.82","orresu":"umol/L","stresc":"69.82","stresn":"69.82","stresu":"umol/L","stnrlo":"44","stnrhi":"80","nrind":"NORMAL","fast":null,"dtc":"2024-03-17","dy":"20","visit":"WEEK 3","visitnum":"5.0","epoch":"FOLLOW-UP","spec":null,"method":null},{"seq":"32","testcd":"GLUC","test":"Glucose","cat":"CHEMISTRY","orres":"5.37","orresu":"mmol/L","stresc":"5.37","stresn":"5.37","stresu":"mmol/L","stnrlo":"3.9","stnrhi":"5.6","nrind":"NORMAL","fast":null,"dtc":"2024-03-17","dy":"20","visit":"WEEK 3","visitnum":"5.0","epoch":"FOLLOW-UP","spec":null,"method":null},{"seq":"33","testcd":"HGB","test":"Hemoglobin","cat":"HEMATOLOGY","orres":"135.13","orresu":"g/L","stresc":"135.13","stresn":"135.13","stresu":"g/L","stnrlo":"120","stnrhi":"155","nrind":"NORMAL","fast":null,"dtc":"2024-03-17","dy":"20","visit":"WEEK 3","visitnum":"5.0","epoch":"FOLLOW-UP","spec":null,"method":null},{"seq":"34","testcd":"PLAT","test":"Platelets","cat":"HEMATOLOGY","orres":"193.96","orresu":"10^9/L","stresc":"193.96","stresn":"193.96","stresu":"10^9/L","stnrlo":"150","stnrhi":"400","nrind":"NORMAL","fast":null,"dtc":"2024-03-17","dy":"20","visit":"WEEK 3","visitnum":"5.0","epoch":"FOLLOW-UP","spec":null,"method":null},{"seq":"35","testcd":"WBC","test":"Leukocytes","cat":"HEMATOLOGY","orres":"7.03","orresu":"10^9/L","stresc":"7.03","stresn":"7.03","stresu":"10^9/L","stnrlo":"4.0","stnrhi":"11.0","nrind":"NORMAL","fast":null,"dtc":"2024-03-17","dy":"20","visit":"WEEK 3","visitnum":"5.0","epoch":"FOLLOW-UP","spec":null,"method":null},{"seq":"36","testcd":"ALT","test":"Alanine Aminotransferase","cat":"CHEMISTRY","orres":"14.75","orresu":"U/L","stresc":"14.75","stresn":"14.75","stresu":"U/L","stnrlo":"7","stnrhi":"56","nrind":"NORMAL","fast":null,"dtc":"2024-04-09","dy":"43","visit":"WEEK 6","visitnum":"6.0","epoch":"FOLLOW-UP","spec":null,"method":null},{"seq":"37","testcd":"AST","test":"Aspartate Aminotransferase","cat":"CHEMISTRY","orres":"19.95","orresu":"U/L","stresc":"19.95","stresn":"19.95","stresu":"U/L","stnrlo":"10","stnrhi":"40","nrind":"NORMAL","fast":null,"dtc":"2024-04-09","dy":"43","visit":"WEEK 6","visitnum":"6.0","epoch":"FOLLOW-UP","spec":null,"method":null},{"seq":"38","testcd":"CREAT","test":"Creatinine","cat":"CHEMISTRY","orres":"68.92","orresu":"umol/L","stresc":"68.92","stresn":"68.92","stresu":"umol/L","stnrlo":"44","stnrhi":"80","nrind":"NORMAL","fast":null,"dtc":"2024-04-09","dy":"43","visit":"WEEK 6","visitnum":"6.0","epoch":"FOLLOW-UP","spec":null,"method":null},{"seq":"39","testcd":"GLUC","test":"Glucose","cat":"CHEMISTRY","orres":"5.51","orresu":"mmol/L","stresc":"5.51","stresn":"5.51","stresu":"mmol/L","stnrlo":"3.9","stnrhi":"5.6","nrind":"NORMAL","fast":null,"dtc":"2024-04-09","dy":"43","visit":"WEEK 6","visitnum":"6.0","epoch":"FOLLOW-UP","spec":null,"method":null},{"seq":"40","testcd":"HGB","test":"Hemoglobin","cat":"HEMATOLOGY","orres":"134.91","orresu":"g/L","stresc":"134.91","stresn":"134.91","stresu":"g/L","stnrlo":"120","stnrhi":"155","nrind":"NORMAL","fast":null,"dtc":"2024-04-09","dy":"43","visit":"WEEK 6","visitnum":"6.0","epoch":"FOLLOW-UP","spec":null,"method":null},{"seq":"41","testcd":"PLAT","test":"Platelets","cat":"HEMATOLOGY","orres":"192.22","orresu":"10^9/L","stresc":"192.22","stresn":"192.22","stresu":"10^9/L","stnrlo":"150","stnrhi":"400","nrind":"NORMAL","fast":null,"dtc":"2024-04-09","dy":"43","visit":"WEEK 6","visitnum":"6.0","epoch":"FOLLOW-UP","spec":null,"method":null},{"seq":"42","testcd":"WBC","test":"Leukocytes","cat":"HEMATOLOGY","orres":"6.86","orresu":"10^9/L","stresc":"6.86","stresn":"6.86","stresu":"10^9/L","stnrlo":"4.0","stnrhi":"11.0","nrind":"NORMAL","fast":null,"dtc":"2024-04-09","dy":"43","visit":"WEEK 6","visitnum":"6.0","epoch":"FOLLOW-UP","spec":null,"method":null},{"seq":"43","testcd":"ALT","test":"Alanine Aminotransferase","cat":"CHEMISTRY","orres":"14.83","orresu":"U/L","stresc":"14.83","stresn":"14.83","stresu":"U/L","stnrlo":"7","stnrhi":"56","nrind":"NORMAL","fast":null,"dtc":"2024-05-19","dy":"83","visit":"WEEK 12","visitnum":"7.0","epoch":"FOLLOW-UP","spec":null,"method":null},{"seq":"44","testcd":"AST","test":"Aspartate Aminotransferase","cat":"CHEMISTRY","orres":"21.37","orresu":"U/L","stresc":"21.37","stresn":"21.37","stresu":"U/L","stnrlo":"10","stnrhi":"40","nrind":"NORMAL","fast":null,"dtc":"2024-05-19","dy":"83","visit":"WEEK 12","visitnum":"7.0","epoch":"FOLLOW-UP","spec":null,"method":null},{"seq":"45","testcd":"CREAT","test":"Creatinine","cat":"CHEMISTRY","orres":"72.03","orresu":"umol/L","stresc":"72.03","stresn":"72.03","stresu":"umol/L","stnrlo":"44","stnrhi":"80","nrind":"NORMAL","fast":null,"dtc":"2024-05-19","dy":"83","visit":"WEEK 12","visitnum":"7.0","epoch":"FOLLOW-UP","spec":null,"method":null},{"seq":"46","testcd":"GLUC","test":"Glucose","cat":"CHEMISTRY","orres":"5.5","orresu":"mmol/L","stresc":"5.5","stresn":"5.5","stresu":"mmol/L","stnrlo":"3.9","stnrhi":"5.6","nrind":"NORMAL","fast":null,"dtc":"2024-05-19","dy":"83","visit":"WEEK 12","visitnum":"7.0","epoch":"FOLLOW-UP","spec":null,"method":null},{"seq":"47","testcd":"HGB","test":"Hemoglobin","cat":"HEMATOLOGY","orres":"134.07","orresu":"g/L","stresc":"134.07","stresn":"134.07","stresu":"g/L","stnrlo":"120","stnrhi":"155","nrind":"NORMAL","fast":null,"dtc":"2024-05-19","dy":"83","visit":"WEEK 12","visitnum":"7.0","epoch":"FOLLOW-UP","spec":null,"method":null},{"seq":"48","testcd":"PLAT","test":"Platelets","cat":"HEMATOLOGY","orres":"192.48","orresu":"10^9/L","stresc":"192.48","stresn":"192.48","stresu":"10^9/L","stnrlo":"150","stnrhi":"400","nrind":"NORMAL","fast":null,"dtc":"2024-05-19","dy":"83","visit":"WEEK 12","visitnum":"7.0","epoch":"FOLLOW-UP","spec":null,"method":null},{"seq":"49","testcd":"WBC","test":"Leukocytes","cat":"HEMATOLOGY","orres":"7.31","orresu":"10^9/L","stresc":"7.31","stresn":"7.31","stresu":"10^9/L","stnrlo":"4.0","stnrhi":"11.0","nrind":"NORMAL","fast":null,"dtc":"2024-05-19","dy":"83","visit":"WEEK 12","visitnum":"7.0","epoch":"FOLLOW-UP","spec":null,"method":null}]},"section_9_vital_signs":{"summary":{"total_records":47},"trends":{"BMI":[{"visit":"SCREENING","visitnum":"1.0","dtc":"2024-01-18","value":"27.1","unit":"kg/m2"},{"visit":"DOSING DAY","visitnum":"2.0","dtc":"2024-02-27","value":"25.6","unit":"kg/m2"},{"visit":"WEEK 1","visitnum":"4.0","dtc":"2024-03-04","value":"26.0","unit":"kg/m2"},{"visit":"WEEK 3","visitnum":"5.0","dtc":"2024-03-17","value":"26.0","unit":"kg/m2"},{"visit":"WEEK 12","visitnum":"7.0","dtc":"2024-05-19","value":"28.7","unit":"kg/m2"}],"DIABP":[{"visit":"SCREENING","visitnum":"1.0","dtc":"2024-01-18","value":"79.9","unit":"mmHg"},{"visit":"DOSING DAY","visitnum":"2.0","dtc":"2024-02-27","value":"79.8","unit":"mmHg"},{"visit":"WEEK 1","visitnum":"4.0","dtc":"2024-03-04","value":"79.4","unit":"mmHg"},{"visit":"WEEK 3","visitnum":"5.0","dtc":"2024-03-17","value":"77.8","unit":"mmHg"},{"visit":"WEEK 6","visitnum":"6.0","dtc":"2024-04-09","value":"77.8","unit":"mmHg"},{"visit":"WEEK 12","visitnum":"7.0","dtc":"2024-05-19","value":"78.3","unit":"mmHg"}],"HEIGHT":[{"visit":"SCREENING","visitnum":"1.0","dtc":"2024-01-18","value":"140.5","unit":"cm"},{"visit":"DOSING DAY","visitnum":"2.0","dtc":"2024-02-27","value":"140.5","unit":"cm"},{"visit":"WEEK 1","visitnum":"4.0","dtc":"2024-03-04","value":"140.4","unit":"cm"},{"visit":"WEEK 3","visitnum":"5.0","dtc":"2024-03-17","value":"140.4","unit":"cm"},{"visit":"WEEK 12","visitnum":"7.0","dtc":"2024-05-19","value":"140.8","unit":"cm"}],"PULSE":[{"visit":"SCREENING","visitnum":"1.0","dtc":"2024-01-18","value":"65.1","unit":"beats/min"},{"visit":"DOSING DAY","visitnum":"2.0","dtc":"2024-02-27","value":"62.7","unit":"beats/min"},{"visit":"WEEK 1","visitnum":"4.0","dtc":"2024-03-04","value":"58.3","unit":"beats/min"},{"visit":"WEEK 3","visitnum":"5.0","dtc":"2024-03-17","value":"53.7","unit":"beats/min"},{"visit":"WEEK 6","visitnum":"6.0","dtc":"2024-04-09","value":"57.3","unit":"beats/min"},{"visit":"WEEK 12","visitnum":"7.0","dtc":"2024-05-19","value":"59.3","unit":"beats/min"}],"RESP":[{"visit":"SCREENING","visitnum":"1.0","dtc":"2024-01-18","value":"15.1","unit":"breaths/min"},{"visit":"DOSING DAY","visitnum":"2.0","dtc":"2024-02-27","value":"13.8","unit":"breaths/min"},{"visit":"WEEK 1","visitnum":"4.0","dtc":"2024-03-04","value":"15.8","unit":"breaths/min"},{"visit":"WEEK 3","visitnum":"5.0","dtc":"2024-03-17","value":"15.4","unit":"breaths/min"},{"visit":"WEEK 6","visitnum":"6.0","dtc":"2024-04-09","value":"14.1","unit":"breaths/min"},{"visit":"WEEK 12","visitnum":"7.0","dtc":"2024-05-19","value":"15.0","unit":"breaths/min"}],"SYSBP":[{"visit":"SCREENING","visitnum":"1.0","dtc":"2024-01-18","value":"104.0","unit":"mmHg"},{"visit":"DOSING DAY","visitnum":"2.0","dtc":"2024-02-27","value":"106.1","unit":"mmHg"},{"visit":"WEEK 1","visitnum":"4.0","dtc":"2024-03-04","value":"103.2","unit":"mmHg"},{"visit":"WEEK 3","visitnum":"5.0","dtc":"2024-03-17","value":"100.3","unit":"mmHg"},{"visit":"WEEK 6","visitnum":"6.0","dtc":"2024-04-09","value":"102.5","unit":"mmHg"},{"visit":"WEEK 12","visitnum":"7.0","dtc":"2024-05-19","value":"100.0","unit":"mmHg"}],"TEMP":[{"visit":"SCREENING","visitnum":"1.0","dtc":"2024-01-18","value":"36.6","unit":"C"},{"visit":"DOSING DAY","visitnum":"2.0","dtc":"2024-02-27","value":"36.8","unit":"C"},{"visit":"WEEK 1","visitnum":"4.0","dtc":"2024-03-04","value":"36.7","unit":"C"},{"visit":"WEEK 3","visitnum":"5.0","dtc":"2024-03-17","value":"36.5","unit":"C"},{"visit":"WEEK 6","visitnum":"6.0","dtc":"2024-04-09","value":"36.4","unit":"C"},{"visit":"WEEK 12","visitnum":"7.0","dtc":"2024-05-19","value":"36.3","unit":"C"}],"WEIGHT":[{"visit":"SCREENING","visitnum":"1.0","dtc":"2024-01-18","value":"53.5","unit":"kg"},{"visit":"DOSING DAY","visitnum":"2.0","dtc":"2024-02-27","value":"50.6","unit":"kg"},{"visit":"WEEK 1","visitnum":"4.0","dtc":"2024-03-04","value":"51.2","unit":"kg"},{"visit":"WEEK 3","visitnum":"5.0","dtc":"2024-03-17","value":"51.3","unit":"kg"},{"visit":"WEEK 6","visitnum":"6.0","dtc":"2024-04-09","value":"55.1","unit":"kg"},{"visit":"WEEK 12","visitnum":"7.0","dtc":"2024-05-19","value":"56.8","unit":"kg"}]},"results":[{"seq":"1","testcd":"BMI","test":"BMI","cat":null,"orres":"27.1","orresu":"kg/m2","stresc":"27.1","stresn":"27.1","stresu":"kg/m2","stnrlo":null,"stnrhi":null,"nrind":null,"pos":null,"loc":null,"dtc":"2024-01-18","dy":"-40","visit":"SCREENING","visitnum":"1.0","epoch":"SCREENING"},{"seq":"2","testcd":"DIABP","test":"Diastolic Blood Pressure","cat":null,"orres":"79.9","orresu":"mmHg","stresc":"79.9","stresn":"79.9","stresu":"mmHg","stnrlo":null,"stnrhi":null,"nrind":null,"pos":null,"loc":null,"dtc":"2024-01-18","dy":"-40","visit":"SCREENING","visitnum":"1.0","epoch":"SCREENING"},{"seq":"3","testcd":"HEIGHT","test":"Height","cat":null,"orres":"140.5","orresu":"cm","stresc":"140.5","stresn":"140.5","stresu":"cm","stnrlo":null,"stnrhi":null,"nrind":null,"pos":null,"loc":null,"dtc":"2024-01-18","dy":"-40","visit":"SCREENING","visitnum":"1.0","epoch":"SCREENING"},{"seq":"4","testcd":"PULSE","test":"Pulse Rate","cat":null,"orres":"65.1","orresu":"beats/min","stresc":"65.1","stresn":"65.1","stresu":"beats/min","stnrlo":null,"stnrhi":null,"nrind":null,"pos":null,"loc":null,"dtc":"2024-01-18","dy":"-40","visit":"SCREENING","visitnum":"1.0","epoch":"SCREENING"},{"seq":"5","testcd":"RESP","test":"Respiratory Rate","cat":null,"orres":"15.1","orresu":"breaths/min","stresc":"15.1","stresn":"15.1","stresu":"breaths/min","stnrlo":null,"stnrhi":null,"nrind":null,"pos":null,"loc":null,"dtc":"2024-01-18","dy":"-40","visit":"SCREENING","visitnum":"1.0","epoch":"SCREENING"},{"seq":"6","testcd":"SYSBP","test":"Systolic Blood Pressure","cat":null,"orres":"104.0","orresu":"mmHg","stresc":"104.0","stresn":"104.0","stresu":"mmHg","stnrlo":null,"stnrhi":null,"nrind":null,"pos":null,"loc":null,"dtc":"2024-01-18","dy":"-40","visit":"SCREENING","visitnum":"1.0","epoch":"SCREENING"},{"seq":"7","testcd":"TEMP","test":"Temperature","cat":null,"orres":"36.6","orresu":"C","stresc":"36.6","stresn":"36.6","stresu":"C","stnrlo":null,"stnrhi":null,"nrind":null,"pos":null,"loc":null,"dtc":"2024-01-18","dy":"-40","visit":"SCREENING","visitnum":"1.0","epoch":"SCREENING"},{"seq":"8","testcd":"WEIGHT","test":"Weight","cat":null,"orres":"53.5","orresu":"kg","stresc":"53.5","stresn":"53.5","stresu":"kg","stnrlo":null,"stnrhi":null,"nrind":null,"pos":null,"loc":null,"dtc":"2024-01-18","dy":"-40","visit":"SCREENING","visitnum":"1.0","epoch":"SCREENING"},{"seq":"9","testcd":"BMI","test":"BMI","cat":null,"orres":"25.6","orresu":"kg/m2","stresc":"25.6","stresn":"25.6","stresu":"kg/m2","stnrlo":null,"stnrhi":null,"nrind":null,"pos":null,"loc":null,"dtc":"2024-02-27","dy":"1","visit":"DOSING DAY","visitnum":"2.0","epoch":"TREATMENT"},{"seq":"10","testcd":"DIABP","test":"Diastolic Blood Pressure","cat":null,"orres":"79.8","orresu":"mmHg","stresc":"79.8","stresn":"79.8","stresu":"mmHg","stnrlo":null,"stnrhi":null,"nrind":null,"pos":null,"loc":null,"dtc":"2024-02-27","dy":"1","visit":"DOSING DAY","visitnum":"2.0","epoch":"TREATMENT"},{"seq":"11","testcd":"HEIGHT","test":"Height","cat":null,"orres":"140.5","orresu":"cm","stresc":"140.5","stresn":"140.5","stresu":"cm","stnrlo":null,"stnrhi":null,"nrind":null,"pos":null,"loc":null,"dtc":"2024-02-27","dy":"1","visit":"DOSING DAY","visitnum":"2.0","epoch":"TREATMENT"},{"seq":"12","testcd":"PULSE","test":"Pulse Rate","cat":null,"orres":"62.7","orresu":"beats/min","stresc":"62.7","stresn":"62.7","stresu":"beats/min","stnrlo":null,"stnrhi":null,"nrind":null,"pos":null,"loc":null,"dtc":"2024-02-27","dy":"1","visit":"DOSING DAY","visitnum":"2.0","epoch":"TREATMENT"},{"seq":"13","testcd":"RESP","test":"Respiratory Rate","cat":null,"orres":"13.8","orresu":"breaths/min","stresc":"13.8","stresn":"13.8","stresu":"breaths/min","stnrlo":null,"stnrhi":null,"nrind":null,"pos":null,"loc":null,"dtc":"2024-02-27","dy":"1","visit":"DOSING DAY","visitnum":"2.0","epoch":"TREATMENT"},{"seq":"14","testcd":"SYSBP","test":"Systolic Blood Pressure","cat":null,"orres":"106.1","orresu":"mmHg","stresc":"106.1","stresn":"106.1","stresu":"mmHg","stnrlo":null,"stnrhi":null,"nrind":null,"pos":null,"loc":null,"dtc":"2024-02-27","dy":"1","visit":"DOSING DAY","visitnum":"2.0","epoch":"TREATMENT"},{"seq":"15","testcd":"TEMP","test":"Temperature","cat":null,"orres":"36.8","orresu":"C","stresc":"36.8","stresn":"36.8","stresu":"C","stnrlo":null,"stnrhi":null,"nrind":null,"pos":null,"loc":null,"dtc":"2024-02-27","dy":"1","visit":"DOSING DAY","visitnum":"2.0","epoch":"TREATMENT"},{"seq":"16","testcd":"WEIGHT","test":"Weight","cat":null,"orres":"50.6","orresu":"kg","stresc":"50.6","stresn":"50.6","stresu":"kg","stnrlo":null,"stnrhi":null,"nrind":null,"pos":null,"loc":null,"dtc":"2024-02-27","dy":"1","visit":"DOSING DAY","visitnum":"2.0","epoch":"TREATMENT"},{"seq":"17","testcd":"BMI","test":"BMI","cat":null,"orres":"26.0","orresu":"kg/m2","stresc":"26.0","stresn":"26.0","stresu":"kg/m2","stnrlo":null,"stnrhi":null,"nrind":null,"pos":null,"loc":null,"dtc":"2024-03-04","dy":"7","visit":"WEEK 1","visitnum":"4.0","epoch":"FOLLOW-UP"},{"seq":"18","testcd":"DIABP","test":"Diastolic Blood Pressure","cat":null,"orres":"79.4","orresu":"mmHg","stresc":"79.4","stresn":"79.4","stresu":"mmHg","stnrlo":null,"stnrhi":null,"nrind":null,"pos":null,"loc":null,"dtc":"2024-03-04","dy":"7","visit":"WEEK 1","visitnum":"4.0","epoch":"FOLLOW-UP"},{"seq":"19","testcd":"HEIGHT","test":"Height","cat":null,"orres":"140.4","orresu":"cm","stresc":"140.4","stresn":"140.4","stresu":"cm","stnrlo":null,"stnrhi":null,"nrind":null,"pos":null,"loc":null,"dtc":"2024-03-04","dy":"7","visit":"WEEK 1","visitnum":"4.0","epoch":"FOLLOW-UP"},{"seq":"20","testcd":"PULSE","test":"Pulse Rate","cat":null,"orres":"58.3","orresu":"beats/min","stresc":"58.3","stresn":"58.3","stresu":"beats/min","stnrlo":null,"stnrhi":null,"nrind":null,"pos":null,"loc":null,"dtc":"2024-03-04","dy":"7","visit":"WEEK 1","visitnum":"4.0","epoch":"FOLLOW-UP"},{"seq":"21","testcd":"RESP","test":"Respiratory Rate","cat":null,"orres":"15.8","orresu":"breaths/min","stresc":"15.8","stresn":"15.8","stresu":"breaths/min","stnrlo":null,"stnrhi":null,"nrind":null,"pos":null,"loc":null,"dtc":"2024-03-04","dy":"7","visit":"WEEK 1","visitnum":"4.0","epoch":"FOLLOW-UP"},{"seq":"22","testcd":"SYSBP","test":"Systolic Blood Pressure","cat":null,"orres":"103.2","orresu":"mmHg","stresc":"103.2","stresn":"103.2","stresu":"mmHg","stnrlo":null,"stnrhi":null,"nrind":null,"pos":null,"loc":null,"dtc":"2024-03-04","dy":"7","visit":"WEEK 1","visitnum":"4.0","epoch":"FOLLOW-UP"},{"seq":"23","testcd":"TEMP","test":"Temperature","cat":null,"orres":"36.7","orresu":"C","stresc":"36.7","stresn":"36.7","stresu":"C","stnrlo":null,"stnrhi":null,"nrind":null,"pos":null,"loc":null,"dtc":"2024-03-04","dy":"7","visit":"WEEK 1","visitnum":"4.0","epoch":"FOLLOW-UP"},{"seq":"24","testcd":"WEIGHT","test":"Weight","cat":null,"orres":"51.2","orresu":"kg","stresc":"51.2","stresn":"51.2","stresu":"kg","stnrlo":null,"stnrhi":null,"nrind":null,"pos":null,"loc":null,"dtc":"2024-03-04","dy":"7","visit":"WEEK 1","visitnum":"4.0","epoch":"FOLLOW-UP"},{"seq":"25","testcd":"BMI","test":"BMI","cat":null,"orres":"26.0","orresu":"kg/m2","stresc":"26.0","stresn":"26.0","stresu":"kg/m2","stnrlo":null,"stnrhi":null,"nrind":null,"pos":null,"loc":null,"dtc":"2024-03-17","dy":"20","visit":"WEEK 3","visitnum":"5.0","epoch":"FOLLOW-UP"},{"seq":"26","testcd":"DIABP","test":"Diastolic Blood Pressure","cat":null,"orres":"77.8","orresu":"mmHg","stresc":"77.8","stresn":"77.8","stresu":"mmHg","stnrlo":null,"stnrhi":null,"nrind":null,"pos":null,"loc":null,"dtc":"2024-03-17","dy":"20","visit":"WEEK 3","visitnum":"5.0","epoch":"FOLLOW-UP"},{"seq":"27","testcd":"HEIGHT","test":"Height","cat":null,"orres":"140.4","orresu":"cm","stresc":"140.4","stresn":"140.4","stresu":"cm","stnrlo":null,"stnrhi":null,"nrind":null,"pos":null,"loc":null,"dtc":"2024-03-17","dy":"20","visit":"WEEK 3","visitnum":"5.0","epoch":"FOLLOW-UP"},{"seq":"28","testcd":"PULSE","test":"Pulse Rate","cat":null,"orres":"53.7","orresu":"beats/min","stresc":"53.7","stresn":"53.7","stresu":"beats/min","stnrlo":null,"stnrhi":null,"nrind":null,"pos":null,"loc":null,"dtc":"2024-03-17","dy":"20","visit":"WEEK 3","visitnum":"5.0","epoch":"FOLLOW-UP"},{"seq":"29","testcd":"RESP","test":"Respiratory Rate","cat":null,"orres":"15.4","orresu":"breaths/min","stresc":"15.4","stresn":"15.4","stresu":"breaths/min","stnrlo":null,"stnrhi":null,"nrind":null,"pos":null,"loc":null,"dtc":"2024-03-17","dy":"20","visit":"WEEK 3","visitnum":"5.0","epoch":"FOLLOW-UP"},{"seq":"30","testcd":"SYSBP","test":"Systolic Blood Pressure","cat":null,"orres":"100.3","orresu":"mmHg","stresc":"100.3","stresn":"100.3","stresu":"mmHg","stnrlo":null,"stnrhi":null,"nrind":null,"pos":null,"loc":null,"dtc":"2024-03-17","dy":"20","visit":"WEEK 3","visitnum":"5.0","epoch":"FOLLOW-UP"},{"seq":"31","testcd":"TEMP","test":"Temperature","cat":null,"orres":"36.5","orresu":"C","stresc":"36.5","stresn":"36.5","stresu":"C","stnrlo":null,"stnrhi":null,"nrind":null,"pos":null,"loc":null,"dtc":"2024-03-17","dy":"20","visit":"WEEK 3","visitnum":"5.0","epoch":"FOLLOW-UP"},{"seq":"32","testcd":"WEIGHT","test":"Weight","cat":null,"orres":"51.3","orresu":"kg","stresc":"51.3","stresn":"51.3","stresu":"kg","stnrlo":null,"stnrhi":null,"nrind":null,"pos":null,"loc":null,"dtc":"2024-03-17","dy":"20","visit":"WEEK 3","visitnum":"5.0","epoch":"FOLLOW-UP"},{"seq":"33","testcd":"DIABP","test":"Diastolic Blood Pressure","cat":null,"orres":"77.8","orresu":"mmHg","stresc":"77.8","stresn":"77.8","stresu":"mmHg","stnrlo":null,"stnrhi":null,"nrind":null,"pos":null,"loc":null,"dtc":"2024-04-09","dy":"43","visit":"WEEK 6","visitnum":"6.0","epoch":"FOLLOW-UP"},{"seq":"34","testcd":"HEIGHT","test":"Height","cat":null,"orres":null,"orresu":null,"stresc":null,"stresn":null,"stresu":null,"stnrlo":null,"stnrhi":null,"nrind":null,"pos":null,"loc":null,"dtc":"2024-04-09","dy":"43","visit":"WEEK 6","visitnum":"6.0","epoch":"FOLLOW-UP"},{"seq":"35","testcd":"PULSE","test":"Pulse Rate","cat":null,"orres":"57.3","orresu":"beats/min","stresc":"57.3","stresn":"57.3","stresu":"beats/min","stnrlo":null,"stnrhi":null,"nrind":null,"pos":null,"loc":null,"dtc":"2024-04-09","dy":"43","visit":"WEEK 6","visitnum":"6.0","epoch":"FOLLOW-UP"},{"seq":"36","testcd":"RESP","test":"Respiratory Rate","cat":null,"orres":"14.1","orresu":"breaths/min","stresc":"14.1","stresn":"14.1","stresu":"breaths/min","stnrlo":null,"stnrhi":null,"nrind":null,"pos":null,"loc":null,"dtc":"2024-04-09","dy":"43","visit":"WEEK 6","visitnum":"6.0","epoch":"FOLLOW-UP"},{"seq":"37","testcd":"SYSBP","test":"Systolic Blood Pressure","cat":null,"orres":"102.5","orresu":"mmHg","stresc":"102.5","stresn":"102.5","stresu":"mmHg","stnrlo":null,"stnrhi":null,"nrind":null,"pos":null,"loc":null,"dtc":"2024-04-09","dy":"43","visit":"WEEK 6","visitnum":"6.0","epoch":"FOLLOW-UP"},{"seq":"38","testcd":"TEMP","test":"Temperature","cat":null,"orres":"36.4","orresu":"C","stresc":"36.4","stresn":"36.4","stresu":"C","stnrlo":null,"stnrhi":null,"nrind":null,"pos":null,"loc":null,"dtc":"2024-04-09","dy":"43","visit":"WEEK 6","visitnum":"6.0","epoch":"FOLLOW-UP"},{"seq":"39","testcd":"WEIGHT","test":"Weight","cat":null,"orres":"55.1","orresu":"kg","stresc":"55.1","stresn":"55.1","stresu":"kg","stnrlo":null,"stnrhi":null,"nrind":null,"pos":null,"loc":null,"dtc":"2024-04-09","dy":"43","visit":"WEEK 6","visitnum":"6.0","epoch":"FOLLOW-UP"},{"seq":"40","testcd":"BMI","test":"BMI","cat":null,"orres":"28.7","orresu":"kg/m2","stresc":"28.7","stresn":"28.7","stresu":"kg/m2","stnrlo":null,"stnrhi":null,"nrind":null,"pos":null,"loc":null,"dtc":"2024-05-19","dy":"83","visit":"WEEK 12","visitnum":"7.0","epoch":"FOLLOW-UP"},{"seq":"41","testcd":"DIABP","test":"Diastolic Blood Pressure","cat":null,"orres":"78.3","orresu":"mmHg","stresc":"78.3","stresn":"78.3","stresu":"mmHg","stnrlo":null,"stnrhi":null,"nrind":null,"pos":null,"loc":null,"dtc":"2024-05-19","dy":"83","visit":"WEEK 12","visitnum":"7.0","epoch":"FOLLOW-UP"},{"seq":"42","testcd":"HEIGHT","test":"Height","cat":null,"orres":"140.8","orresu":"cm","stresc":"140.8","stresn":"140.8","stresu":"cm","stnrlo":null,"stnrhi":null,"nrind":null,"pos":null,"loc":null,"dtc":"2024-05-19","dy":"83","visit":"WEEK 12","visitnum":"7.0","epoch":"FOLLOW-UP"},{"seq":"43","testcd":"PULSE","test":"Pulse Rate","cat":null,"orres":"59.3","orresu":"beats/min","stresc":"59.3","stresn":"59.3","stresu":"beats/min","stnrlo":null,"stnrhi":null,"nrind":null,"pos":null,"loc":null,"dtc":"2024-05-19","dy":"83","visit":"WEEK 12","visitnum":"7.0","epoch":"FOLLOW-UP"},{"seq":"44","testcd":"RESP","test":"Respiratory Rate","cat":null,"orres":"15.0","orresu":"breaths/min","stresc":"15.0","stresn":"15.0","stresu":"breaths/min","stnrlo":null,"stnrhi":null,"nrind":null,"pos":null,"loc":null,"dtc":"2024-05-19","dy":"83","visit":"WEEK 12","visitnum":"7.0","epoch":"FOLLOW-UP"},{"seq":"45","testcd":"SYSBP","test":"Systolic Blood Pressure","cat":null,"orres":"100.0","orresu":"mmHg","stresc":"100.0","stresn":"100.0","stresu":"mmHg","stnrlo":null,"stnrhi":null,"nrind":null,"pos":null,"loc":null,"dtc":"2024-05-19","dy":"83","visit":"WEEK 12","visitnum":"7.0","epoch":"FOLLOW-UP"},{"seq":"46","testcd":"TEMP","test":"Temperature","cat":null,"orres":"36.3","orresu":"C","stresc":"36.3","stresn":"36.3","stresu":"C","stnrlo":null,"stnrhi":null,"nrind":null,"pos":null,"loc":null,"dtc":"2024-05-19","dy":"83","visit":"WEEK 12","visitnum":"7.0","epoch":"FOLLOW-UP"},{"seq":"47","testcd":"WEIGHT","test":"Weight","cat":null,"orres":"56.8","orresu":"kg","stresc":"56.8","stresn":"56.8","stresu":"kg","stnrlo":null,"stnrhi":null,"nrind":null,"pos":null,"loc":null,"dtc":"2024-05-19","dy":"83","visit":"WEEK 12","visitnum":"7.0","epoch":"FOLLOW-UP"}]},"section_10_questionnaires_and_scores":{"questionnaires":[{"seq":"1","testcd":"MADRS01","test":"Apparent Sadness","cat":"MADRS","scat":null,"orres":"0","stresc":"0","stresn":"0.0","dtc":"2024-02-17","dy":"-10","visit":"SCREENING","visitnum":"1.0"},{"seq":"2","testcd":"MADRS02","test":"Reported Sadness","cat":"MADRS","scat":null,"orres":"3","stresc":"3","stresn":"3.0","dtc":"2024-02-17","dy":"-10","visit":"SCREENING","visitnum":"1.0"},{"seq":"3","testcd":"MADRS03","test":"Inner Tension","cat":"MADRS","scat":null,"orres":"3","stresc":"3","stresn":"3.0","dtc":"2024-02-17","dy":"-10","visit":"SCREENING","visitnum":"1.0"},{"seq":"4","testcd":"MADRS04","test":"Reduced Sleep","cat":"MADRS","scat":null,"orres":"0","stresc":"0","stresn":"0.0","dtc":"2024-02-17","dy":"-10","visit":"SCREENING","visitnum":"1.0"},{"seq":"5","testcd":"MADRS05","test":"Reduced Appetite","cat":"MADRS","scat":null,"orres":"3","stresc":"3","stresn":"3.0","dtc":"2024-02-17","dy":"-10","visit":"SCREENING","visitnum":"1.0"},{"seq":"6","testcd":"MADRS06","test":"Concentration Difficulties","cat":"MADRS","scat":null,"orres":"3","stresc":"3","stresn":"3.0","dtc":"2024-02-17","dy":"-10","visit":"SCREENING","visitnum":"1.0"},{"seq":"7","testcd":"MADRS07","test":"Lassitude","cat":"MADRS","scat":null,"orres":"3","stresc":"3","stresn":"3.0","dtc":"2024-02-17","dy":"-10","visit":"SCREENING","visitnum":"1.0"},{"seq":"8","testcd":"MADRS08","test":"Inability to Feel","cat":"MADRS","scat":null,"orres":"3","stresc":"3","stresn":"3.0","dtc":"2024-02-17","dy":"-10","visit":"SCREENING","visitnum":"1.0"},{"seq":"9","testcd":"MADRS09","test":"Pessimistic Thoughts","cat":"MADRS","scat":null,"orres":"3","stresc":"3","stresn":"3.0","dtc":"2024-02-17","dy":"-10","visit":"SCREENING","visitnum":"1.0"},{"seq":"10","testcd":"MADRS10","test":"Suicidal Thoughts","cat":"MADRS","scat":null,"orres":"2","stresc":"2","stresn":"2.0","dtc":"2024-02-17","dy":"-10","visit":"SCREENING","visitnum":"1.0"},{"seq":"11","testcd":"MADRSTOT","test":"MADRS Total Score","cat":"MADRS","scat":"TOTAL","orres":"23.0","stresc":"23.0","stresn":"23.0","dtc":"2024-02-17","dy":"-10","visit":"SCREENING","visitnum":"1.0"},{"seq":"12","testcd":"MADRS01","test":"Apparent Sadness","cat":"MADRS","scat":null,"orres":"1","stresc":"1","stresn":"1.0","dtc":"2024-02-27","dy":"1","visit":"DOSING DAY","visitnum":"2.0"},{"seq":"13","testcd":"MADRS02","test":"Reported Sadness","cat":"MADRS","scat":null,"orres":"2","stresc":"2","stresn":"2.0","dtc":"2024-02-27","dy":"1","visit":"DOSING DAY","visitnum":"2.0"},{"seq":"14","testcd":"MADRS03","test":"Inner Tension","cat":"MADRS","scat":null,"orres":"4","stresc":"4","stresn":"4.0","dtc":"2024-02-27","dy":"1","visit":"DOSING DAY","visitnum":"2.0"},{"seq":"15","testcd":"MADRS04","test":"Reduced Sleep","cat":"MADRS","scat":null,"orres":"4","stresc":"4","stresn":"4.0","dtc":"2024-02-27","dy":"1","visit":"DOSING DAY","visitnum":"2.0"},{"seq":"16","testcd":"MADRS05","test":"Reduced Appetite","cat":"MADRS","scat":null,"orres":"2","stresc":"2","stresn":"2.0","dtc":"2024-02-27","dy":"1","visit":"DOSING DAY","visitnum":"2.0"},{"seq":"17","testcd":"MADRS06","test":"Concentration Difficulties","cat":"MADRS","scat":null,"orres":"1","stresc":"1","stresn":"1.0","dtc":"2024-02-27","dy":"1","visit":"DOSING DAY","visitnum":"2.0"},{"seq":"18","testcd":"MADRS07","test":"Lassitude","cat":"MADRS","scat":null,"orres":"3","stresc":"3","stresn":"3.0","dtc":"2024-02-27","dy":"1","visit":"DOSING DAY","visitnum":"2.0"},{"seq":"19","testcd":"MADRS08","test":"Inability to Feel","cat":"MADRS","scat":null,"orres":"2","stresc":"2","stresn":"2.0","dtc":"2024-02-27","dy":"1","visit":"DOSING DAY","visitnum":"2.0"},{"seq":"20","testcd":"MADRS09","test":"Pessimistic Thoughts","cat":"MADRS","scat":null,"orres":"2","stresc":"2","stresn":"2.0","dtc":"2024-02-27","dy":"1","visit":"DOSING DAY","visitnum":"2.0"},{"seq":"21","testcd":"MADRS10","test":"Suicidal Thoughts","cat":"MADRS","scat":null,"orres":"3","stresc":"3","stresn":"3.0","dtc":"2024-02-27","dy":"1","visit":"DOSING DAY","visitnum":"2.0"},{"seq":"22","testcd":"MADRSTOT","test":"MADRS Total Score","cat":"MADRS","scat":"TOTAL","orres":"24.0","stresc":"24.0","stresn":"24.0","dtc":"2024-02-27","dy":"1","visit":"DOSING DAY","visitnum":"2.0"}],"findings_about":[]},"section_11_protocol_deviations":{"deviations":[{"seq":"1","term":"Missed PSILOCYBIN dose on 2024-03-12","decod":"MISSED DOSE","cat":"MINOR","scat":"DOSING","start_dtc":"2024-03-12","end_dtc":null,"visit":null},{"seq":"2","term":"Missed PSILOCYBIN dose on 2024-03-16","decod":"MISSED DOSE","cat":"MINOR","scat":"DOSING","start_dtc":"2024-03-16","end_dtc":null,"visit":null},{"seq":"3","term":"Visit WEEK 3 occurred 2 days early (Day 20 vs planned Day 22)","decod":"VISIT OCCURRED OUTSIDE VISIT WINDOW","cat":"MINOR","scat":"VISIT WINDOW","start_dtc":"2024-03-17","end_dtc":null,"visit":null},{"seq":"4","term":"Missed PSILOCYBIN dose on 2024-03-23","decod":"MISSED DOSE","cat":"MINOR","scat":"DOSING","start_dtc":"2024-03-23","end_dtc":null,"visit":null},{"seq":"5","term":"Missed PSILOCYBIN dose on 2024-03-26","decod":"MISSED DOSE","cat":"MINOR","scat":"DOSING","start_dtc":"2024-03-26","end_dtc":null,"visit":null},{"seq":"6","term":"Missed PSILOCYBIN dose on 2024-03-27","decod":"MISSED DOSE","cat":"MINOR","scat":"DOSING","start_dtc":"2024-03-27","end_dtc":null,"visit":null}],"total":6},"section_12_disposition":{"completion_status":"COMPLETED","disposition_records":[{"seq":"1","term":"INFORMED CONSENT OBTAINED","decod":"INFORMED CONSENT OBTAINED","cat":"PROTOCOL MILESTONE","scat":null,"dtc":"2024-02-17","dy":null,"visit":null,"epoch":"SCREENING"},{"seq":"2","term":"RANDOMIZED","decod":"RANDOMIZED","cat":"PROTOCOL MILESTONE","scat":null,"dtc":"2024-02-27","dy":null,"visit":null,"epoch":"TREATMENT"},{"seq":"3","term":"COMPLETED","decod":"COMPLETED","cat":"DISPOSITION EVENT","scat":null,"dtc":"2024-06-19","dy":null,"visit":null,"epoch":"FOLLOW-UP"}],"death":null},"section_13_hospitalizations":{"items":[{"seq":"1","term":"Dry mouth","decod":"Dry mouth","cat":"HOSPITALIZATION","start_dtc":"2024-04-28","end_dtc":"2024-05-13","epoch":"TREATMENT"}],"total":1},"section_14_substance_use":{"items":[{"seq":"1","substance":"ALCOHOL","decod":"ALCOHOL","cat":"ALCOHOL","scat":null,"usage":"N","dose":null,"dosu":null,"freq":null,"start_dtc":null,"end_dtc":null},{"seq":"2","substance":"COFFEE","decod":"COFFEE","cat":"CAFFEINE","scat":null,"usage":"N","dose":null,"dosu":null,"freq":null,"start_dtc":null,"end_dtc":null},{"seq":"3","substance":"CIGARETTES","decod":"CIGARETTES","cat":"TOBACCO","scat":"CIGARETTES","usage":"N","dose":null,"dosu":null,"freq":null,"start_dtc":null,"end_dtc":null}],"total":3},"section_15_subject_status":{"items":[{"seq":"1","testcd":"SURVSTAT","test":"Survival Status","orres":"ALIVE","stresc":"ALIVE","dtc":"2024-06-19","visit":"END OF STUDY","epoch":"FOLLOW-UP"}],"total":1}}