{"subject_id":"TERPSIS-MDD-201-SITE001-0040","study_id":"TERPSIS-MDD-201","generated_at":"2026-06-16T11:15:08.656312+00:00","sdtmig_version":"3.4","flags":{"has_serious_ae":false,"has_fatal_ae":false,"has_protocol_deviation":true,"n_protocol_deviations":5,"n_adverse_events":3,"n_concomitant_meds":3,"max_ae_severity":"MODERATE","screen_failure":false,"discontinued_early":false,"discontinuation_reason":null,"death":false,"exposure_days":39},"timeline":[{"dtc":"2014-03-27","dy":"-3685","event":"CM START: ESOMEPRAZOLE","domain":"CM","category":"concomitant_med"},{"dtc":"2024-03-06","dy":"-53","event":"VISIT: SCREENING","domain":"SV","category":"visit"},{"dtc":"2024-03-24","dy":"-35","event":"INFORMED CONSENT OBTAINED","domain":"DS","category":"milestone"},{"dtc":"2024-04-28","dy":"1","event":"RANDOMIZED","domain":"DS","category":"milestone"},{"dtc":"2024-04-28","dy":"1","event":"FIRST DOSE: PSILOCYBIN","domain":"EX","category":"exposure"},{"dtc":"2024-04-28","dy":"1","event":"VISIT: DOSING DAY","domain":"SV","category":"visit"},{"dtc":"2024-04-29","dy":"2","event":"DEVIATION: MISSED DOSE","domain":"DV","category":"deviation"},{"dtc":"2024-04-29","dy":"2","event":"VISIT: DAY 2","domain":"SV","category":"visit"},{"dtc":"2024-05-03","dy":"6","event":"AE: Anxiety (MILD)","domain":"AE","category":"adverse_event"},{"dtc":"2024-05-03","dy":"6","event":"AE: Somnolence (MILD)","domain":"AE","category":"adverse_event"},{"dtc":"2024-05-05","dy":"8","event":"DEVIATION: MISSED DOSE","domain":"DV","category":"deviation"},{"dtc":"2024-05-05","dy":"8","event":"VISIT: WEEK 1","domain":"SV","category":"visit"},{"dtc":"2024-05-09","dy":"12","event":"DEVIATION: MISSED DOSE","domain":"DV","category":"deviation"},{"dtc":"2024-05-20","dy":"23","event":"DEVIATION: MISSED DOSE","domain":"DV","category":"deviation"},{"dtc":"2024-05-22","dy":"25","event":"VISIT: WEEK 3","domain":"SV","category":"visit"},{"dtc":"2024-05-27","dy":"30","event":"AE: Pneumonia (MODERATE)","domain":"AE","category":"adverse_event"},{"dtc":"2024-05-27","dy":"30","event":"DEVIATION: MISSED DOSE","domain":"DV","category":"deviation"},{"dtc":"2024-05-27","dy":"30","event":"CM START: AMOXICILLIN/CLAVULANATE","domain":"CM","category":"concomitant_med"},{"dtc":"2024-06-12","dy":"46","event":"VISIT: WEEK 6","domain":"SV","category":"visit"},{"dtc":"2024-06-27","dy":"61","event":"CM START: IBUPROFEN","domain":"CM","category":"concomitant_med"},{"dtc":"2024-07-15","dy":"79","event":"VISIT: WEEK 12","domain":"SV","category":"visit"},{"dtc":"2024-08-19","dy":"114","event":"COMPLETED","domain":"DS","category":"milestone"}],"section_1_demographics":{"usubjid":"TERPSIS-MDD-201-SITE001-0040","subjid":"0040","siteid":"SITE001","age":"28","ageu":"YEARS","sex":"F","race":"WHITE","ethnicity":"NOT HISPANIC OR LATINO","country":"USA","arm":"Psilocybin 10mg","armcd":"PSI10","actarm":"Psilocybin 10mg","actarmcd":"PSI10","randomization_date":null,"informed_consent_date":"2024-03-24","reference_start_date":"2024-04-28","reference_end_date":"2024-08-19","screen_failure":false,"death_flag":null,"death_date":null,"subject_characteristics":[{"testcd":"ALCUSE","test":"Alcohol Use","orres":"CURRENT DRINKER","stresc":"CURRENT DRINKER","visit":null,"dtc":"2024-03-24"},{"testcd":"BMI","test":"Body Mass Index","orres":"38.4","stresc":"38.4","visit":null,"dtc":"2024-03-24"},{"testcd":"DURDIS","test":"Duration of Disease","orres":"121 months","stresc":"121","visit":null,"dtc":"2024-03-24"},{"testcd":"TOBUSE","test":"Tobacco Use","orres":"NEVER SMOKED","stresc":"NEVER SMOKED","visit":null,"dtc":"2024-03-24"}]},"section_2_medical_history":{"items":[{"seq":"1","term":"DEPRESSION","decod":"DEPRESSION","cat":"PSYCHIATRIC","scat":null,"presp":null,"occur":null,"status":null,"onset_dtc":"2018-03-26","end_dtc":"2019-05-06","visit":null},{"seq":"2","term":"GASTROESOPHAGEAL REFLUX DISEASE","decod":"GASTROESOPHAGEAL REFLUX DISEASE","cat":"GASTROINTESTINAL","scat":null,"presp":null,"occur":null,"status":null,"onset_dtc":"2014-03-27","end_dtc":null,"visit":null},{"seq":"3","term":"HYPERTENSION","decod":"HYPERTENSION","cat":"CARDIOVASCULAR","scat":null,"presp":null,"occur":null,"status":null,"onset_dtc":"2019-03-26","end_dtc":"2020-02-03","visit":null}]},"section_3_inclusion_exclusion":{"criteria":[]},"section_4_trial_participation":{"visits":[{"visitnum":"1.0","visit":"SCREENING","start_dtc":"2024-03-06","end_dtc":"2024-03-06","updes":null},{"visitnum":"2.0","visit":"DOSING DAY","start_dtc":"2024-04-28","end_dtc":"2024-04-28","updes":null},{"visitnum":"3.0","visit":"DAY 2","start_dtc":"2024-04-29","end_dtc":"2024-04-29","updes":null},{"visitnum":"4.0","visit":"WEEK 1","start_dtc":"2024-05-05","end_dtc":"2024-05-05","updes":null},{"visitnum":"5.0","visit":"WEEK 3","start_dtc":"2024-05-22","end_dtc":"2024-05-22","updes":null},{"visitnum":"6.0","visit":"WEEK 6","start_dtc":"2024-06-12","end_dtc":"2024-06-12","updes":null},{"visitnum":"7.0","visit":"WEEK 12","start_dtc":"2024-07-15","end_dtc":"2024-07-15","updes":null}],"epochs":[{"seq":"1","etcd":"SCRN","element":"Screening","start_dtc":"2024-03-31","end_dtc":"2024-04-28","updes":null},{"seq":"2","etcd":"TRT","element":"Treatment/Observation","start_dtc":"2024-04-28","end_dtc":"2024-07-22","updes":null},{"seq":"3","etcd":"FU","element":"Follow-up","start_dtc":"2024-07-22","end_dtc":"2024-07-22","updes":null}],"visit_count":7},"section_5_concomitant_medications":{"medications":[{"seq":"1","trt":"ESOMEPRAZOLE","decod":"ESOMEPRAZOLE","cat":"PRIOR","dose":"40","doseu":null,"dosef":"QD","route":"ORAL","indication":"GASTROESOPHAGEAL REFLUX DISEASE","start_dtc":"2014-03-27","end_dtc":"2024-08-19","ongoing":null,"visit":null},{"seq":"2","trt":"AMOXICILLIN/CLAVULANATE","decod":"AMOXICILLIN/CLAVULANATE","cat":"CONCOMITANT","dose":"875","doseu":null,"dosef":"BID","route":"ORAL","indication":"PNEUMONIA","start_dtc":"2024-05-27","end_dtc":"2024-06-21","ongoing":null,"visit":null},{"seq":"3","trt":"IBUPROFEN","decod":"IBUPROFEN","cat":"CONCOMITANT","dose":null,"doseu":null,"dosef":"PRN","route":"ORAL","indication":null,"start_dtc":"2024-06-27","end_dtc":"2024-07-27","ongoing":null,"visit":null}]},"section_6_exposure":{"exposure_as_administered":[{"seq":"1","trt":"PSILOCYBIN","dose":"10.0","doseu":null,"dosef":"ONCE","route":"ORAL","lot":null,"start_dtc":"2024-04-28","end_dtc":"2024-06-06","start_dy":"1","end_dy":"40","epoch":"TREATMENT","visit":null}],"exposure_as_collected":[{"seq":"1","trt":"PSILOCYBIN","dose":"10.0","doseu":null,"dosef":"ONCE","route":"ORAL","start_dtc":"2024-04-28","end_dtc":"2024-04-28","visit":"DOSING DAY"},{"seq":"2","trt":"PSILOCYBIN","dose":null,"doseu":null,"dosef":"ONCE","route":"ORAL","start_dtc":"2024-04-29","end_dtc":"2024-04-29","visit":"DOSING DAY"},{"seq":"3","trt":"PSILOCYBIN","dose":"10.0","doseu":null,"dosef":"ONCE","route":"ORAL","start_dtc":"2024-04-30","end_dtc":"2024-04-30","visit":"DOSING DAY"},{"seq":"4","trt":"PSILOCYBIN","dose":"10.0","doseu":null,"dosef":"ONCE","route":"ORAL","start_dtc":"2024-05-01","end_dtc":"2024-05-01","visit":"DOSING DAY"},{"seq":"5","trt":"PSILOCYBIN","dose":"10.0","doseu":null,"dosef":"ONCE","route":"ORAL","start_dtc":"2024-05-02","end_dtc":"2024-05-02","visit":"DAY 2"},{"seq":"6","trt":"PSILOCYBIN","dose":"10.0","doseu":null,"dosef":"ONCE","route":"ORAL","start_dtc":"2024-05-03","end_dtc":"2024-05-03","visit":"WEEK 1"},{"seq":"7","trt":"PSILOCYBIN","dose":"10.0","doseu":null,"dosef":"ONCE","route":"ORAL","start_dtc":"2024-05-04","end_dtc":"2024-05-04","visit":"WEEK 1"},{"seq":"8","trt":"PSILOCYBIN","dose":null,"doseu":null,"dosef":"ONCE","route":"ORAL","start_dtc":"2024-05-05","end_dtc":"2024-05-05","visit":"WEEK 1"},{"seq":"9","trt":"PSILOCYBIN","dose":"10.0","doseu":null,"dosef":"ONCE","route":"ORAL","start_dtc":"2024-05-06","end_dtc":"2024-05-06","visit":"WEEK 1"},{"seq":"10","trt":"PSILOCYBIN","dose":"10.0","doseu":null,"dosef":"ONCE","route":"ORAL","start_dtc":"2024-05-07","end_dtc":"2024-05-07","visit":"WEEK 1"},{"seq":"11","trt":"PSILOCYBIN","dose":"10.0","doseu":null,"dosef":"ONCE","route":"ORAL","start_dtc":"2024-05-08","end_dtc":"2024-05-08","visit":"WEEK 1"},{"seq":"12","trt":"PSILOCYBIN","dose":null,"doseu":null,"dosef":"ONCE","route":"ORAL","start_dtc":"2024-05-09","end_dtc":"2024-05-09","visit":null},{"seq":"13","trt":"PSILOCYBIN","dose":"10.0","doseu":null,"dosef":"ONCE","route":"ORAL","start_dtc":"2024-05-10","end_dtc":"2024-05-10","visit":null},{"seq":"14","trt":"PSILOCYBIN","dose":"10.0","doseu":null,"dosef":"ONCE","route":"ORAL","start_dtc":"2024-05-11","end_dtc":"2024-05-11","visit":null},{"seq":"15","trt":"PSILOCYBIN","dose":"10.0","doseu":null,"dosef":"ONCE","route":"ORAL","start_dtc":"2024-05-12","end_dtc":"2024-05-12","visit":null},{"seq":"16","trt":"PSILOCYBIN","dose":"10.0","doseu":null,"dosef":"ONCE","route":"ORAL","start_dtc":"2024-05-13","end_dtc":"2024-05-13","visit":null},{"seq":"17","trt":"PSILOCYBIN","dose":"10.0","doseu":null,"dosef":"ONCE","route":"ORAL","start_dtc":"2024-05-14","end_dtc":"2024-05-14","visit":null},{"seq":"18","trt":"PSILOCYBIN","dose":"10.0","doseu":null,"dosef":"ONCE","route":"ORAL","start_dtc":"2024-05-15","end_dtc":"2024-05-15","visit":null},{"seq":"19","trt":"PSILOCYBIN","dose":"10.0","doseu":null,"dosef":"ONCE","route":"ORAL","start_dtc":"2024-05-16","end_dtc":"2024-05-16","visit":"WEEK 3"},{"seq":"20","trt":"PSILOCYBIN","dose":"10.0","doseu":null,"dosef":"ONCE","route":"ORAL","start_dtc":"2024-05-17","end_dtc":"2024-05-17","visit":"WEEK 3"},{"seq":"21","trt":"PSILOCYBIN","dose":"10.0","doseu":null,"dosef":"ONCE","route":"ORAL","start_dtc":"2024-05-18","end_dtc":"2024-05-18","visit":"WEEK 3"},{"seq":"22","trt":"PSILOCYBIN","dose":"10.0","doseu":null,"dosef":"ONCE","route":"ORAL","start_dtc":"2024-05-19","end_dtc":"2024-05-19","visit":"WEEK 3"},{"seq":"23","trt":"PSILOCYBIN","dose":null,"doseu":null,"dosef":"ONCE","route":"ORAL","start_dtc":"2024-05-20","end_dtc":"2024-05-20","visit":"WEEK 3"},{"seq":"24","trt":"PSILOCYBIN","dose":"10.0","doseu":null,"dosef":"ONCE","route":"ORAL","start_dtc":"2024-05-21","end_dtc":"2024-05-21","visit":"WEEK 3"},{"seq":"25","trt":"PSILOCYBIN","dose":"10.0","doseu":null,"dosef":"ONCE","route":"ORAL","start_dtc":"2024-05-22","end_dtc":"2024-05-22","visit":"WEEK 3"},{"seq":"26","trt":"PSILOCYBIN","dose":"10.0","doseu":null,"dosef":"ONCE","route":"ORAL","start_dtc":"2024-05-23","end_dtc":"2024-05-23","visit":null},{"seq":"27","trt":"PSILOCYBIN","dose":"10.0","doseu":null,"dosef":"ONCE","route":"ORAL","start_dtc":"2024-05-24","end_dtc":"2024-05-24","visit":null},{"seq":"28","trt":"PSILOCYBIN","dose":"10.0","doseu":null,"dosef":"ONCE","route":"ORAL","start_dtc":"2024-05-25","end_dtc":"2024-05-25","visit":null},{"seq":"29","trt":"PSILOCYBIN","dose":"10.0","doseu":null,"dosef":"ONCE","route":"ORAL","start_dtc":"2024-05-26","end_dtc":"2024-05-26","visit":null},{"seq":"30","trt":"PSILOCYBIN","dose":null,"doseu":null,"dosef":"ONCE","route":"ORAL","start_dtc":"2024-05-27","end_dtc":"2024-05-27","visit":null},{"seq":"31","trt":"PSILOCYBIN","dose":"10.0","doseu":null,"dosef":"ONCE","route":"ORAL","start_dtc":"2024-05-28","end_dtc":"2024-05-28","visit":null},{"seq":"32","trt":"PSILOCYBIN","dose":"10.0","doseu":null,"dosef":"ONCE","route":"ORAL","start_dtc":"2024-05-29","end_dtc":"2024-05-29","visit":null},{"seq":"33","trt":"PSILOCYBIN","dose":"10.0","doseu":null,"dosef":"ONCE","route":"ORAL","start_dtc":"2024-05-30","end_dtc":"2024-05-30","visit":null},{"seq":"34","trt":"PSILOCYBIN","dose":"10.0","doseu":null,"dosef":"ONCE","route":"ORAL","start_dtc":"2024-05-31","end_dtc":"2024-05-31","visit":null},{"seq":"35","trt":"PSILOCYBIN","dose":"10.0","doseu":null,"dosef":"ONCE","route":"ORAL","start_dtc":"2024-06-01","end_dtc":"2024-06-01","visit":null},{"seq":"36","trt":"PSILOCYBIN","dose":"10.0","doseu":null,"dosef":"ONCE","route":"ORAL","start_dtc":"2024-06-02","end_dtc":"2024-06-02","visit":null},{"seq":"37","trt":"PSILOCYBIN","dose":"10.0","doseu":null,"dosef":"ONCE","route":"ORAL","start_dtc":"2024-06-03","end_dtc":"2024-06-03","visit":null},{"seq":"38","trt":"PSILOCYBIN","dose":"10.0","doseu":null,"dosef":"ONCE","route":"ORAL","start_dtc":"2024-06-04","end_dtc":"2024-06-04","visit":null},{"seq":"39","trt":"PSILOCYBIN","dose":"10.0","doseu":null,"dosef":"ONCE","route":"ORAL","start_dtc":"2024-06-05","end_dtc":"2024-06-05","visit":null},{"seq":"40","trt":"PSILOCYBIN","dose":"10.0","doseu":null,"dosef":"ONCE","route":"ORAL","start_dtc":"2024-06-06","end_dtc":"2024-06-06","visit":"WEEK 6"}]},"section_7_adverse_events":{"summary":{"total_aes":3,"serious_aes":0,"fatal_aes":0,"by_severity":{"MILD":2,"MODERATE":1},"by_soc":{"Psychiatric disorders":1,"Nervous system disorders":1,"Infections and infestations":1}},"events":[{"seq":"1","term":"ANXIETY","decod":"Anxiety","llt":"Anxiety","hlt":"Anxiety symptoms","hlgt":"Anxiety disorders and symptoms","soc":"Psychiatric disorders","bodsys":"Psychiatric disorders","severity":"MILD","serious":"N","causality":"POSSIBLY RELATED","action_taken":"DOSE NOT CHANGED","outcome":"RECOVERED/RESOLVED","fatal":"N","hospitalization":"N","life_threatening":"N","onset_dtc":"2024-05-03","end_dtc":"2024-05-17","onset_dy":"6","end_dy":"20","duration":null,"epoch":"TREATMENT","visit":null,"supplemental":{}},{"seq":"2","term":"SOMNOLENCE","decod":"Somnolence","llt":"Somnolence","hlt":"Disturbances in consciousness NEC","hlgt":"Neurological signs and symptoms NEC","soc":"Nervous system disorders","bodsys":"Nervous system disorders","severity":"MILD","serious":"N","causality":"POSSIBLY RELATED","action_taken":"DOSE NOT CHANGED","outcome":"RECOVERED/RESOLVED","fatal":"N","hospitalization":"N","life_threatening":"N","onset_dtc":"2024-05-03","end_dtc":"2024-05-12","onset_dy":"6","end_dy":"15","duration":null,"epoch":"TREATMENT","visit":null,"supplemental":{}},{"seq":"3","term":"PNEUMONIA","decod":"Pneumonia","llt":"Pneumonia","hlt":"Lower respiratory and lung infections","hlgt":"Infections NEC","soc":"Infections and infestations","bodsys":"Infections and infestations","severity":"MODERATE","serious":"N","causality":"NOT RELATED","action_taken":"DOSE NOT CHANGED","outcome":"RECOVERED/RESOLVED","fatal":"N","hospitalization":"N","life_threatening":"N","onset_dtc":"2024-05-27","end_dtc":"2024-06-17","onset_dy":"30","end_dy":"51","duration":null,"epoch":"TREATMENT","visit":null,"supplemental":{}}]},"section_8_laboratory_results":{"summary":{"total_records":42,"abnormal_count":5,"abnormal_pct":11.9},"shift_summary":[{"testcd":"ALT","baseline_value":11.83,"baseline_nrind":"NORMAL","worst_post_baseline_value":12.62,"worst_post_baseline_nrind":"NORMAL","worst_visit":"WEEK 3"},{"testcd":"AST","baseline_value":10.98,"baseline_nrind":"NORMAL","worst_post_baseline_value":9.58,"worst_post_baseline_nrind":"LOW","worst_visit":"DOSING DAY"},{"testcd":"CREAT","baseline_value":54.62,"baseline_nrind":"NORMAL","worst_post_baseline_value":59.5,"worst_post_baseline_nrind":"NORMAL","worst_visit":"WEEK 3"},{"testcd":"GLUC","baseline_value":4.55,"baseline_nrind":"NORMAL","worst_post_baseline_value":4.56,"worst_post_baseline_nrind":"NORMAL","worst_visit":"WEEK 1"},{"testcd":"HGB","baseline_value":136.46,"baseline_nrind":"NORMAL","worst_post_baseline_value":134.73,"worst_post_baseline_nrind":"NORMAL","worst_visit":"WEEK 3"},{"testcd":"PLAT","baseline_value":276.4,"baseline_nrind":"NORMAL","worst_post_baseline_value":291.6,"worst_post_baseline_nrind":"NORMAL","worst_visit":"WEEK 3"},{"testcd":"WBC","baseline_value":6.24,"baseline_nrind":"NORMAL","worst_post_baseline_value":7.08,"worst_post_baseline_nrind":"NORMAL","worst_visit":"WEEK 1"}],"results":[{"seq":"1","testcd":"ALT","test":"Alanine Aminotransferase","cat":"CHEMISTRY","orres":"11.83","orresu":"U/L","stresc":"11.83","stresn":"11.83","stresu":"U/L","stnrlo":"7","stnrhi":"56","nrind":"NORMAL","fast":null,"dtc":"2024-03-06","dy":"-53","visit":"SCREENING","visitnum":"1.0","epoch":"SCREENING","spec":null,"method":null},{"seq":"2","testcd":"AST","test":"Aspartate Aminotransferase","cat":"CHEMISTRY","orres":"10.98","orresu":"U/L","stresc":"10.98","stresn":"10.98","stresu":"U/L","stnrlo":"10","stnrhi":"40","nrind":"NORMAL","fast":null,"dtc":"2024-03-06","dy":"-53","visit":"SCREENING","visitnum":"1.0","epoch":"SCREENING","spec":null,"method":null},{"seq":"3","testcd":"CREAT","test":"Creatinine","cat":"CHEMISTRY","orres":"54.62","orresu":"umol/L","stresc":"54.62","stresn":"54.62","stresu":"umol/L","stnrlo":"44","stnrhi":"80","nrind":"NORMAL","fast":null,"dtc":"2024-03-06","dy":"-53","visit":"SCREENING","visitnum":"1.0","epoch":"SCREENING","spec":null,"method":null},{"seq":"4","testcd":"GLUC","test":"Glucose","cat":"CHEMISTRY","orres":null,"orresu":null,"stresc":null,"stresn":null,"stresu":null,"stnrlo":null,"stnrhi":null,"nrind":null,"fast":null,"dtc":"2024-03-06","dy":"-53","visit":"SCREENING","visitnum":"1.0","epoch":"SCREENING","spec":null,"method":null},{"seq":"5","testcd":"HGB","test":"Hemoglobin","cat":"HEMATOLOGY","orres":"136.46","orresu":"g/L","stresc":"136.46","stresn":"136.46","stresu":"g/L","stnrlo":"120","stnrhi":"155","nrind":"NORMAL","fast":null,"dtc":"2024-03-06","dy":"-53","visit":"SCREENING","visitnum":"1.0","epoch":"SCREENING","spec":null,"method":null},{"seq":"6","testcd":"PLAT","test":"Platelets","cat":"HEMATOLOGY","orres":null,"orresu":null,"stresc":null,"stresn":null,"stresu":null,"stnrlo":null,"stnrhi":null,"nrind":null,"fast":null,"dtc":"2024-03-06","dy":"-53","visit":"SCREENING","visitnum":"1.0","epoch":"SCREENING","spec":null,"method":null},{"seq":"7","testcd":"WBC","test":"Leukocytes","cat":"HEMATOLOGY","orres":"6.24","orresu":"10^9/L","stresc":"6.24","stresn":"6.24","stresu":"10^9/L","stnrlo":"4.0","stnrhi":"11.0","nrind":"NORMAL","fast":null,"dtc":"2024-03-06","dy":"-53","visit":"SCREENING","visitnum":"1.0","epoch":"SCREENING","spec":null,"method":null},{"seq":"8","testcd":"ALT","test":"Alanine Aminotransferase","cat":"CHEMISTRY","orres":"11.81","orresu":"U/L","stresc":"11.81","stresn":"11.81","stresu":"U/L","stnrlo":"7","stnrhi":"56","nrind":"NORMAL","fast":null,"dtc":"2024-04-28","dy":"1","visit":"DOSING DAY","visitnum":"2.0","epoch":"TREATMENT","spec":null,"method":null},{"seq":"9","testcd":"AST","test":"Aspartate Aminotransferase","cat":"CHEMISTRY","orres":"9.58","orresu":"U/L","stresc":"9.58","stresn":"9.58","stresu":"U/L","stnrlo":"10","stnrhi":"40","nrind":"LOW","fast":null,"dtc":"2024-04-28","dy":"1","visit":"DOSING DAY","visitnum":"2.0","epoch":"TREATMENT","spec":null,"method":null},{"seq":"10","testcd":"CREAT","test":"Creatinine","cat":"CHEMISTRY","orres":"55.23","orresu":"umol/L","stresc":"55.23","stresn":"55.23","stresu":"umol/L","stnrlo":"44","stnrhi":"80","nrind":"NORMAL","fast":null,"dtc":"2024-04-28","dy":"1","visit":"DOSING DAY","visitnum":"2.0","epoch":"TREATMENT","spec":null,"method":null},{"seq":"11","testcd":"GLUC","test":"Glucose","cat":"CHEMISTRY","orres":"4.55","orresu":"mmol/L","stresc":"4.55","stresn":"4.55","stresu":"mmol/L","stnrlo":"3.9","stnrhi":"5.6","nrind":"NORMAL","fast":null,"dtc":"2024-04-28","dy":"1","visit":"DOSING DAY","visitnum":"2.0","epoch":"TREATMENT","spec":null,"method":null},{"seq":"12","testcd":"HGB","test":"Hemoglobin","cat":"HEMATOLOGY","orres":null,"orresu":null,"stresc":null,"stresn":null,"stresu":null,"stnrlo":null,"stnrhi":null,"nrind":null,"fast":null,"dtc":"2024-04-28","dy":"1","visit":"DOSING DAY","visitnum":"2.0","epoch":"TREATMENT","spec":null,"method":null},{"seq":"13","testcd":"PLAT","test":"Platelets","cat":"HEMATOLOGY","orres":"276.4","orresu":"10^9/L","stresc":"276.4","stresn":"276.4","stresu":"10^9/L","stnrlo":"150","stnrhi":"400","nrind":"NORMAL","fast":null,"dtc":"2024-04-28","dy":"1","visit":"DOSING DAY","visitnum":"2.0","epoch":"TREATMENT","spec":null,"method":null},{"seq":"14","testcd":"WBC","test":"Leukocytes","cat":"HEMATOLOGY","orres":"6.86","orresu":"10^9/L","stresc":"6.86","stresn":"6.86","stresu":"10^9/L","stnrlo":"4.0","stnrhi":"11.0","nrind":"NORMAL","fast":null,"dtc":"2024-04-28","dy":"1","visit":"DOSING DAY","visitnum":"2.0","epoch":"TREATMENT","spec":null,"method":null},{"seq":"15","testcd":"ALT","test":"Alanine Aminotransferase","cat":"CHEMISTRY","orres":"9.02","orresu":"U/L","stresc":"9.02","stresn":"9.02","stresu":"U/L","stnrlo":"7","stnrhi":"56","nrind":"NORMAL","fast":null,"dtc":"2024-04-29","dy":"2","visit":"DAY 2","visitnum":"3.0","epoch":"FOLLOW-UP","spec":null,"method":null},{"seq":"16","testcd":"AST","test":"Aspartate Aminotransferase","cat":"CHEMISTRY","orres":"8.28","orresu":"U/L","stresc":"8.28","stresn":"8.28","stresu":"U/L","stnrlo":"10","stnrhi":"40","nrind":"LOW","fast":null,"dtc":"2024-04-29","dy":"2","visit":"DAY 2","visitnum":"3.0","epoch":"FOLLOW-UP","spec":null,"method":null},{"seq":"17","testcd":"CREAT","test":"Creatinine","cat":"CHEMISTRY","orres":"58.14","orresu":"umol/L","stresc":"58.14","stresn":"58.14","stresu":"umol/L","stnrlo":"44","stnrhi":"80","nrind":"NORMAL","fast":null,"dtc":"2024-04-29","dy":"2","visit":"DAY 2","visitnum":"3.0","epoch":"FOLLOW-UP","spec":null,"method":null},{"seq":"18","testcd":"GLUC","test":"Glucose","cat":"CHEMISTRY","orres":"4.52","orresu":"mmol/L","stresc":"4.52","stresn":"4.52","stresu":"mmol/L","stnrlo":"3.9","stnrhi":"5.6","nrind":"NORMAL","fast":null,"dtc":"2024-04-29","dy":"2","visit":"DAY 2","visitnum":"3.0","epoch":"FOLLOW-UP","spec":null,"method":null},{"seq":"19","testcd":"HGB","test":"Hemoglobin","cat":"HEMATOLOGY","orres":"136.02","orresu":"g/L","stresc":"136.02","stresn":"136.02","stresu":"g/L","stnrlo":"120","stnrhi":"155","nrind":"NORMAL","fast":null,"dtc":"2024-04-29","dy":"2","visit":"DAY 2","visitnum":"3.0","epoch":"FOLLOW-UP","spec":null,"method":null},{"seq":"20","testcd":"PLAT","test":"Platelets","cat":"HEMATOLOGY","orres":"278.85","orresu":"10^9/L","stresc":"278.85","stresn":"278.85","stresu":"10^9/L","stnrlo":"150","stnrhi":"400","nrind":"NORMAL","fast":null,"dtc":"2024-04-29","dy":"2","visit":"DAY 2","visitnum":"3.0","epoch":"FOLLOW-UP","spec":null,"method":null},{"seq":"21","testcd":"WBC","test":"Leukocytes","cat":"HEMATOLOGY","orres":"7.04","orresu":"10^9/L","stresc":"7.04","stresn":"7.04","stresu":"10^9/L","stnrlo":"4.0","stnrhi":"11.0","nrind":"NORMAL","fast":null,"dtc":"2024-04-29","dy":"2","visit":"DAY 2","visitnum":"3.0","epoch":"FOLLOW-UP","spec":null,"method":null},{"seq":"22","testcd":"ALT","test":"Alanine Aminotransferase","cat":"CHEMISTRY","orres":"11.09","orresu":"U/L","stresc":"11.09","stresn":"11.09","stresu":"U/L","stnrlo":"7","stnrhi":"56","nrind":"NORMAL","fast":null,"dtc":"2024-05-05","dy":"8","visit":"WEEK 1","visitnum":"4.0","epoch":"FOLLOW-UP","spec":null,"method":null},{"seq":"23","testcd":"AST","test":"Aspartate Aminotransferase","cat":"CHEMISTRY","orres":"7.43","orresu":"U/L","stresc":"7.43","stresn":"7.43","stresu":"U/L","stnrlo":"10","stnrhi":"40","nrind":"LOW","fast":null,"dtc":"2024-05-05","dy":"8","visit":"WEEK 1","visitnum":"4.0","epoch":"FOLLOW-UP","spec":null,"method":null},{"seq":"24","testcd":"CREAT","test":"Creatinine","cat":"CHEMISTRY","orres":"57.55","orresu":"umol/L","stresc":"57.55","stresn":"57.55","stresu":"umol/L","stnrlo":"44","stnrhi":"80","nrind":"NORMAL","fast":null,"dtc":"2024-05-05","dy":"8","visit":"WEEK 1","visitnum":"4.0","epoch":"FOLLOW-UP","spec":null,"method":null},{"seq":"25","testcd":"GLUC","test":"Glucose","cat":"CHEMISTRY","orres":"4.56","orresu":"mmol/L","stresc":"4.56","stresn":"4.56","stresu":"mmol/L","stnrlo":"3.9","stnrhi":"5.6","nrind":"NORMAL","fast":null,"dtc":"2024-05-05","dy":"8","visit":"WEEK 1","visitnum":"4.0","epoch":"FOLLOW-UP","spec":null,"method":null},{"seq":"26","testcd":"HGB","test":"Hemoglobin","cat":"HEMATOLOGY","orres":"136.53","orresu":"g/L","stresc":"136.53","stresn":"136.53","stresu":"g/L","stnrlo":"120","stnrhi":"155","nrind":"NORMAL","fast":null,"dtc":"2024-05-05","dy":"8","visit":"WEEK 1","visitnum":"4.0","epoch":"FOLLOW-UP","spec":null,"method":null},{"seq":"27","testcd":"PLAT","test":"Platelets","cat":"HEMATOLOGY","orres":"284.64","orresu":"10^9/L","stresc":"284.64","stresn":"284.64","stresu":"10^9/L","stnrlo":"150","stnrhi":"400","nrind":"NORMAL","fast":null,"dtc":"2024-05-05","dy":"8","visit":"WEEK 1","visitnum":"4.0","epoch":"FOLLOW-UP","spec":null,"method":null},{"seq":"28","testcd":"WBC","test":"Leukocytes","cat":"HEMATOLOGY","orres":"7.08","orresu":"10^9/L","stresc":"7.08","stresn":"7.08","stresu":"10^9/L","stnrlo":"4.0","stnrhi":"11.0","nrind":"NORMAL","fast":null,"dtc":"2024-05-05","dy":"8","visit":"WEEK 1","visitnum":"4.0","epoch":"FOLLOW-UP","spec":null,"method":null},{"seq":"29","testcd":"ALT","test":"Alanine Aminotransferase","cat":"CHEMISTRY","orres":"12.62","orresu":"U/L","stresc":"12.62","stresn":"12.62","stresu":"U/L","stnrlo":"7","stnrhi":"56","nrind":"NORMAL","fast":null,"dtc":"2024-05-22","dy":"25","visit":"WEEK 3","visitnum":"5.0","epoch":"FOLLOW-UP","spec":null,"method":null},{"seq":"30","testcd":"AST","test":"Aspartate Aminotransferase","cat":"CHEMISTRY","orres":"7.92","orresu":"U/L","stresc":"7.92","stresn":"7.92","stresu":"U/L","stnrlo":"10","stnrhi":"40","nrind":"LOW","fast":null,"dtc":"2024-05-22","dy":"25","visit":"WEEK 3","visitnum":"5.0","epoch":"FOLLOW-UP","spec":null,"method":null},{"seq":"31","testcd":"CREAT","test":"Creatinine","cat":"CHEMISTRY","orres":"59.5","orresu":"umol/L","stresc":"59.5","stresn":"59.5","stresu":"umol/L","stnrlo":"44","stnrhi":"80","nrind":"NORMAL","fast":null,"dtc":"2024-05-22","dy":"25","visit":"WEEK 3","visitnum":"5.0","epoch":"FOLLOW-UP","spec":null,"method":null},{"seq":"32","testcd":"GLUC","test":"Glucose","cat":"CHEMISTRY","orres":"4.56","orresu":"mmol/L","stresc":"4.56","stresn":"4.56","stresu":"mmol/L","stnrlo":"3.9","stnrhi":"5.6","nrind":"NORMAL","fast":null,"dtc":"2024-05-22","dy":"25","visit":"WEEK 3","visitnum":"5.0","epoch":"FOLLOW-UP","spec":null,"method":null},{"seq":"33","testcd":"HGB","test":"Hemoglobin","cat":"HEMATOLOGY","orres":"134.73","orresu":"g/L","stresc":"134.73","stresn":"134.73","stresu":"g/L","stnrlo":"120","stnrhi":"155","nrind":"NORMAL","fast":null,"dtc":"2024-05-22","dy":"25","visit":"WEEK 3","visitnum":"5.0","epoch":"FOLLOW-UP","spec":null,"method":null},{"seq":"34","testcd":"PLAT","test":"Platelets","cat":"HEMATOLOGY","orres":"291.6","orresu":"10^9/L","stresc":"291.6","stresn":"291.6","stresu":"10^9/L","stnrlo":"150","stnrhi":"400","nrind":"NORMAL","fast":null,"dtc":"2024-05-22","dy":"25","visit":"WEEK 3","visitnum":"5.0","epoch":"FOLLOW-UP","spec":null,"method":null},{"seq":"35","testcd":"WBC","test":"Leukocytes","cat":"HEMATOLOGY","orres":"6.64","orresu":"10^9/L","stresc":"6.64","stresn":"6.64","stresu":"10^9/L","stnrlo":"4.0","stnrhi":"11.0","nrind":"NORMAL","fast":null,"dtc":"2024-05-22","dy":"25","visit":"WEEK 3","visitnum":"5.0","epoch":"FOLLOW-UP","spec":null,"method":null},{"seq":"36","testcd":"ALT","test":"Alanine Aminotransferase","cat":"CHEMISTRY","orres":"9.28","orresu":"U/L","stresc":"9.28","stresn":"9.28","stresu":"U/L","stnrlo":"7","stnrhi":"56","nrind":"NORMAL","fast":null,"dtc":"2024-07-15","dy":"79","visit":"WEEK 12","visitnum":"7.0","epoch":"FOLLOW-UP","spec":null,"method":null},{"seq":"37","testcd":"AST","test":"Aspartate Aminotransferase","cat":"CHEMISTRY","orres":"7.94","orresu":"U/L","stresc":"7.94","stresn":"7.94","stresu":"U/L","stnrlo":"10","stnrhi":"40","nrind":"LOW","fast":null,"dtc":"2024-07-15","dy":"79","visit":"WEEK 12","visitnum":"7.0","epoch":"FOLLOW-UP","spec":null,"method":null},{"seq":"38","testcd":"CREAT","test":"Creatinine","cat":"CHEMISTRY","orres":"55.56","orresu":"umol/L","stresc":"55.56","stresn":"55.56","stresu":"umol/L","stnrlo":"44","stnrhi":"80","nrind":"NORMAL","fast":null,"dtc":"2024-07-15","dy":"79","visit":"WEEK 12","visitnum":"7.0","epoch":"FOLLOW-UP","spec":null,"method":null},{"seq":"39","testcd":"GLUC","test":"Glucose","cat":"CHEMISTRY","orres":"4.42","orresu":"mmol/L","stresc":"4.42","stresn":"4.42","stresu":"mmol/L","stnrlo":"3.9","stnrhi":"5.6","nrind":"NORMAL","fast":null,"dtc":"2024-07-15","dy":"79","visit":"WEEK 12","visitnum":"7.0","epoch":"FOLLOW-UP","spec":null,"method":null},{"seq":"40","testcd":"HGB","test":"Hemoglobin","cat":"HEMATOLOGY","orres":"136.49","orresu":"g/L","stresc":"136.49","stresn":"136.49","stresu":"g/L","stnrlo":"120","stnrhi":"155","nrind":"NORMAL","fast":null,"dtc":"2024-07-15","dy":"79","visit":"WEEK 12","visitnum":"7.0","epoch":"FOLLOW-UP","spec":null,"method":null},{"seq":"41","testcd":"PLAT","test":"Platelets","cat":"HEMATOLOGY","orres":"275.14","orresu":"10^9/L","stresc":"275.14","stresn":"275.14","stresu":"10^9/L","stnrlo":"150","stnrhi":"400","nrind":"NORMAL","fast":null,"dtc":"2024-07-15","dy":"79","visit":"WEEK 12","visitnum":"7.0","epoch":"FOLLOW-UP","spec":null,"method":null},{"seq":"42","testcd":"WBC","test":"Leukocytes","cat":"HEMATOLOGY","orres":"6.06","orresu":"10^9/L","stresc":"6.06","stresn":"6.06","stresu":"10^9/L","stnrlo":"4.0","stnrhi":"11.0","nrind":"NORMAL","fast":null,"dtc":"2024-07-15","dy":"79","visit":"WEEK 12","visitnum":"7.0","epoch":"FOLLOW-UP","spec":null,"method":null}]},"section_9_vital_signs":{"summary":{"total_records":40},"trends":{"BMI":[{"visit":"SCREENING","visitnum":"1.0","dtc":"2024-03-06","value":"38.4","unit":"kg/m2"},{"visit":"DOSING DAY","visitnum":"2.0","dtc":"2024-04-28","value":"38.9","unit":"kg/m2"},{"visit":"DAY 2","visitnum":"3.0","dtc":"2024-04-29","value":"38.4","unit":"kg/m2"},{"visit":"WEEK 6","visitnum":"6.0","dtc":"2024-06-12","value":"37.1","unit":"kg/m2"},{"visit":"WEEK 12","visitnum":"7.0","dtc":"2024-07-15","value":"37.0","unit":"kg/m2"}],"DIABP":[{"visit":"SCREENING","visitnum":"1.0","dtc":"2024-03-06","value":"75.3","unit":"mmHg"},{"visit":"DOSING DAY","visitnum":"2.0","dtc":"2024-04-28","value":"74.2","unit":"mmHg"},{"visit":"DAY 2","visitnum":"3.0","dtc":"2024-04-29","value":"74.3","unit":"mmHg"},{"visit":"WEEK 6","visitnum":"6.0","dtc":"2024-06-12","value":"76.3","unit":"mmHg"},{"visit":"WEEK 12","visitnum":"7.0","dtc":"2024-07-15","value":"77.5","unit":"mmHg"}],"HEIGHT":[{"visit":"SCREENING","visitnum":"1.0","dtc":"2024-03-06","value":"140.1","unit":"cm"},{"visit":"DOSING DAY","visitnum":"2.0","dtc":"2024-04-28","value":"140.0","unit":"cm"},{"visit":"DAY 2","visitnum":"3.0","dtc":"2024-04-29","value":"140.4","unit":"cm"},{"visit":"WEEK 6","visitnum":"6.0","dtc":"2024-06-12","value":"140.0","unit":"cm"},{"visit":"WEEK 12","visitnum":"7.0","dtc":"2024-07-15","value":"140.0","unit":"cm"}],"PULSE":[{"visit":"SCREENING","visitnum":"1.0","dtc":"2024-03-06","value":"86.8","unit":"beats/min"},{"visit":"DOSING DAY","visitnum":"2.0","dtc":"2024-04-28","value":"85.1","unit":"beats/min"},{"visit":"DAY 2","visitnum":"3.0","dtc":"2024-04-29","value":"82.1","unit":"beats/min"},{"visit":"WEEK 6","visitnum":"6.0","dtc":"2024-06-12","value":"81.1","unit":"beats/min"},{"visit":"WEEK 12","visitnum":"7.0","dtc":"2024-07-15","value":"81.4","unit":"beats/min"}],"RESP":[{"visit":"SCREENING","visitnum":"1.0","dtc":"2024-03-06","value":"17.2","unit":"breaths/min"},{"visit":"DOSING DAY","visitnum":"2.0","dtc":"2024-04-28","value":"18.5","unit":"breaths/min"},{"visit":"DAY 2","visitnum":"3.0","dtc":"2024-04-29","value":"18.8","unit":"breaths/min"},{"visit":"WEEK 6","visitnum":"6.0","dtc":"2024-06-12","value":"16.7","unit":"breaths/min"},{"visit":"WEEK 12","visitnum":"7.0","dtc":"2024-07-15","value":"18.1","unit":"breaths/min"}],"SYSBP":[{"visit":"SCREENING","visitnum":"1.0","dtc":"2024-03-06","value":"122.3","unit":"mmHg"},{"visit":"DOSING DAY","visitnum":"2.0","dtc":"2024-04-28","value":"122.2","unit":"mmHg"},{"visit":"DAY 2","visitnum":"3.0","dtc":"2024-04-29","value":"124.2","unit":"mmHg"},{"visit":"WEEK 6","visitnum":"6.0","dtc":"2024-06-12","value":"127.1","unit":"mmHg"},{"visit":"WEEK 12","visitnum":"7.0","dtc":"2024-07-15","value":"126.2","unit":"mmHg"}],"TEMP":[{"visit":"SCREENING","visitnum":"1.0","dtc":"2024-03-06","value":"37.3","unit":"C"},{"visit":"DOSING DAY","visitnum":"2.0","dtc":"2024-04-28","value":"37.4","unit":"C"},{"visit":"DAY 2","visitnum":"3.0","dtc":"2024-04-29","value":"37.3","unit":"C"},{"visit":"WEEK 6","visitnum":"6.0","dtc":"2024-06-12","value":"37.4","unit":"C"},{"visit":"WEEK 12","visitnum":"7.0","dtc":"2024-07-15","value":"37.3","unit":"C"}],"WEIGHT":[{"visit":"SCREENING","visitnum":"1.0","dtc":"2024-03-06","value":"75.4","unit":"kg"},{"visit":"DOSING DAY","visitnum":"2.0","dtc":"2024-04-28","value":"76.3","unit":"kg"},{"visit":"DAY 2","visitnum":"3.0","dtc":"2024-04-29","value":"75.7","unit":"kg"},{"visit":"WEEK 6","visitnum":"6.0","dtc":"2024-06-12","value":"72.7","unit":"kg"},{"visit":"WEEK 12","visitnum":"7.0","dtc":"2024-07-15","value":"72.6","unit":"kg"}]},"results":[{"seq":"1","testcd":"BMI","test":"BMI","cat":null,"orres":"38.4","orresu":"kg/m2","stresc":"38.4","stresn":"38.4","stresu":"kg/m2","stnrlo":null,"stnrhi":null,"nrind":null,"pos":null,"loc":null,"dtc":"2024-03-06","dy":"-53","visit":"SCREENING","visitnum":"1.0","epoch":"SCREENING"},{"seq":"2","testcd":"DIABP","test":"Diastolic Blood Pressure","cat":null,"orres":"75.3","orresu":"mmHg","stresc":"75.3","stresn":"75.3","stresu":"mmHg","stnrlo":null,"stnrhi":null,"nrind":null,"pos":null,"loc":null,"dtc":"2024-03-06","dy":"-53","visit":"SCREENING","visitnum":"1.0","epoch":"SCREENING"},{"seq":"3","testcd":"HEIGHT","test":"Height","cat":null,"orres":"140.1","orresu":"cm","stresc":"140.1","stresn":"140.1","stresu":"cm","stnrlo":null,"stnrhi":null,"nrind":null,"pos":null,"loc":null,"dtc":"2024-03-06","dy":"-53","visit":"SCREENING","visitnum":"1.0","epoch":"SCREENING"},{"seq":"4","testcd":"PULSE","test":"Pulse Rate","cat":null,"orres":"86.8","orresu":"beats/min","stresc":"86.8","stresn":"86.8","stresu":"beats/min","stnrlo":null,"stnrhi":null,"nrind":null,"pos":null,"loc":null,"dtc":"2024-03-06","dy":"-53","visit":"SCREENING","visitnum":"1.0","epoch":"SCREENING"},{"seq":"5","testcd":"RESP","test":"Respiratory Rate","cat":null,"orres":"17.2","orresu":"breaths/min","stresc":"17.2","stresn":"17.2","stresu":"breaths/min","stnrlo":null,"stnrhi":null,"nrind":null,"pos":null,"loc":null,"dtc":"2024-03-06","dy":"-53","visit":"SCREENING","visitnum":"1.0","epoch":"SCREENING"},{"seq":"6","testcd":"SYSBP","test":"Systolic Blood Pressure","cat":null,"orres":"122.3","orresu":"mmHg","stresc":"122.3","stresn":"122.3","stresu":"mmHg","stnrlo":null,"stnrhi":null,"nrind":null,"pos":null,"loc":null,"dtc":"2024-03-06","dy":"-53","visit":"SCREENING","visitnum":"1.0","epoch":"SCREENING"},{"seq":"7","testcd":"TEMP","test":"Temperature","cat":null,"orres":"37.3","orresu":"C","stresc":"37.3","stresn":"37.3","stresu":"C","stnrlo":null,"stnrhi":null,"nrind":null,"pos":null,"loc":null,"dtc":"2024-03-06","dy":"-53","visit":"SCREENING","visitnum":"1.0","epoch":"SCREENING"},{"seq":"8","testcd":"WEIGHT","test":"Weight","cat":null,"orres":"75.4","orresu":"kg","stresc":"75.4","stresn":"75.4","stresu":"kg","stnrlo":null,"stnrhi":null,"nrind":null,"pos":null,"loc":null,"dtc":"2024-03-06","dy":"-53","visit":"SCREENING","visitnum":"1.0","epoch":"SCREENING"},{"seq":"9","testcd":"BMI","test":"BMI","cat":null,"orres":"38.9","orresu":"kg/m2","stresc":"38.9","stresn":"38.9","stresu":"kg/m2","stnrlo":null,"stnrhi":null,"nrind":null,"pos":null,"loc":null,"dtc":"2024-04-28","dy":"1","visit":"DOSING DAY","visitnum":"2.0","epoch":"TREATMENT"},{"seq":"10","testcd":"DIABP","test":"Diastolic Blood Pressure","cat":null,"orres":"74.2","orresu":"mmHg","stresc":"74.2","stresn":"74.2","stresu":"mmHg","stnrlo":null,"stnrhi":null,"nrind":null,"pos":null,"loc":null,"dtc":"2024-04-28","dy":"1","visit":"DOSING DAY","visitnum":"2.0","epoch":"TREATMENT"},{"seq":"11","testcd":"HEIGHT","test":"Height","cat":null,"orres":"140.0","orresu":"cm","stresc":"140.0","stresn":"140.0","stresu":"cm","stnrlo":null,"stnrhi":null,"nrind":null,"pos":null,"loc":null,"dtc":"2024-04-28","dy":"1","visit":"DOSING DAY","visitnum":"2.0","epoch":"TREATMENT"},{"seq":"12","testcd":"PULSE","test":"Pulse Rate","cat":null,"orres":"85.1","orresu":"beats/min","stresc":"85.1","stresn":"85.1","stresu":"beats/min","stnrlo":null,"stnrhi":null,"nrind":null,"pos":null,"loc":null,"dtc":"2024-04-28","dy":"1","visit":"DOSING DAY","visitnum":"2.0","epoch":"TREATMENT"},{"seq":"13","testcd":"RESP","test":"Respiratory Rate","cat":null,"orres":"18.5","orresu":"breaths/min","stresc":"18.5","stresn":"18.5","stresu":"breaths/min","stnrlo":null,"stnrhi":null,"nrind":null,"pos":null,"loc":null,"dtc":"2024-04-28","dy":"1","visit":"DOSING DAY","visitnum":"2.0","epoch":"TREATMENT"},{"seq":"14","testcd":"SYSBP","test":"Systolic Blood Pressure","cat":null,"orres":"122.2","orresu":"mmHg","stresc":"122.2","stresn":"122.2","stresu":"mmHg","stnrlo":null,"stnrhi":null,"nrind":null,"pos":null,"loc":null,"dtc":"2024-04-28","dy":"1","visit":"DOSING DAY","visitnum":"2.0","epoch":"TREATMENT"},{"seq":"15","testcd":"TEMP","test":"Temperature","cat":null,"orres":"37.4","orresu":"C","stresc":"37.4","stresn":"37.4","stresu":"C","stnrlo":null,"stnrhi":null,"nrind":null,"pos":null,"loc":null,"dtc":"2024-04-28","dy":"1","visit":"DOSING DAY","visitnum":"2.0","epoch":"TREATMENT"},{"seq":"16","testcd":"WEIGHT","test":"Weight","cat":null,"orres":"76.3","orresu":"kg","stresc":"76.3","stresn":"76.3","stresu":"kg","stnrlo":null,"stnrhi":null,"nrind":null,"pos":null,"loc":null,"dtc":"2024-04-28","dy":"1","visit":"DOSING DAY","visitnum":"2.0","epoch":"TREATMENT"},{"seq":"17","testcd":"BMI","test":"BMI","cat":null,"orres":"38.4","orresu":"kg/m2","stresc":"38.4","stresn":"38.4","stresu":"kg/m2","stnrlo":null,"stnrhi":null,"nrind":null,"pos":null,"loc":null,"dtc":"2024-04-29","dy":"2","visit":"DAY 2","visitnum":"3.0","epoch":"FOLLOW-UP"},{"seq":"18","testcd":"DIABP","test":"Diastolic Blood Pressure","cat":null,"orres":"74.3","orresu":"mmHg","stresc":"74.3","stresn":"74.3","stresu":"mmHg","stnrlo":null,"stnrhi":null,"nrind":null,"pos":null,"loc":null,"dtc":"2024-04-29","dy":"2","visit":"DAY 2","visitnum":"3.0","epoch":"FOLLOW-UP"},{"seq":"19","testcd":"HEIGHT","test":"Height","cat":null,"orres":"140.4","orresu":"cm","stresc":"140.4","stresn":"140.4","stresu":"cm","stnrlo":null,"stnrhi":null,"nrind":null,"pos":null,"loc":null,"dtc":"2024-04-29","dy":"2","visit":"DAY 2","visitnum":"3.0","epoch":"FOLLOW-UP"},{"seq":"20","testcd":"PULSE","test":"Pulse Rate","cat":null,"orres":"82.1","orresu":"beats/min","stresc":"82.1","stresn":"82.1","stresu":"beats/min","stnrlo":null,"stnrhi":null,"nrind":null,"pos":null,"loc":null,"dtc":"2024-04-29","dy":"2","visit":"DAY 2","visitnum":"3.0","epoch":"FOLLOW-UP"},{"seq":"21","testcd":"RESP","test":"Respiratory Rate","cat":null,"orres":"18.8","orresu":"breaths/min","stresc":"18.8","stresn":"18.8","stresu":"breaths/min","stnrlo":null,"stnrhi":null,"nrind":null,"pos":null,"loc":null,"dtc":"2024-04-29","dy":"2","visit":"DAY 2","visitnum":"3.0","epoch":"FOLLOW-UP"},{"seq":"22","testcd":"SYSBP","test":"Systolic Blood Pressure","cat":null,"orres":"124.2","orresu":"mmHg","stresc":"124.2","stresn":"124.2","stresu":"mmHg","stnrlo":null,"stnrhi":null,"nrind":null,"pos":null,"loc":null,"dtc":"2024-04-29","dy":"2","visit":"DAY 2","visitnum":"3.0","epoch":"FOLLOW-UP"},{"seq":"23","testcd":"TEMP","test":"Temperature","cat":null,"orres":"37.3","orresu":"C","stresc":"37.3","stresn":"37.3","stresu":"C","stnrlo":null,"stnrhi":null,"nrind":null,"pos":null,"loc":null,"dtc":"2024-04-29","dy":"2","visit":"DAY 2","visitnum":"3.0","epoch":"FOLLOW-UP"},{"seq":"24","testcd":"WEIGHT","test":"Weight","cat":null,"orres":"75.7","orresu":"kg","stresc":"75.7","stresn":"75.7","stresu":"kg","stnrlo":null,"stnrhi":null,"nrind":null,"pos":null,"loc":null,"dtc":"2024-04-29","dy":"2","visit":"DAY 2","visitnum":"3.0","epoch":"FOLLOW-UP"},{"seq":"25","testcd":"BMI","test":"BMI","cat":null,"orres":"37.1","orresu":"kg/m2","stresc":"37.1","stresn":"37.1","stresu":"kg/m2","stnrlo":null,"stnrhi":null,"nrind":null,"pos":null,"loc":null,"dtc":"2024-06-12","dy":"46","visit":"WEEK 6","visitnum":"6.0","epoch":"FOLLOW-UP"},{"seq":"26","testcd":"DIABP","test":"Diastolic Blood Pressure","cat":null,"orres":"76.3","orresu":"mmHg","stresc":"76.3","stresn":"76.3","stresu":"mmHg","stnrlo":null,"stnrhi":null,"nrind":null,"pos":null,"loc":null,"dtc":"2024-06-12","dy":"46","visit":"WEEK 6","visitnum":"6.0","epoch":"FOLLOW-UP"},{"seq":"27","testcd":"HEIGHT","test":"Height","cat":null,"orres":"140.0","orresu":"cm","stresc":"140.0","stresn":"140.0","stresu":"cm","stnrlo":null,"stnrhi":null,"nrind":null,"pos":null,"loc":null,"dtc":"2024-06-12","dy":"46","visit":"WEEK 6","visitnum":"6.0","epoch":"FOLLOW-UP"},{"seq":"28","testcd":"PULSE","test":"Pulse Rate","cat":null,"orres":"81.1","orresu":"beats/min","stresc":"81.1","stresn":"81.1","stresu":"beats/min","stnrlo":null,"stnrhi":null,"nrind":null,"pos":null,"loc":null,"dtc":"2024-06-12","dy":"46","visit":"WEEK 6","visitnum":"6.0","epoch":"FOLLOW-UP"},{"seq":"29","testcd":"RESP","test":"Respiratory Rate","cat":null,"orres":"16.7","orresu":"breaths/min","stresc":"16.7","stresn":"16.7","stresu":"breaths/min","stnrlo":null,"stnrhi":null,"nrind":null,"pos":null,"loc":null,"dtc":"2024-06-12","dy":"46","visit":"WEEK 6","visitnum":"6.0","epoch":"FOLLOW-UP"},{"seq":"30","testcd":"SYSBP","test":"Systolic Blood Pressure","cat":null,"orres":"127.1","orresu":"mmHg","stresc":"127.1","stresn":"127.1","stresu":"mmHg","stnrlo":null,"stnrhi":null,"nrind":null,"pos":null,"loc":null,"dtc":"2024-06-12","dy":"46","visit":"WEEK 6","visitnum":"6.0","epoch":"FOLLOW-UP"},{"seq":"31","testcd":"TEMP","test":"Temperature","cat":null,"orres":"37.4","orresu":"C","stresc":"37.4","stresn":"37.4","stresu":"C","stnrlo":null,"stnrhi":null,"nrind":null,"pos":null,"loc":null,"dtc":"2024-06-12","dy":"46","visit":"WEEK 6","visitnum":"6.0","epoch":"FOLLOW-UP"},{"seq":"32","testcd":"WEIGHT","test":"Weight","cat":null,"orres":"72.7","orresu":"kg","stresc":"72.7","stresn":"72.7","stresu":"kg","stnrlo":null,"stnrhi":null,"nrind":null,"pos":null,"loc":null,"dtc":"2024-06-12","dy":"46","visit":"WEEK 6","visitnum":"6.0","epoch":"FOLLOW-UP"},{"seq":"33","testcd":"BMI","test":"BMI","cat":null,"orres":"37.0","orresu":"kg/m2","stresc":"37.0","stresn":"37.0","stresu":"kg/m2","stnrlo":null,"stnrhi":null,"nrind":null,"pos":null,"loc":null,"dtc":"2024-07-15","dy":"79","visit":"WEEK 12","visitnum":"7.0","epoch":"FOLLOW-UP"},{"seq":"34","testcd":"DIABP","test":"Diastolic Blood Pressure","cat":null,"orres":"77.5","orresu":"mmHg","stresc":"77.5","stresn":"77.5","stresu":"mmHg","stnrlo":null,"stnrhi":null,"nrind":null,"pos":null,"loc":null,"dtc":"2024-07-15","dy":"79","visit":"WEEK 12","visitnum":"7.0","epoch":"FOLLOW-UP"},{"seq":"35","testcd":"HEIGHT","test":"Height","cat":null,"orres":"140.0","orresu":"cm","stresc":"140.0","stresn":"140.0","stresu":"cm","stnrlo":null,"stnrhi":null,"nrind":null,"pos":null,"loc":null,"dtc":"2024-07-15","dy":"79","visit":"WEEK 12","visitnum":"7.0","epoch":"FOLLOW-UP"},{"seq":"36","testcd":"PULSE","test":"Pulse Rate","cat":null,"orres":"81.4","orresu":"beats/min","stresc":"81.4","stresn":"81.4","stresu":"beats/min","stnrlo":null,"stnrhi":null,"nrind":null,"pos":null,"loc":null,"dtc":"2024-07-15","dy":"79","visit":"WEEK 12","visitnum":"7.0","epoch":"FOLLOW-UP"},{"seq":"37","testcd":"RESP","test":"Respiratory Rate","cat":null,"orres":"18.1","orresu":"breaths/min","stresc":"18.1","stresn":"18.1","stresu":"breaths/min","stnrlo":null,"stnrhi":null,"nrind":null,"pos":null,"loc":null,"dtc":"2024-07-15","dy":"79","visit":"WEEK 12","visitnum":"7.0","epoch":"FOLLOW-UP"},{"seq":"38","testcd":"SYSBP","test":"Systolic Blood Pressure","cat":null,"orres":"126.2","orresu":"mmHg","stresc":"126.2","stresn":"126.2","stresu":"mmHg","stnrlo":null,"stnrhi":null,"nrind":null,"pos":null,"loc":null,"dtc":"2024-07-15","dy":"79","visit":"WEEK 12","visitnum":"7.0","epoch":"FOLLOW-UP"},{"seq":"39","testcd":"TEMP","test":"Temperature","cat":null,"orres":"37.3","orresu":"C","stresc":"37.3","stresn":"37.3","stresu":"C","stnrlo":null,"stnrhi":null,"nrind":null,"pos":null,"loc":null,"dtc":"2024-07-15","dy":"79","visit":"WEEK 12","visitnum":"7.0","epoch":"FOLLOW-UP"},{"seq":"40","testcd":"WEIGHT","test":"Weight","cat":null,"orres":"72.6","orresu":"kg","stresc":"72.6","stresn":"72.6","stresu":"kg","stnrlo":null,"stnrhi":null,"nrind":null,"pos":null,"loc":null,"dtc":"2024-07-15","dy":"79","visit":"WEEK 12","visitnum":"7.0","epoch":"FOLLOW-UP"}]},"section_10_questionnaires_and_scores":{"questionnaires":[{"seq":"1","testcd":"MADRS01","test":"Apparent Sadness","cat":"MADRS","scat":null,"orres":"3","stresc":"3","stresn":"3.0","dtc":"2024-03-24","dy":"-35","visit":"SCREENING","visitnum":"1.0"},{"seq":"2","testcd":"MADRS02","test":"Reported Sadness","cat":"MADRS","scat":null,"orres":"2","stresc":"2","stresn":"2.0","dtc":"2024-03-24","dy":"-35","visit":"SCREENING","visitnum":"1.0"},{"seq":"3","testcd":"MADRS03","test":"Inner Tension","cat":"MADRS","scat":null,"orres":"2","stresc":"2","stresn":"2.0","dtc":"2024-03-24","dy":"-35","visit":"SCREENING","visitnum":"1.0"},{"seq":"4","testcd":"MADRS04","test":"Reduced Sleep","cat":"MADRS","scat":null,"orres":"2","stresc":"2","stresn":"2.0","dtc":"2024-03-24","dy":"-35","visit":"SCREENING","visitnum":"1.0"},{"seq":"5","testcd":"MADRS05","test":"Reduced Appetite","cat":"MADRS","scat":null,"orres":"3","stresc":"3","stresn":"3.0","dtc":"2024-03-24","dy":"-35","visit":"SCREENING","visitnum":"1.0"},{"seq":"6","testcd":"MADRS06","test":"Concentration Difficulties","cat":"MADRS","scat":null,"orres":"3","stresc":"3","stresn":"3.0","dtc":"2024-03-24","dy":"-35","visit":"SCREENING","visitnum":"1.0"},{"seq":"7","testcd":"MADRS07","test":"Lassitude","cat":"MADRS","scat":null,"orres":"2","stresc":"2","stresn":"2.0","dtc":"2024-03-24","dy":"-35","visit":"SCREENING","visitnum":"1.0"},{"seq":"8","testcd":"MADRS08","test":"Inability to Feel","cat":"MADRS","scat":null,"orres":"3","stresc":"3","stresn":"3.0","dtc":"2024-03-24","dy":"-35","visit":"SCREENING","visitnum":"1.0"},{"seq":"9","testcd":"MADRS09","test":"Pessimistic Thoughts","cat":"MADRS","scat":null,"orres":"3","stresc":"3","stresn":"3.0","dtc":"2024-03-24","dy":"-35","visit":"SCREENING","visitnum":"1.0"},{"seq":"10","testcd":"MADRS10","test":"Suicidal Thoughts","cat":"MADRS","scat":null,"orres":"2","stresc":"2","stresn":"2.0","dtc":"2024-03-24","dy":"-35","visit":"SCREENING","visitnum":"1.0"},{"seq":"11","testcd":"MADRSTOT","test":"MADRS Total Score","cat":"MADRS","scat":"TOTAL","orres":"25.0","stresc":"25.0","stresn":"25.0","dtc":"2024-03-24","dy":"-35","visit":"SCREENING","visitnum":"1.0"},{"seq":"12","testcd":"MADRS01","test":"Apparent Sadness","cat":"MADRS","scat":null,"orres":"2","stresc":"2","stresn":"2.0","dtc":"2024-04-28","dy":"1","visit":"DOSING DAY","visitnum":"2.0"},{"seq":"13","testcd":"MADRS02","test":"Reported Sadness","cat":"MADRS","scat":null,"orres":"3","stresc":"3","stresn":"3.0","dtc":"2024-04-28","dy":"1","visit":"DOSING DAY","visitnum":"2.0"},{"seq":"14","testcd":"MADRS03","test":"Inner Tension","cat":"MADRS","scat":null,"orres":"2","stresc":"2","stresn":"2.0","dtc":"2024-04-28","dy":"1","visit":"DOSING DAY","visitnum":"2.0"},{"seq":"15","testcd":"MADRS04","test":"Reduced Sleep","cat":"MADRS","scat":null,"orres":"4","stresc":"4","stresn":"4.0","dtc":"2024-04-28","dy":"1","visit":"DOSING DAY","visitnum":"2.0"},{"seq":"16","testcd":"MADRS05","test":"Reduced Appetite","cat":"MADRS","scat":null,"orres":"2","stresc":"2","stresn":"2.0","dtc":"2024-04-28","dy":"1","visit":"DOSING DAY","visitnum":"2.0"},{"seq":"17","testcd":"MADRS06","test":"Concentration Difficulties","cat":"MADRS","scat":null,"orres":"2","stresc":"2","stresn":"2.0","dtc":"2024-04-28","dy":"1","visit":"DOSING DAY","visitnum":"2.0"},{"seq":"18","testcd":"MADRS07","test":"Lassitude","cat":"MADRS","scat":null,"orres":"3","stresc":"3","stresn":"3.0","dtc":"2024-04-28","dy":"1","visit":"DOSING DAY","visitnum":"2.0"},{"seq":"19","testcd":"MADRS08","test":"Inability to Feel","cat":"MADRS","scat":null,"orres":"2","stresc":"2","stresn":"2.0","dtc":"2024-04-28","dy":"1","visit":"DOSING DAY","visitnum":"2.0"},{"seq":"20","testcd":"MADRS09","test":"Pessimistic Thoughts","cat":"MADRS","scat":null,"orres":"2","stresc":"2","stresn":"2.0","dtc":"2024-04-28","dy":"1","visit":"DOSING DAY","visitnum":"2.0"},{"seq":"21","testcd":"MADRS10","test":"Suicidal Thoughts","cat":"MADRS","scat":null,"orres":"3","stresc":"3","stresn":"3.0","dtc":"2024-04-28","dy":"1","visit":"DOSING DAY","visitnum":"2.0"},{"seq":"22","testcd":"MADRSTOT","test":"MADRS Total Score","cat":"MADRS","scat":"TOTAL","orres":"25.0","stresc":"25.0","stresn":"25.0","dtc":"2024-04-28","dy":"1","visit":"DOSING DAY","visitnum":"2.0"}],"findings_about":[]},"section_11_protocol_deviations":{"deviations":[{"seq":"1","term":"Missed PSILOCYBIN dose on 2024-04-29","decod":"MISSED DOSE","cat":"MINOR","scat":"DOSING","start_dtc":"2024-04-29","end_dtc":null,"visit":null},{"seq":"2","term":"Missed PSILOCYBIN dose on 2024-05-05","decod":"MISSED DOSE","cat":"MINOR","scat":"DOSING","start_dtc":"2024-05-05","end_dtc":null,"visit":null},{"seq":"3","term":"Missed PSILOCYBIN dose on 2024-05-09","decod":"MISSED DOSE","cat":"MINOR","scat":"DOSING","start_dtc":"2024-05-09","end_dtc":null,"visit":null},{"seq":"4","term":"Missed PSILOCYBIN dose on 2024-05-20","decod":"MISSED DOSE","cat":"MINOR","scat":"DOSING","start_dtc":"2024-05-20","end_dtc":null,"visit":null},{"seq":"5","term":"Missed PSILOCYBIN dose on 2024-05-27","decod":"MISSED DOSE","cat":"MINOR","scat":"DOSING","start_dtc":"2024-05-27","end_dtc":null,"visit":null}],"total":5},"section_12_disposition":{"completion_status":"COMPLETED","disposition_records":[{"seq":"1","term":"INFORMED CONSENT OBTAINED","decod":"INFORMED CONSENT OBTAINED","cat":"PROTOCOL MILESTONE","scat":null,"dtc":"2024-03-24","dy":null,"visit":null,"epoch":"SCREENING"},{"seq":"2","term":"RANDOMIZED","decod":"RANDOMIZED","cat":"PROTOCOL MILESTONE","scat":null,"dtc":"2024-04-28","dy":null,"visit":null,"epoch":"TREATMENT"},{"seq":"3","term":"COMPLETED","decod":"COMPLETED","cat":"DISPOSITION EVENT","scat":null,"dtc":"2024-08-19","dy":null,"visit":null,"epoch":"FOLLOW-UP"}],"death":null},"section_13_hospitalizations":{"items":[],"total":0},"section_14_substance_use":{"items":[{"seq":"1","substance":"ALCOHOL","decod":"ALCOHOL","cat":"ALCOHOL","scat":null,"usage":"Y","dose":"4.0","dosu":"DRINKS/WEEK","freq":"QW","start_dtc":"1996-03-31","end_dtc":null},{"seq":"2","substance":"COFFEE","decod":"COFFEE","cat":"CAFFEINE","scat":null,"usage":"Y","dose":"2.0","dosu":"CUPS/DAY","freq":"QD","start_dtc":"2011-03-28","end_dtc":null},{"seq":"3","substance":"CIGARETTES","decod":"CIGARETTES","cat":"TOBACCO","scat":"CIGARETTES","usage":"N","dose":null,"dosu":null,"freq":null,"start_dtc":null,"end_dtc":null}],"total":3},"section_15_subject_status":{"items":[{"seq":"1","testcd":"SURVSTAT","test":"Survival Status","orres":"ALIVE","stresc":"ALIVE","dtc":"2024-08-19","visit":"END OF STUDY","epoch":"FOLLOW-UP"}],"total":1}}