{"subject_id":"TERPSIS-MDD-201-SITE001-0028","study_id":"TERPSIS-MDD-201","generated_at":"2026-06-16T11:15:08.323513+00:00","sdtmig_version":"3.4","flags":{"has_serious_ae":true,"has_fatal_ae":false,"has_protocol_deviation":true,"n_protocol_deviations":10,"n_adverse_events":3,"n_concomitant_meds":3,"max_ae_severity":"SEVERE","screen_failure":false,"discontinued_early":false,"discontinuation_reason":null,"death":false,"exposure_days":38},"timeline":[{"dtc":"2024-01-30","dy":"-48","event":"VISIT: SCREENING","domain":"SV","category":"visit"},{"dtc":"2024-02-28","dy":"-19","event":"INFORMED CONSENT OBTAINED","domain":"DS","category":"milestone"},{"dtc":"2024-03-18","dy":"1","event":"RANDOMIZED","domain":"DS","category":"milestone"},{"dtc":"2024-03-18","dy":"1","event":"FIRST DOSE: PSILOCYBIN","domain":"EX","category":"exposure"},{"dtc":"2024-03-18","dy":"1","event":"VISIT: DOSING DAY","domain":"SV","category":"visit"},{"dtc":"2024-03-19","dy":"2","event":"VISIT: DAY 2","domain":"SV","category":"visit"},{"dtc":"2024-03-21","dy":"4","event":"DEVIATION: MISSED DOSE","domain":"DV","category":"deviation"},{"dtc":"2024-03-22","dy":"5","event":"DEVIATION: MISSED DOSE","domain":"DV","category":"deviation"},{"dtc":"2024-03-23","dy":"6","event":"DEVIATION: MISSED DOSE","domain":"DV","category":"deviation"},{"dtc":"2024-03-25","dy":"8","event":"DEVIATION: VISIT OCCURRED OUTSIDE VISIT WINDOW","domain":"DV","category":"deviation"},{"dtc":"2024-03-25","dy":"8","event":"VISIT: WEEK 1","domain":"SV","category":"visit"},{"dtc":"2024-04-01","dy":"15","event":"DEVIATION: MISSED DOSE","domain":"DV","category":"deviation"},{"dtc":"2024-04-06","dy":"20","event":"VISIT: WEEK 3","domain":"SV","category":"visit"},{"dtc":"2024-04-18","dy":"32","event":"DEVIATION: MISSED DOSE","domain":"DV","category":"deviation"},{"dtc":"2024-04-22","dy":"36","event":"DEVIATION: MISSED DOSE","domain":"DV","category":"deviation"},{"dtc":"2024-04-25","dy":"39","event":"DEVIATION: MISSED DOSE","domain":"DV","category":"deviation"},{"dtc":"2024-04-26","dy":"40","event":"VISIT: WEEK 6","domain":"SV","category":"visit"},{"dtc":"2024-04-29","dy":"43","event":"AE: Diarrhoea (MODERATE)","domain":"AE","category":"adverse_event"},{"dtc":"2024-05-18","dy":"62","event":"AE: Headache (MODERATE)","domain":"AE","category":"adverse_event"},{"dtc":"2024-05-18","dy":"62","event":"CM START: PARACETAMOL","domain":"CM","category":"concomitant_med"},{"dtc":"2024-05-24","dy":"68","event":"CM START: OMEPRAZOLE","domain":"CM","category":"concomitant_med"},{"dtc":"2024-06-10","dy":"85","event":"AE: Dry mouth (SEVERE) [SERIOUS]","domain":"AE","category":"adverse_event"},{"dtc":"2024-06-10","dy":"85","event":"DEVIATION: VISIT OCCURRED OUTSIDE VISIT WINDOW","domain":"DV","category":"deviation"},{"dtc":"2024-06-10","dy":"85","event":"DEVIATION: MISSED ASSESSMENT","domain":"DV","category":"deviation"},{"dtc":"2024-06-10","dy":"85","event":"VISIT: WEEK 12","domain":"SV","category":"visit"},{"dtc":"2024-06-10","dy":"85","event":"CM START: ARTIFICIAL SALIVA","domain":"CM","category":"concomitant_med"},{"dtc":"2024-07-09","dy":"114","event":"COMPLETED","domain":"DS","category":"milestone"}],"section_1_demographics":{"usubjid":"TERPSIS-MDD-201-SITE001-0028","subjid":"0028","siteid":"SITE001","age":"33","ageu":"YEARS","sex":"F","race":"WHITE","ethnicity":"NOT HISPANIC OR LATINO","country":"USA","arm":"Psilocybin 1mg (Control)","armcd":"PSI1","actarm":"Psilocybin 1mg (Control)","actarmcd":"PSI1","randomization_date":null,"informed_consent_date":"2024-02-28","reference_start_date":"2024-03-18","reference_end_date":"2024-07-09","screen_failure":false,"death_flag":null,"death_date":null,"subject_characteristics":[{"testcd":"ALCUSE","test":"Alcohol Use","orres":"NON-DRINKER","stresc":"NON-DRINKER","visit":null,"dtc":"2024-02-28"},{"testcd":"BMI","test":"Body Mass Index","orres":"36.4","stresc":"36.4","visit":null,"dtc":"2024-02-28"},{"testcd":"DURDIS","test":"Duration of Disease","orres":"48 months","stresc":"48","visit":null,"dtc":"2024-02-28"},{"testcd":"TOBPKYR","test":"Tobacco Pack-Years","orres":"23","stresc":"23","visit":null,"dtc":"2024-02-28"},{"testcd":"TOBUSE","test":"Tobacco Use","orres":"FORMER SMOKER","stresc":"FORMER SMOKER","visit":null,"dtc":"2024-02-28"}]},"section_2_medical_history":{"items":[{"seq":"1","term":"ASTHMA","decod":"ASTHMA","cat":"RESPIRATORY","scat":null,"presp":null,"occur":null,"status":null,"onset_dtc":"2020-02-29","end_dtc":"2022-08-01","visit":null}]},"section_3_inclusion_exclusion":{"criteria":[]},"section_4_trial_participation":{"visits":[{"visitnum":"1.0","visit":"SCREENING","start_dtc":"2024-01-30","end_dtc":"2024-01-30","updes":null},{"visitnum":"2.0","visit":"DOSING DAY","start_dtc":"2024-03-18","end_dtc":"2024-03-18","updes":null},{"visitnum":"3.0","visit":"DAY 2","start_dtc":"2024-03-19","end_dtc":"2024-03-19","updes":null},{"visitnum":"4.0","visit":"WEEK 1","start_dtc":"2024-03-25","end_dtc":"2024-03-25","updes":null},{"visitnum":"5.0","visit":"WEEK 3","start_dtc":"2024-04-06","end_dtc":"2024-04-06","updes":null},{"visitnum":"6.0","visit":"WEEK 6","start_dtc":"2024-04-26","end_dtc":"2024-04-26","updes":null},{"visitnum":"7.0","visit":"WEEK 12","start_dtc":"2024-06-10","end_dtc":"2024-06-10","updes":null}],"epochs":[{"seq":"1","etcd":"SCRN","element":"Screening","start_dtc":"2024-02-19","end_dtc":"2024-03-18","updes":null},{"seq":"2","etcd":"TRT","element":"Treatment/Observation","start_dtc":"2024-03-18","end_dtc":"2024-06-11","updes":null},{"seq":"3","etcd":"FU","element":"Follow-up","start_dtc":"2024-06-11","end_dtc":"2024-06-11","updes":null}],"visit_count":7},"section_5_concomitant_medications":{"medications":[{"seq":"1","trt":"PARACETAMOL","decod":"PARACETAMOL","cat":"CONCOMITANT","dose":"500","doseu":null,"dosef":"PRN","route":"ORAL","indication":"HEADACHE","start_dtc":"2024-05-18","end_dtc":"2024-06-16","ongoing":null,"visit":null},{"seq":"2","trt":"OMEPRAZOLE","decod":"OMEPRAZOLE","cat":"CONCOMITANT","dose":null,"doseu":null,"dosef":"QD","route":"ORAL","indication":null,"start_dtc":"2024-05-24","end_dtc":"2024-06-26","ongoing":null,"visit":null},{"seq":"3","trt":"ARTIFICIAL SALIVA","decod":"ARTIFICIAL SALIVA","cat":"CONCOMITANT","dose":null,"doseu":null,"dosef":"PRN","route":"ORAL","indication":"DRY MOUTH","start_dtc":"2024-06-10","end_dtc":"2024-06-17","ongoing":null,"visit":null}]},"section_6_exposure":{"exposure_as_administered":[{"seq":"1","trt":"PSILOCYBIN","dose":"1.0","doseu":null,"dosef":"ONCE","route":"ORAL","lot":null,"start_dtc":"2024-03-18","end_dtc":"2024-04-25","start_dy":"1","end_dy":"39","epoch":"TREATMENT","visit":null}],"exposure_as_collected":[{"seq":"1","trt":"PSILOCYBIN","dose":"1.0","doseu":null,"dosef":"ONCE","route":"ORAL","start_dtc":"2024-03-18","end_dtc":"2024-03-18","visit":"DOSING DAY"},{"seq":"2","trt":"PSILOCYBIN","dose":"1.0","doseu":null,"dosef":"ONCE","route":"ORAL","start_dtc":"2024-03-19","end_dtc":"2024-03-19","visit":"DOSING DAY"},{"seq":"3","trt":"PSILOCYBIN","dose":"1.0","doseu":null,"dosef":"ONCE","route":"ORAL","start_dtc":"2024-03-20","end_dtc":"2024-03-20","visit":"DOSING DAY"},{"seq":"4","trt":"PSILOCYBIN","dose":null,"doseu":null,"dosef":"ONCE","route":"ORAL","start_dtc":"2024-03-21","end_dtc":"2024-03-21","visit":"DOSING DAY"},{"seq":"5","trt":"PSILOCYBIN","dose":null,"doseu":null,"dosef":"ONCE","route":"ORAL","start_dtc":"2024-03-22","end_dtc":"2024-03-22","visit":"DAY 2"},{"seq":"6","trt":"PSILOCYBIN","dose":null,"doseu":null,"dosef":"ONCE","route":"ORAL","start_dtc":"2024-03-23","end_dtc":"2024-03-23","visit":"WEEK 1"},{"seq":"7","trt":"PSILOCYBIN","dose":"1.0","doseu":null,"dosef":"ONCE","route":"ORAL","start_dtc":"2024-03-24","end_dtc":"2024-03-24","visit":"WEEK 1"},{"seq":"8","trt":"PSILOCYBIN","dose":"1.0","doseu":null,"dosef":"ONCE","route":"ORAL","start_dtc":"2024-03-25","end_dtc":"2024-03-25","visit":"WEEK 1"},{"seq":"9","trt":"PSILOCYBIN","dose":"1.0","doseu":null,"dosef":"ONCE","route":"ORAL","start_dtc":"2024-03-26","end_dtc":"2024-03-26","visit":"WEEK 1"},{"seq":"10","trt":"PSILOCYBIN","dose":"1.0","doseu":null,"dosef":"ONCE","route":"ORAL","start_dtc":"2024-03-27","end_dtc":"2024-03-27","visit":"WEEK 1"},{"seq":"11","trt":"PSILOCYBIN","dose":"1.0","doseu":null,"dosef":"ONCE","route":"ORAL","start_dtc":"2024-03-28","end_dtc":"2024-03-28","visit":"WEEK 1"},{"seq":"12","trt":"PSILOCYBIN","dose":"1.0","doseu":null,"dosef":"ONCE","route":"ORAL","start_dtc":"2024-03-29","end_dtc":"2024-03-29","visit":null},{"seq":"13","trt":"PSILOCYBIN","dose":"1.0","doseu":null,"dosef":"ONCE","route":"ORAL","start_dtc":"2024-03-30","end_dtc":"2024-03-30","visit":null},{"seq":"14","trt":"PSILOCYBIN","dose":"1.0","doseu":null,"dosef":"ONCE","route":"ORAL","start_dtc":"2024-03-31","end_dtc":"2024-03-31","visit":null},{"seq":"15","trt":"PSILOCYBIN","dose":null,"doseu":null,"dosef":"ONCE","route":"ORAL","start_dtc":"2024-04-01","end_dtc":"2024-04-01","visit":null},{"seq":"16","trt":"PSILOCYBIN","dose":"1.0","doseu":null,"dosef":"ONCE","route":"ORAL","start_dtc":"2024-04-02","end_dtc":"2024-04-02","visit":null},{"seq":"17","trt":"PSILOCYBIN","dose":"1.0","doseu":null,"dosef":"ONCE","route":"ORAL","start_dtc":"2024-04-03","end_dtc":"2024-04-03","visit":null},{"seq":"18","trt":"PSILOCYBIN","dose":"1.0","doseu":null,"dosef":"ONCE","route":"ORAL","start_dtc":"2024-04-04","end_dtc":"2024-04-04","visit":null},{"seq":"19","trt":"PSILOCYBIN","dose":"1.0","doseu":null,"dosef":"ONCE","route":"ORAL","start_dtc":"2024-04-05","end_dtc":"2024-04-05","visit":"WEEK 3"},{"seq":"20","trt":"PSILOCYBIN","dose":"1.0","doseu":null,"dosef":"ONCE","route":"ORAL","start_dtc":"2024-04-06","end_dtc":"2024-04-06","visit":"WEEK 3"},{"seq":"21","trt":"PSILOCYBIN","dose":"1.0","doseu":null,"dosef":"ONCE","route":"ORAL","start_dtc":"2024-04-07","end_dtc":"2024-04-07","visit":"WEEK 3"},{"seq":"22","trt":"PSILOCYBIN","dose":"1.0","doseu":null,"dosef":"ONCE","route":"ORAL","start_dtc":"2024-04-08","end_dtc":"2024-04-08","visit":"WEEK 3"},{"seq":"23","trt":"PSILOCYBIN","dose":"1.0","doseu":null,"dosef":"ONCE","route":"ORAL","start_dtc":"2024-04-09","end_dtc":"2024-04-09","visit":"WEEK 3"},{"seq":"24","trt":"PSILOCYBIN","dose":"1.0","doseu":null,"dosef":"ONCE","route":"ORAL","start_dtc":"2024-04-10","end_dtc":"2024-04-10","visit":"WEEK 3"},{"seq":"25","trt":"PSILOCYBIN","dose":"1.0","doseu":null,"dosef":"ONCE","route":"ORAL","start_dtc":"2024-04-11","end_dtc":"2024-04-11","visit":"WEEK 3"},{"seq":"26","trt":"PSILOCYBIN","dose":"1.0","doseu":null,"dosef":"ONCE","route":"ORAL","start_dtc":"2024-04-12","end_dtc":"2024-04-12","visit":null},{"seq":"27","trt":"PSILOCYBIN","dose":"1.0","doseu":null,"dosef":"ONCE","route":"ORAL","start_dtc":"2024-04-13","end_dtc":"2024-04-13","visit":null},{"seq":"28","trt":"PSILOCYBIN","dose":"1.0","doseu":null,"dosef":"ONCE","route":"ORAL","start_dtc":"2024-04-14","end_dtc":"2024-04-14","visit":null},{"seq":"29","trt":"PSILOCYBIN","dose":"1.0","doseu":null,"dosef":"ONCE","route":"ORAL","start_dtc":"2024-04-15","end_dtc":"2024-04-15","visit":null},{"seq":"30","trt":"PSILOCYBIN","dose":"1.0","doseu":null,"dosef":"ONCE","route":"ORAL","start_dtc":"2024-04-16","end_dtc":"2024-04-16","visit":null},{"seq":"31","trt":"PSILOCYBIN","dose":"1.0","doseu":null,"dosef":"ONCE","route":"ORAL","start_dtc":"2024-04-17","end_dtc":"2024-04-17","visit":null},{"seq":"32","trt":"PSILOCYBIN","dose":null,"doseu":null,"dosef":"ONCE","route":"ORAL","start_dtc":"2024-04-18","end_dtc":"2024-04-18","visit":null},{"seq":"33","trt":"PSILOCYBIN","dose":"1.0","doseu":null,"dosef":"ONCE","route":"ORAL","start_dtc":"2024-04-19","end_dtc":"2024-04-19","visit":null},{"seq":"34","trt":"PSILOCYBIN","dose":"1.0","doseu":null,"dosef":"ONCE","route":"ORAL","start_dtc":"2024-04-20","end_dtc":"2024-04-20","visit":null},{"seq":"35","trt":"PSILOCYBIN","dose":"1.0","doseu":null,"dosef":"ONCE","route":"ORAL","start_dtc":"2024-04-21","end_dtc":"2024-04-21","visit":null},{"seq":"36","trt":"PSILOCYBIN","dose":null,"doseu":null,"dosef":"ONCE","route":"ORAL","start_dtc":"2024-04-22","end_dtc":"2024-04-22","visit":null},{"seq":"37","trt":"PSILOCYBIN","dose":"1.0","doseu":null,"dosef":"ONCE","route":"ORAL","start_dtc":"2024-04-23","end_dtc":"2024-04-23","visit":null},{"seq":"38","trt":"PSILOCYBIN","dose":"1.0","doseu":null,"dosef":"ONCE","route":"ORAL","start_dtc":"2024-04-24","end_dtc":"2024-04-24","visit":null},{"seq":"39","trt":"PSILOCYBIN","dose":null,"doseu":null,"dosef":"ONCE","route":"ORAL","start_dtc":"2024-04-25","end_dtc":"2024-04-25","visit":null}]},"section_7_adverse_events":{"summary":{"total_aes":3,"serious_aes":1,"fatal_aes":0,"by_severity":{"MODERATE":2,"SEVERE":1},"by_soc":{"Gastrointestinal disorders":2,"Nervous system disorders":1}},"events":[{"seq":"1","term":"DIARRHOEA","decod":"Diarrhoea","llt":"Diarrhoea","hlt":"Diarrhoea (excl infective)","hlgt":"Gastrointestinal motility and defaecation conditions","soc":"Gastrointestinal disorders","bodsys":"Gastrointestinal disorders","severity":"MODERATE","serious":"N","causality":"UNLIKELY RELATED","action_taken":"DOSE NOT CHANGED","outcome":"RECOVERED/RESOLVED","fatal":"N","hospitalization":"N","life_threatening":"N","onset_dtc":"2024-04-29","end_dtc":"2024-05-09","onset_dy":"43","end_dy":"53","duration":null,"epoch":"TREATMENT","visit":null,"supplemental":{}},{"seq":"2","term":"HEADACHE","decod":"Headache","llt":"Headache","hlt":"Headaches NEC","hlgt":"Headaches","soc":"Nervous system disorders","bodsys":"Nervous system disorders","severity":"MODERATE","serious":"N","causality":"PROBABLY RELATED","action_taken":"DOSE NOT CHANGED","outcome":"RECOVERED/RESOLVED","fatal":"N","hospitalization":"N","life_threatening":"N","onset_dtc":"2024-05-18","end_dtc":"2024-05-21","onset_dy":"62","end_dy":"65","duration":null,"epoch":"TREATMENT","visit":null,"supplemental":{}},{"seq":"3","term":"DRY MOUTH","decod":"Dry mouth","llt":"Dry mouth","hlt":"Salivary gland conditions","hlgt":"Oral soft tissue conditions","soc":"Gastrointestinal disorders","bodsys":"Gastrointestinal disorders","severity":"SEVERE","serious":"Y","causality":"RELATED","action_taken":"DRUG INTERRUPTED","outcome":"RECOVERING/RESOLVING","fatal":"N","hospitalization":"Y","life_threatening":"N","onset_dtc":"2024-06-10","end_dtc":"2024-07-06","onset_dy":"85","end_dy":"111","duration":null,"epoch":"TREATMENT","visit":null,"supplemental":{}}]},"section_8_laboratory_results":{"summary":{"total_records":35,"abnormal_count":5,"abnormal_pct":14.3},"shift_summary":[{"testcd":"ALT","baseline_value":22.72,"baseline_nrind":"NORMAL","worst_post_baseline_value":23.58,"worst_post_baseline_nrind":"NORMAL","worst_visit":"WEEK 3"},{"testcd":"AST","baseline_value":30.15,"baseline_nrind":"NORMAL","worst_post_baseline_value":32.36,"worst_post_baseline_nrind":"NORMAL","worst_visit":"WEEK 3"},{"testcd":"CREAT","baseline_value":31.94,"baseline_nrind":"LOW","worst_post_baseline_value":32.34,"worst_post_baseline_nrind":"LOW","worst_visit":"WEEK 3"},{"testcd":"GLUC","baseline_value":4.93,"baseline_nrind":"NORMAL","worst_post_baseline_value":5.15,"worst_post_baseline_nrind":"NORMAL","worst_visit":"WEEK 3"},{"testcd":"HGB","baseline_value":139.36,"baseline_nrind":"NORMAL","worst_post_baseline_value":136.98,"worst_post_baseline_nrind":"NORMAL","worst_visit":"WEEK 12"},{"testcd":"PLAT","baseline_value":178.39,"baseline_nrind":"NORMAL","worst_post_baseline_value":192.45,"worst_post_baseline_nrind":"NORMAL","worst_visit":"WEEK 12"},{"testcd":"WBC","baseline_value":6.7,"baseline_nrind":"NORMAL","worst_post_baseline_value":7.26,"worst_post_baseline_nrind":"NORMAL","worst_visit":"DOSING DAY"}],"results":[{"seq":"1","testcd":"ALT","test":"Alanine Aminotransferase","cat":"CHEMISTRY","orres":"22.72","orresu":"U/L","stresc":"22.72","stresn":"22.72","stresu":"U/L","stnrlo":"7","stnrhi":"56","nrind":"NORMAL","fast":null,"dtc":"2024-01-30","dy":"-48","visit":"SCREENING","visitnum":"1.0","epoch":"SCREENING","spec":null,"method":null},{"seq":"2","testcd":"AST","test":"Aspartate Aminotransferase","cat":"CHEMISTRY","orres":"30.15","orresu":"U/L","stresc":"30.15","stresn":"30.15","stresu":"U/L","stnrlo":"10","stnrhi":"40","nrind":"NORMAL","fast":null,"dtc":"2024-01-30","dy":"-48","visit":"SCREENING","visitnum":"1.0","epoch":"SCREENING","spec":null,"method":null},{"seq":"3","testcd":"CREAT","test":"Creatinine","cat":"CHEMISTRY","orres":"31.94","orresu":"umol/L","stresc":"31.94","stresn":"31.94","stresu":"umol/L","stnrlo":"44","stnrhi":"80","nrind":"LOW","fast":null,"dtc":"2024-01-30","dy":"-48","visit":"SCREENING","visitnum":"1.0","epoch":"SCREENING","spec":null,"method":null},{"seq":"4","testcd":"GLUC","test":"Glucose","cat":"CHEMISTRY","orres":null,"orresu":null,"stresc":null,"stresn":null,"stresu":null,"stnrlo":null,"stnrhi":null,"nrind":null,"fast":null,"dtc":"2024-01-30","dy":"-48","visit":"SCREENING","visitnum":"1.0","epoch":"SCREENING","spec":null,"method":null},{"seq":"5","testcd":"HGB","test":"Hemoglobin","cat":"HEMATOLOGY","orres":"139.36","orresu":"g/L","stresc":"139.36","stresn":"139.36","stresu":"g/L","stnrlo":"120","stnrhi":"155","nrind":"NORMAL","fast":null,"dtc":"2024-01-30","dy":"-48","visit":"SCREENING","visitnum":"1.0","epoch":"SCREENING","spec":null,"method":null},{"seq":"6","testcd":"PLAT","test":"Platelets","cat":"HEMATOLOGY","orres":"178.39","orresu":"10^9/L","stresc":"178.39","stresn":"178.39","stresu":"10^9/L","stnrlo":"150","stnrhi":"400","nrind":"NORMAL","fast":null,"dtc":"2024-01-30","dy":"-48","visit":"SCREENING","visitnum":"1.0","epoch":"SCREENING","spec":null,"method":null},{"seq":"7","testcd":"WBC","test":"Leukocytes","cat":"HEMATOLOGY","orres":"6.7","orresu":"10^9/L","stresc":"6.7","stresn":"6.7","stresu":"10^9/L","stnrlo":"4.0","stnrhi":"11.0","nrind":"NORMAL","fast":null,"dtc":"2024-01-30","dy":"-48","visit":"SCREENING","visitnum":"1.0","epoch":"SCREENING","spec":null,"method":null},{"seq":"8","testcd":"ALT","test":"Alanine Aminotransferase","cat":"CHEMISTRY","orres":"23.54","orresu":"U/L","stresc":"23.54","stresn":"23.54","stresu":"U/L","stnrlo":"7","stnrhi":"56","nrind":"NORMAL","fast":null,"dtc":"2024-03-18","dy":"1","visit":"DOSING DAY","visitnum":"2.0","epoch":"TREATMENT","spec":null,"method":null},{"seq":"9","testcd":"AST","test":"Aspartate Aminotransferase","cat":"CHEMISTRY","orres":"29.22","orresu":"U/L","stresc":"29.22","stresn":"29.22","stresu":"U/L","stnrlo":"10","stnrhi":"40","nrind":"NORMAL","fast":null,"dtc":"2024-03-18","dy":"1","visit":"DOSING DAY","visitnum":"2.0","epoch":"TREATMENT","spec":null,"method":null},{"seq":"10","testcd":"CREAT","test":"Creatinine","cat":"CHEMISTRY","orres":"31.51","orresu":"umol/L","stresc":"31.51","stresn":"31.51","stresu":"umol/L","stnrlo":"44","stnrhi":"80","nrind":"LOW","fast":null,"dtc":"2024-03-18","dy":"1","visit":"DOSING DAY","visitnum":"2.0","epoch":"TREATMENT","spec":null,"method":null},{"seq":"11","testcd":"GLUC","test":"Glucose","cat":"CHEMISTRY","orres":"4.93","orresu":"mmol/L","stresc":"4.93","stresn":"4.93","stresu":"mmol/L","stnrlo":"3.9","stnrhi":"5.6","nrind":"NORMAL","fast":null,"dtc":"2024-03-18","dy":"1","visit":"DOSING DAY","visitnum":"2.0","epoch":"TREATMENT","spec":null,"method":null},{"seq":"12","testcd":"HGB","test":"Hemoglobin","cat":"HEMATOLOGY","orres":"137.64","orresu":"g/L","stresc":"137.64","stresn":"137.64","stresu":"g/L","stnrlo":"120","stnrhi":"155","nrind":"NORMAL","fast":null,"dtc":"2024-03-18","dy":"1","visit":"DOSING DAY","visitnum":"2.0","epoch":"TREATMENT","spec":null,"method":null},{"seq":"13","testcd":"PLAT","test":"Platelets","cat":"HEMATOLOGY","orres":null,"orresu":null,"stresc":null,"stresn":null,"stresu":null,"stnrlo":null,"stnrhi":null,"nrind":null,"fast":null,"dtc":"2024-03-18","dy":"1","visit":"DOSING DAY","visitnum":"2.0","epoch":"TREATMENT","spec":null,"method":null},{"seq":"14","testcd":"WBC","test":"Leukocytes","cat":"HEMATOLOGY","orres":"7.26","orresu":"10^9/L","stresc":"7.26","stresn":"7.26","stresu":"10^9/L","stnrlo":"4.0","stnrhi":"11.0","nrind":"NORMAL","fast":null,"dtc":"2024-03-18","dy":"1","visit":"DOSING DAY","visitnum":"2.0","epoch":"TREATMENT","spec":null,"method":null},{"seq":"15","testcd":"ALT","test":"Alanine Aminotransferase","cat":"CHEMISTRY","orres":"22.03","orresu":"U/L","stresc":"22.03","stresn":"22.03","stresu":"U/L","stnrlo":"7","stnrhi":"56","nrind":"NORMAL","fast":null,"dtc":"2024-03-19","dy":"2","visit":"DAY 2","visitnum":"3.0","epoch":"FOLLOW-UP","spec":null,"method":null},{"seq":"16","testcd":"AST","test":"Aspartate Aminotransferase","cat":"CHEMISTRY","orres":"31.61","orresu":"U/L","stresc":"31.61","stresn":"31.61","stresu":"U/L","stnrlo":"10","stnrhi":"40","nrind":"NORMAL","fast":null,"dtc":"2024-03-19","dy":"2","visit":"DAY 2","visitnum":"3.0","epoch":"FOLLOW-UP","spec":null,"method":null},{"seq":"17","testcd":"CREAT","test":"Creatinine","cat":"CHEMISTRY","orres":"31.85","orresu":"umol/L","stresc":"31.85","stresn":"31.85","stresu":"umol/L","stnrlo":"44","stnrhi":"80","nrind":"LOW","fast":null,"dtc":"2024-03-19","dy":"2","visit":"DAY 2","visitnum":"3.0","epoch":"FOLLOW-UP","spec":null,"method":null},{"seq":"18","testcd":"GLUC","test":"Glucose","cat":"CHEMISTRY","orres":"4.95","orresu":"mmol/L","stresc":"4.95","stresn":"4.95","stresu":"mmol/L","stnrlo":"3.9","stnrhi":"5.6","nrind":"NORMAL","fast":null,"dtc":"2024-03-19","dy":"2","visit":"DAY 2","visitnum":"3.0","epoch":"FOLLOW-UP","spec":null,"method":null},{"seq":"19","testcd":"HGB","test":"Hemoglobin","cat":"HEMATOLOGY","orres":"137.31","orresu":"g/L","stresc":"137.31","stresn":"137.31","stresu":"g/L","stnrlo":"120","stnrhi":"155","nrind":"NORMAL","fast":null,"dtc":"2024-03-19","dy":"2","visit":"DAY 2","visitnum":"3.0","epoch":"FOLLOW-UP","spec":null,"method":null},{"seq":"20","testcd":"PLAT","test":"Platelets","cat":"HEMATOLOGY","orres":"177.88","orresu":"10^9/L","stresc":"177.88","stresn":"177.88","stresu":"10^9/L","stnrlo":"150","stnrhi":"400","nrind":"NORMAL","fast":null,"dtc":"2024-03-19","dy":"2","visit":"DAY 2","visitnum":"3.0","epoch":"FOLLOW-UP","spec":null,"method":null},{"seq":"21","testcd":"WBC","test":"Leukocytes","cat":"HEMATOLOGY","orres":"6.09","orresu":"10^9/L","stresc":"6.09","stresn":"6.09","stresu":"10^9/L","stnrlo":"4.0","stnrhi":"11.0","nrind":"NORMAL","fast":null,"dtc":"2024-03-19","dy":"2","visit":"DAY 2","visitnum":"3.0","epoch":"FOLLOW-UP","spec":null,"method":null},{"seq":"22","testcd":"ALT","test":"Alanine Aminotransferase","cat":"CHEMISTRY","orres":"23.58","orresu":"U/L","stresc":"23.58","stresn":"23.58","stresu":"U/L","stnrlo":"7","stnrhi":"56","nrind":"NORMAL","fast":null,"dtc":"2024-04-06","dy":"20","visit":"WEEK 3","visitnum":"5.0","epoch":"FOLLOW-UP","spec":null,"method":null},{"seq":"23","testcd":"AST","test":"Aspartate Aminotransferase","cat":"CHEMISTRY","orres":"32.36","orresu":"U/L","stresc":"32.36","stresn":"32.36","stresu":"U/L","stnrlo":"10","stnrhi":"40","nrind":"NORMAL","fast":null,"dtc":"2024-04-06","dy":"20","visit":"WEEK 3","visitnum":"5.0","epoch":"FOLLOW-UP","spec":null,"method":null},{"seq":"24","testcd":"CREAT","test":"Creatinine","cat":"CHEMISTRY","orres":"32.34","orresu":"umol/L","stresc":"32.34","stresn":"32.34","stresu":"umol/L","stnrlo":"44","stnrhi":"80","nrind":"LOW","fast":null,"dtc":"2024-04-06","dy":"20","visit":"WEEK 3","visitnum":"5.0","epoch":"FOLLOW-UP","spec":null,"method":null},{"seq":"25","testcd":"GLUC","test":"Glucose","cat":"CHEMISTRY","orres":"5.15","orresu":"mmol/L","stresc":"5.15","stresn":"5.15","stresu":"mmol/L","stnrlo":"3.9","stnrhi":"5.6","nrind":"NORMAL","fast":null,"dtc":"2024-04-06","dy":"20","visit":"WEEK 3","visitnum":"5.0","epoch":"FOLLOW-UP","spec":null,"method":null},{"seq":"26","testcd":"HGB","test":"Hemoglobin","cat":"HEMATOLOGY","orres":"137.67","orresu":"g/L","stresc":"137.67","stresn":"137.67","stresu":"g/L","stnrlo":"120","stnrhi":"155","nrind":"NORMAL","fast":null,"dtc":"2024-04-06","dy":"20","visit":"WEEK 3","visitnum":"5.0","epoch":"FOLLOW-UP","spec":null,"method":null},{"seq":"27","testcd":"PLAT","test":"Platelets","cat":"HEMATOLOGY","orres":"186.72","orresu":"10^9/L","stresc":"186.72","stresn":"186.72","stresu":"10^9/L","stnrlo":"150","stnrhi":"400","nrind":"NORMAL","fast":null,"dtc":"2024-04-06","dy":"20","visit":"WEEK 3","visitnum":"5.0","epoch":"FOLLOW-UP","spec":null,"method":null},{"seq":"28","testcd":"WBC","test":"Leukocytes","cat":"HEMATOLOGY","orres":null,"orresu":null,"stresc":null,"stresn":null,"stresu":null,"stnrlo":null,"stnrhi":null,"nrind":null,"fast":null,"dtc":"2024-04-06","dy":"20","visit":"WEEK 3","visitnum":"5.0","epoch":"FOLLOW-UP","spec":null,"method":null},{"seq":"29","testcd":"ALT","test":"Alanine Aminotransferase","cat":"CHEMISTRY","orres":"21.25","orresu":"U/L","stresc":"21.25","stresn":"21.25","stresu":"U/L","stnrlo":"7","stnrhi":"56","nrind":"NORMAL","fast":null,"dtc":"2024-06-10","dy":"85","visit":"WEEK 12","visitnum":"7.0","epoch":"FOLLOW-UP","spec":null,"method":null},{"seq":"30","testcd":"AST","test":"Aspartate Aminotransferase","cat":"CHEMISTRY","orres":"32.16","orresu":"U/L","stresc":"32.16","stresn":"32.16","stresu":"U/L","stnrlo":"10","stnrhi":"40","nrind":"NORMAL","fast":null,"dtc":"2024-06-10","dy":"85","visit":"WEEK 12","visitnum":"7.0","epoch":"FOLLOW-UP","spec":null,"method":null},{"seq":"31","testcd":"CREAT","test":"Creatinine","cat":"CHEMISTRY","orres":"31.76","orresu":"umol/L","stresc":"31.76","stresn":"31.76","stresu":"umol/L","stnrlo":"44","stnrhi":"80","nrind":"LOW","fast":null,"dtc":"2024-06-10","dy":"85","visit":"WEEK 12","visitnum":"7.0","epoch":"FOLLOW-UP","spec":null,"method":null},{"seq":"32","testcd":"GLUC","test":"Glucose","cat":"CHEMISTRY","orres":"5.09","orresu":"mmol/L","stresc":"5.09","stresn":"5.09","stresu":"mmol/L","stnrlo":"3.9","stnrhi":"5.6","nrind":"NORMAL","fast":null,"dtc":"2024-06-10","dy":"85","visit":"WEEK 12","visitnum":"7.0","epoch":"FOLLOW-UP","spec":null,"method":null},{"seq":"33","testcd":"HGB","test":"Hemoglobin","cat":"HEMATOLOGY","orres":"136.98","orresu":"g/L","stresc":"136.98","stresn":"136.98","stresu":"g/L","stnrlo":"120","stnrhi":"155","nrind":"NORMAL","fast":null,"dtc":"2024-06-10","dy":"85","visit":"WEEK 12","visitnum":"7.0","epoch":"FOLLOW-UP","spec":null,"method":null},{"seq":"34","testcd":"PLAT","test":"Platelets","cat":"HEMATOLOGY","orres":"192.45","orresu":"10^9/L","stresc":"192.45","stresn":"192.45","stresu":"10^9/L","stnrlo":"150","stnrhi":"400","nrind":"NORMAL","fast":null,"dtc":"2024-06-10","dy":"85","visit":"WEEK 12","visitnum":"7.0","epoch":"FOLLOW-UP","spec":null,"method":null},{"seq":"35","testcd":"WBC","test":"Leukocytes","cat":"HEMATOLOGY","orres":"6.7","orresu":"10^9/L","stresc":"6.7","stresn":"6.7","stresu":"10^9/L","stnrlo":"4.0","stnrhi":"11.0","nrind":"NORMAL","fast":null,"dtc":"2024-06-10","dy":"85","visit":"WEEK 12","visitnum":"7.0","epoch":"FOLLOW-UP","spec":null,"method":null}]},"section_9_vital_signs":{"summary":{"total_records":48},"trends":{"BMI":[{"visit":"SCREENING","visitnum":"1.0","dtc":"2024-01-30","value":"36.4","unit":"kg/m2"},{"visit":"DOSING DAY","visitnum":"2.0","dtc":"2024-03-18","value":"35.6","unit":"kg/m2"},{"visit":"DAY 2","visitnum":"3.0","dtc":"2024-03-19","value":"35.0","unit":"kg/m2"},{"visit":"WEEK 1","visitnum":"4.0","dtc":"2024-03-25","value":"34.7","unit":"kg/m2"},{"visit":"WEEK 6","visitnum":"6.0","dtc":"2024-04-26","value":"35.4","unit":"kg/m2"},{"visit":"WEEK 12","visitnum":"7.0","dtc":"2024-06-10","value":"35.8","unit":"kg/m2"}],"DIABP":[{"visit":"SCREENING","visitnum":"1.0","dtc":"2024-01-30","value":"87.1","unit":"mmHg"},{"visit":"DOSING DAY","visitnum":"2.0","dtc":"2024-03-18","value":"86.8","unit":"mmHg"},{"visit":"DAY 2","visitnum":"3.0","dtc":"2024-03-19","value":"86.3","unit":"mmHg"},{"visit":"WEEK 1","visitnum":"4.0","dtc":"2024-03-25","value":"85.8","unit":"mmHg"},{"visit":"WEEK 6","visitnum":"6.0","dtc":"2024-04-26","value":"84.8","unit":"mmHg"},{"visit":"WEEK 12","visitnum":"7.0","dtc":"2024-06-10","value":"88.1","unit":"mmHg"}],"HEIGHT":[{"visit":"SCREENING","visitnum":"1.0","dtc":"2024-01-30","value":"150.5","unit":"cm"},{"visit":"DOSING DAY","visitnum":"2.0","dtc":"2024-03-18","value":"151.0","unit":"cm"},{"visit":"DAY 2","visitnum":"3.0","dtc":"2024-03-19","value":"150.5","unit":"cm"},{"visit":"WEEK 1","visitnum":"4.0","dtc":"2024-03-25","value":"150.4","unit":"cm"},{"visit":"WEEK 6","visitnum":"6.0","dtc":"2024-04-26","value":"150.3","unit":"cm"},{"visit":"WEEK 12","visitnum":"7.0","dtc":"2024-06-10","value":"149.5","unit":"cm"}],"PULSE":[{"visit":"SCREENING","visitnum":"1.0","dtc":"2024-01-30","value":"58.5","unit":"beats/min"},{"visit":"DOSING DAY","visitnum":"2.0","dtc":"2024-03-18","value":"60.3","unit":"beats/min"},{"visit":"DAY 2","visitnum":"3.0","dtc":"2024-03-19","value":"62.0","unit":"beats/min"},{"visit":"WEEK 1","visitnum":"4.0","dtc":"2024-03-25","value":"61.0","unit":"beats/min"},{"visit":"WEEK 6","visitnum":"6.0","dtc":"2024-04-26","value":"71.2","unit":"beats/min"}],"RESP":[{"visit":"SCREENING","visitnum":"1.0","dtc":"2024-01-30","value":"15.9","unit":"breaths/min"},{"visit":"DOSING DAY","visitnum":"2.0","dtc":"2024-03-18","value":"16.6","unit":"breaths/min"},{"visit":"DAY 2","visitnum":"3.0","dtc":"2024-03-19","value":"15.0","unit":"breaths/min"},{"visit":"WEEK 1","visitnum":"4.0","dtc":"2024-03-25","value":"16.3","unit":"breaths/min"},{"visit":"WEEK 6","visitnum":"6.0","dtc":"2024-04-26","value":"15.7","unit":"breaths/min"}],"SYSBP":[{"visit":"SCREENING","visitnum":"1.0","dtc":"2024-01-30","value":"118.2","unit":"mmHg"},{"visit":"DOSING DAY","visitnum":"2.0","dtc":"2024-03-18","value":"119.3","unit":"mmHg"},{"visit":"DAY 2","visitnum":"3.0","dtc":"2024-03-19","value":"120.4","unit":"mmHg"},{"visit":"WEEK 1","visitnum":"4.0","dtc":"2024-03-25","value":"120.1","unit":"mmHg"},{"visit":"WEEK 6","visitnum":"6.0","dtc":"2024-04-26","value":"117.6","unit":"mmHg"},{"visit":"WEEK 12","visitnum":"7.0","dtc":"2024-06-10","value":"121.6","unit":"mmHg"}],"TEMP":[{"visit":"SCREENING","visitnum":"1.0","dtc":"2024-01-30","value":"36.6","unit":"C"},{"visit":"DOSING DAY","visitnum":"2.0","dtc":"2024-03-18","value":"36.5","unit":"C"},{"visit":"DAY 2","visitnum":"3.0","dtc":"2024-03-19","value":"36.9","unit":"C"},{"visit":"WEEK 1","visitnum":"4.0","dtc":"2024-03-25","value":"36.5","unit":"C"},{"visit":"WEEK 6","visitnum":"6.0","dtc":"2024-04-26","value":"36.7","unit":"C"},{"visit":"WEEK 12","visitnum":"7.0","dtc":"2024-06-10","value":"36.5","unit":"C"}],"WEIGHT":[{"visit":"SCREENING","visitnum":"1.0","dtc":"2024-01-30","value":"82.5","unit":"kg"},{"visit":"DOSING DAY","visitnum":"2.0","dtc":"2024-03-18","value":"81.2","unit":"kg"},{"visit":"DAY 2","visitnum":"3.0","dtc":"2024-03-19","value":"79.3","unit":"kg"},{"visit":"WEEK 1","visitnum":"4.0","dtc":"2024-03-25","value":"78.6","unit":"kg"},{"visit":"WEEK 6","visitnum":"6.0","dtc":"2024-04-26","value":"80.0","unit":"kg"},{"visit":"WEEK 12","visitnum":"7.0","dtc":"2024-06-10","value":"80.1","unit":"kg"}]},"results":[{"seq":"1","testcd":"BMI","test":"BMI","cat":null,"orres":"36.4","orresu":"kg/m2","stresc":"36.4","stresn":"36.4","stresu":"kg/m2","stnrlo":null,"stnrhi":null,"nrind":null,"pos":null,"loc":null,"dtc":"2024-01-30","dy":"-48","visit":"SCREENING","visitnum":"1.0","epoch":"SCREENING"},{"seq":"2","testcd":"DIABP","test":"Diastolic Blood Pressure","cat":null,"orres":"87.1","orresu":"mmHg","stresc":"87.1","stresn":"87.1","stresu":"mmHg","stnrlo":null,"stnrhi":null,"nrind":null,"pos":null,"loc":null,"dtc":"2024-01-30","dy":"-48","visit":"SCREENING","visitnum":"1.0","epoch":"SCREENING"},{"seq":"3","testcd":"HEIGHT","test":"Height","cat":null,"orres":"150.5","orresu":"cm","stresc":"150.5","stresn":"150.5","stresu":"cm","stnrlo":null,"stnrhi":null,"nrind":null,"pos":null,"loc":null,"dtc":"2024-01-30","dy":"-48","visit":"SCREENING","visitnum":"1.0","epoch":"SCREENING"},{"seq":"4","testcd":"PULSE","test":"Pulse Rate","cat":null,"orres":"58.5","orresu":"beats/min","stresc":"58.5","stresn":"58.5","stresu":"beats/min","stnrlo":null,"stnrhi":null,"nrind":null,"pos":null,"loc":null,"dtc":"2024-01-30","dy":"-48","visit":"SCREENING","visitnum":"1.0","epoch":"SCREENING"},{"seq":"5","testcd":"RESP","test":"Respiratory Rate","cat":null,"orres":"15.9","orresu":"breaths/min","stresc":"15.9","stresn":"15.9","stresu":"breaths/min","stnrlo":null,"stnrhi":null,"nrind":null,"pos":null,"loc":null,"dtc":"2024-01-30","dy":"-48","visit":"SCREENING","visitnum":"1.0","epoch":"SCREENING"},{"seq":"6","testcd":"SYSBP","test":"Systolic Blood Pressure","cat":null,"orres":"118.2","orresu":"mmHg","stresc":"118.2","stresn":"118.2","stresu":"mmHg","stnrlo":null,"stnrhi":null,"nrind":null,"pos":null,"loc":null,"dtc":"2024-01-30","dy":"-48","visit":"SCREENING","visitnum":"1.0","epoch":"SCREENING"},{"seq":"7","testcd":"TEMP","test":"Temperature","cat":null,"orres":"36.6","orresu":"C","stresc":"36.6","stresn":"36.6","stresu":"C","stnrlo":null,"stnrhi":null,"nrind":null,"pos":null,"loc":null,"dtc":"2024-01-30","dy":"-48","visit":"SCREENING","visitnum":"1.0","epoch":"SCREENING"},{"seq":"8","testcd":"WEIGHT","test":"Weight","cat":null,"orres":"82.5","orresu":"kg","stresc":"82.5","stresn":"82.5","stresu":"kg","stnrlo":null,"stnrhi":null,"nrind":null,"pos":null,"loc":null,"dtc":"2024-01-30","dy":"-48","visit":"SCREENING","visitnum":"1.0","epoch":"SCREENING"},{"seq":"9","testcd":"BMI","test":"BMI","cat":null,"orres":"35.6","orresu":"kg/m2","stresc":"35.6","stresn":"35.6","stresu":"kg/m2","stnrlo":null,"stnrhi":null,"nrind":null,"pos":null,"loc":null,"dtc":"2024-03-18","dy":"1","visit":"DOSING DAY","visitnum":"2.0","epoch":"TREATMENT"},{"seq":"10","testcd":"DIABP","test":"Diastolic Blood Pressure","cat":null,"orres":"86.8","orresu":"mmHg","stresc":"86.8","stresn":"86.8","stresu":"mmHg","stnrlo":null,"stnrhi":null,"nrind":null,"pos":null,"loc":null,"dtc":"2024-03-18","dy":"1","visit":"DOSING DAY","visitnum":"2.0","epoch":"TREATMENT"},{"seq":"11","testcd":"HEIGHT","test":"Height","cat":null,"orres":"151.0","orresu":"cm","stresc":"151.0","stresn":"151.0","stresu":"cm","stnrlo":null,"stnrhi":null,"nrind":null,"pos":null,"loc":null,"dtc":"2024-03-18","dy":"1","visit":"DOSING DAY","visitnum":"2.0","epoch":"TREATMENT"},{"seq":"12","testcd":"PULSE","test":"Pulse Rate","cat":null,"orres":"60.3","orresu":"beats/min","stresc":"60.3","stresn":"60.3","stresu":"beats/min","stnrlo":null,"stnrhi":null,"nrind":null,"pos":null,"loc":null,"dtc":"2024-03-18","dy":"1","visit":"DOSING DAY","visitnum":"2.0","epoch":"TREATMENT"},{"seq":"13","testcd":"RESP","test":"Respiratory Rate","cat":null,"orres":"16.6","orresu":"breaths/min","stresc":"16.6","stresn":"16.6","stresu":"breaths/min","stnrlo":null,"stnrhi":null,"nrind":null,"pos":null,"loc":null,"dtc":"2024-03-18","dy":"1","visit":"DOSING DAY","visitnum":"2.0","epoch":"TREATMENT"},{"seq":"14","testcd":"SYSBP","test":"Systolic Blood Pressure","cat":null,"orres":"119.3","orresu":"mmHg","stresc":"119.3","stresn":"119.3","stresu":"mmHg","stnrlo":null,"stnrhi":null,"nrind":null,"pos":null,"loc":null,"dtc":"2024-03-18","dy":"1","visit":"DOSING DAY","visitnum":"2.0","epoch":"TREATMENT"},{"seq":"15","testcd":"TEMP","test":"Temperature","cat":null,"orres":"36.5","orresu":"C","stresc":"36.5","stresn":"36.5","stresu":"C","stnrlo":null,"stnrhi":null,"nrind":null,"pos":null,"loc":null,"dtc":"2024-03-18","dy":"1","visit":"DOSING DAY","visitnum":"2.0","epoch":"TREATMENT"},{"seq":"16","testcd":"WEIGHT","test":"Weight","cat":null,"orres":"81.2","orresu":"kg","stresc":"81.2","stresn":"81.2","stresu":"kg","stnrlo":null,"stnrhi":null,"nrind":null,"pos":null,"loc":null,"dtc":"2024-03-18","dy":"1","visit":"DOSING DAY","visitnum":"2.0","epoch":"TREATMENT"},{"seq":"17","testcd":"BMI","test":"BMI","cat":null,"orres":"35.0","orresu":"kg/m2","stresc":"35.0","stresn":"35.0","stresu":"kg/m2","stnrlo":null,"stnrhi":null,"nrind":null,"pos":null,"loc":null,"dtc":"2024-03-19","dy":"2","visit":"DAY 2","visitnum":"3.0","epoch":"FOLLOW-UP"},{"seq":"18","testcd":"DIABP","test":"Diastolic Blood Pressure","cat":null,"orres":"86.3","orresu":"mmHg","stresc":"86.3","stresn":"86.3","stresu":"mmHg","stnrlo":null,"stnrhi":null,"nrind":null,"pos":null,"loc":null,"dtc":"2024-03-19","dy":"2","visit":"DAY 2","visitnum":"3.0","epoch":"FOLLOW-UP"},{"seq":"19","testcd":"HEIGHT","test":"Height","cat":null,"orres":"150.5","orresu":"cm","stresc":"150.5","stresn":"150.5","stresu":"cm","stnrlo":null,"stnrhi":null,"nrind":null,"pos":null,"loc":null,"dtc":"2024-03-19","dy":"2","visit":"DAY 2","visitnum":"3.0","epoch":"FOLLOW-UP"},{"seq":"20","testcd":"PULSE","test":"Pulse Rate","cat":null,"orres":"62.0","orresu":"beats/min","stresc":"62.0","stresn":"62.0","stresu":"beats/min","stnrlo":null,"stnrhi":null,"nrind":null,"pos":null,"loc":null,"dtc":"2024-03-19","dy":"2","visit":"DAY 2","visitnum":"3.0","epoch":"FOLLOW-UP"},{"seq":"21","testcd":"RESP","test":"Respiratory Rate","cat":null,"orres":"15.0","orresu":"breaths/min","stresc":"15.0","stresn":"15.0","stresu":"breaths/min","stnrlo":null,"stnrhi":null,"nrind":null,"pos":null,"loc":null,"dtc":"2024-03-19","dy":"2","visit":"DAY 2","visitnum":"3.0","epoch":"FOLLOW-UP"},{"seq":"22","testcd":"SYSBP","test":"Systolic Blood Pressure","cat":null,"orres":"120.4","orresu":"mmHg","stresc":"120.4","stresn":"120.4","stresu":"mmHg","stnrlo":null,"stnrhi":null,"nrind":null,"pos":null,"loc":null,"dtc":"2024-03-19","dy":"2","visit":"DAY 2","visitnum":"3.0","epoch":"FOLLOW-UP"},{"seq":"23","testcd":"TEMP","test":"Temperature","cat":null,"orres":"36.9","orresu":"C","stresc":"36.9","stresn":"36.9","stresu":"C","stnrlo":null,"stnrhi":null,"nrind":null,"pos":null,"loc":null,"dtc":"2024-03-19","dy":"2","visit":"DAY 2","visitnum":"3.0","epoch":"FOLLOW-UP"},{"seq":"24","testcd":"WEIGHT","test":"Weight","cat":null,"orres":"79.3","orresu":"kg","stresc":"79.3","stresn":"79.3","stresu":"kg","stnrlo":null,"stnrhi":null,"nrind":null,"pos":null,"loc":null,"dtc":"2024-03-19","dy":"2","visit":"DAY 2","visitnum":"3.0","epoch":"FOLLOW-UP"},{"seq":"25","testcd":"BMI","test":"BMI","cat":null,"orres":"34.7","orresu":"kg/m2","stresc":"34.7","stresn":"34.7","stresu":"kg/m2","stnrlo":null,"stnrhi":null,"nrind":null,"pos":null,"loc":null,"dtc":"2024-03-25","dy":"8","visit":"WEEK 1","visitnum":"4.0","epoch":"FOLLOW-UP"},{"seq":"26","testcd":"DIABP","test":"Diastolic Blood Pressure","cat":null,"orres":"85.8","orresu":"mmHg","stresc":"85.8","stresn":"85.8","stresu":"mmHg","stnrlo":null,"stnrhi":null,"nrind":null,"pos":null,"loc":null,"dtc":"2024-03-25","dy":"8","visit":"WEEK 1","visitnum":"4.0","epoch":"FOLLOW-UP"},{"seq":"27","testcd":"HEIGHT","test":"Height","cat":null,"orres":"150.4","orresu":"cm","stresc":"150.4","stresn":"150.4","stresu":"cm","stnrlo":null,"stnrhi":null,"nrind":null,"pos":null,"loc":null,"dtc":"2024-03-25","dy":"8","visit":"WEEK 1","visitnum":"4.0","epoch":"FOLLOW-UP"},{"seq":"28","testcd":"PULSE","test":"Pulse Rate","cat":null,"orres":"61.0","orresu":"beats/min","stresc":"61.0","stresn":"61.0","stresu":"beats/min","stnrlo":null,"stnrhi":null,"nrind":null,"pos":null,"loc":null,"dtc":"2024-03-25","dy":"8","visit":"WEEK 1","visitnum":"4.0","epoch":"FOLLOW-UP"},{"seq":"29","testcd":"RESP","test":"Respiratory Rate","cat":null,"orres":"16.3","orresu":"breaths/min","stresc":"16.3","stresn":"16.3","stresu":"breaths/min","stnrlo":null,"stnrhi":null,"nrind":null,"pos":null,"loc":null,"dtc":"2024-03-25","dy":"8","visit":"WEEK 1","visitnum":"4.0","epoch":"FOLLOW-UP"},{"seq":"30","testcd":"SYSBP","test":"Systolic Blood Pressure","cat":null,"orres":"120.1","orresu":"mmHg","stresc":"120.1","stresn":"120.1","stresu":"mmHg","stnrlo":null,"stnrhi":null,"nrind":null,"pos":null,"loc":null,"dtc":"2024-03-25","dy":"8","visit":"WEEK 1","visitnum":"4.0","epoch":"FOLLOW-UP"},{"seq":"31","testcd":"TEMP","test":"Temperature","cat":null,"orres":"36.5","orresu":"C","stresc":"36.5","stresn":"36.5","stresu":"C","stnrlo":null,"stnrhi":null,"nrind":null,"pos":null,"loc":null,"dtc":"2024-03-25","dy":"8","visit":"WEEK 1","visitnum":"4.0","epoch":"FOLLOW-UP"},{"seq":"32","testcd":"WEIGHT","test":"Weight","cat":null,"orres":"78.6","orresu":"kg","stresc":"78.6","stresn":"78.6","stresu":"kg","stnrlo":null,"stnrhi":null,"nrind":null,"pos":null,"loc":null,"dtc":"2024-03-25","dy":"8","visit":"WEEK 1","visitnum":"4.0","epoch":"FOLLOW-UP"},{"seq":"33","testcd":"BMI","test":"BMI","cat":null,"orres":"35.4","orresu":"kg/m2","stresc":"35.4","stresn":"35.4","stresu":"kg/m2","stnrlo":null,"stnrhi":null,"nrind":null,"pos":null,"loc":null,"dtc":"2024-04-26","dy":"40","visit":"WEEK 6","visitnum":"6.0","epoch":"FOLLOW-UP"},{"seq":"34","testcd":"DIABP","test":"Diastolic Blood Pressure","cat":null,"orres":"84.8","orresu":"mmHg","stresc":"84.8","stresn":"84.8","stresu":"mmHg","stnrlo":null,"stnrhi":null,"nrind":null,"pos":null,"loc":null,"dtc":"2024-04-26","dy":"40","visit":"WEEK 6","visitnum":"6.0","epoch":"FOLLOW-UP"},{"seq":"35","testcd":"HEIGHT","test":"Height","cat":null,"orres":"150.3","orresu":"cm","stresc":"150.3","stresn":"150.3","stresu":"cm","stnrlo":null,"stnrhi":null,"nrind":null,"pos":null,"loc":null,"dtc":"2024-04-26","dy":"40","visit":"WEEK 6","visitnum":"6.0","epoch":"FOLLOW-UP"},{"seq":"36","testcd":"PULSE","test":"Pulse Rate","cat":null,"orres":"71.2","orresu":"beats/min","stresc":"71.2","stresn":"71.2","stresu":"beats/min","stnrlo":null,"stnrhi":null,"nrind":null,"pos":null,"loc":null,"dtc":"2024-04-26","dy":"40","visit":"WEEK 6","visitnum":"6.0","epoch":"FOLLOW-UP"},{"seq":"37","testcd":"RESP","test":"Respiratory Rate","cat":null,"orres":"15.7","orresu":"breaths/min","stresc":"15.7","stresn":"15.7","stresu":"breaths/min","stnrlo":null,"stnrhi":null,"nrind":null,"pos":null,"loc":null,"dtc":"2024-04-26","dy":"40","visit":"WEEK 6","visitnum":"6.0","epoch":"FOLLOW-UP"},{"seq":"38","testcd":"SYSBP","test":"Systolic Blood Pressure","cat":null,"orres":"117.6","orresu":"mmHg","stresc":"117.6","stresn":"117.6","stresu":"mmHg","stnrlo":null,"stnrhi":null,"nrind":null,"pos":null,"loc":null,"dtc":"2024-04-26","dy":"40","visit":"WEEK 6","visitnum":"6.0","epoch":"FOLLOW-UP"},{"seq":"39","testcd":"TEMP","test":"Temperature","cat":null,"orres":"36.7","orresu":"C","stresc":"36.7","stresn":"36.7","stresu":"C","stnrlo":null,"stnrhi":null,"nrind":null,"pos":null,"loc":null,"dtc":"2024-04-26","dy":"40","visit":"WEEK 6","visitnum":"6.0","epoch":"FOLLOW-UP"},{"seq":"40","testcd":"WEIGHT","test":"Weight","cat":null,"orres":"80.0","orresu":"kg","stresc":"80.0","stresn":"80.0","stresu":"kg","stnrlo":null,"stnrhi":null,"nrind":null,"pos":null,"loc":null,"dtc":"2024-04-26","dy":"40","visit":"WEEK 6","visitnum":"6.0","epoch":"FOLLOW-UP"},{"seq":"41","testcd":"BMI","test":"BMI","cat":null,"orres":"35.8","orresu":"kg/m2","stresc":"35.8","stresn":"35.8","stresu":"kg/m2","stnrlo":null,"stnrhi":null,"nrind":null,"pos":null,"loc":null,"dtc":"2024-06-10","dy":"85","visit":"WEEK 12","visitnum":"7.0","epoch":"FOLLOW-UP"},{"seq":"42","testcd":"DIABP","test":"Diastolic Blood Pressure","cat":null,"orres":"88.1","orresu":"mmHg","stresc":"88.1","stresn":"88.1","stresu":"mmHg","stnrlo":null,"stnrhi":null,"nrind":null,"pos":null,"loc":null,"dtc":"2024-06-10","dy":"85","visit":"WEEK 12","visitnum":"7.0","epoch":"FOLLOW-UP"},{"seq":"43","testcd":"HEIGHT","test":"Height","cat":null,"orres":"149.5","orresu":"cm","stresc":"149.5","stresn":"149.5","stresu":"cm","stnrlo":null,"stnrhi":null,"nrind":null,"pos":null,"loc":null,"dtc":"2024-06-10","dy":"85","visit":"WEEK 12","visitnum":"7.0","epoch":"FOLLOW-UP"},{"seq":"44","testcd":"PULSE","test":"Pulse Rate","cat":null,"orres":null,"orresu":null,"stresc":null,"stresn":null,"stresu":null,"stnrlo":null,"stnrhi":null,"nrind":null,"pos":null,"loc":null,"dtc":"2024-06-10","dy":"85","visit":"WEEK 12","visitnum":"7.0","epoch":"FOLLOW-UP"},{"seq":"45","testcd":"RESP","test":"Respiratory Rate","cat":null,"orres":null,"orresu":null,"stresc":null,"stresn":null,"stresu":null,"stnrlo":null,"stnrhi":null,"nrind":null,"pos":null,"loc":null,"dtc":"2024-06-10","dy":"85","visit":"WEEK 12","visitnum":"7.0","epoch":"FOLLOW-UP"},{"seq":"46","testcd":"SYSBP","test":"Systolic Blood Pressure","cat":null,"orres":"121.6","orresu":"mmHg","stresc":"121.6","stresn":"121.6","stresu":"mmHg","stnrlo":null,"stnrhi":null,"nrind":null,"pos":null,"loc":null,"dtc":"2024-06-10","dy":"85","visit":"WEEK 12","visitnum":"7.0","epoch":"FOLLOW-UP"},{"seq":"47","testcd":"TEMP","test":"Temperature","cat":null,"orres":"36.5","orresu":"C","stresc":"36.5","stresn":"36.5","stresu":"C","stnrlo":null,"stnrhi":null,"nrind":null,"pos":null,"loc":null,"dtc":"2024-06-10","dy":"85","visit":"WEEK 12","visitnum":"7.0","epoch":"FOLLOW-UP"},{"seq":"48","testcd":"WEIGHT","test":"Weight","cat":null,"orres":"80.1","orresu":"kg","stresc":"80.1","stresn":"80.1","stresu":"kg","stnrlo":null,"stnrhi":null,"nrind":null,"pos":null,"loc":null,"dtc":"2024-06-10","dy":"85","visit":"WEEK 12","visitnum":"7.0","epoch":"FOLLOW-UP"}]},"section_10_questionnaires_and_scores":{"questionnaires":[{"seq":"1","testcd":"MADRS01","test":"Apparent Sadness","cat":"MADRS","scat":null,"orres":"3","stresc":"3","stresn":"3.0","dtc":"2024-02-28","dy":"-19","visit":"SCREENING","visitnum":"1.0"},{"seq":"2","testcd":"MADRS02","test":"Reported Sadness","cat":"MADRS","scat":null,"orres":"1","stresc":"1","stresn":"1.0","dtc":"2024-02-28","dy":"-19","visit":"SCREENING","visitnum":"1.0"},{"seq":"3","testcd":"MADRS03","test":"Inner Tension","cat":"MADRS","scat":null,"orres":"2","stresc":"2","stresn":"2.0","dtc":"2024-02-28","dy":"-19","visit":"SCREENING","visitnum":"1.0"},{"seq":"4","testcd":"MADRS04","test":"Reduced Sleep","cat":"MADRS","scat":null,"orres":"1","stresc":"1","stresn":"1.0","dtc":"2024-02-28","dy":"-19","visit":"SCREENING","visitnum":"1.0"},{"seq":"5","testcd":"MADRS05","test":"Reduced Appetite","cat":"MADRS","scat":null,"orres":"2","stresc":"2","stresn":"2.0","dtc":"2024-02-28","dy":"-19","visit":"SCREENING","visitnum":"1.0"},{"seq":"6","testcd":"MADRS06","test":"Concentration Difficulties","cat":"MADRS","scat":null,"orres":"2","stresc":"2","stresn":"2.0","dtc":"2024-02-28","dy":"-19","visit":"SCREENING","visitnum":"1.0"},{"seq":"7","testcd":"MADRS07","test":"Lassitude","cat":"MADRS","scat":null,"orres":"4","stresc":"4","stresn":"4.0","dtc":"2024-02-28","dy":"-19","visit":"SCREENING","visitnum":"1.0"},{"seq":"8","testcd":"MADRS08","test":"Inability to Feel","cat":"MADRS","scat":null,"orres":"3","stresc":"3","stresn":"3.0","dtc":"2024-02-28","dy":"-19","visit":"SCREENING","visitnum":"1.0"},{"seq":"9","testcd":"MADRS09","test":"Pessimistic Thoughts","cat":"MADRS","scat":null,"orres":"3","stresc":"3","stresn":"3.0","dtc":"2024-02-28","dy":"-19","visit":"SCREENING","visitnum":"1.0"},{"seq":"10","testcd":"MADRS10","test":"Suicidal Thoughts","cat":"MADRS","scat":null,"orres":"3","stresc":"3","stresn":"3.0","dtc":"2024-02-28","dy":"-19","visit":"SCREENING","visitnum":"1.0"},{"seq":"11","testcd":"MADRSTOT","test":"MADRS Total Score","cat":"MADRS","scat":"TOTAL","orres":"24.0","stresc":"24.0","stresn":"24.0","dtc":"2024-02-28","dy":"-19","visit":"SCREENING","visitnum":"1.0"},{"seq":"12","testcd":"MADRS01","test":"Apparent Sadness","cat":"MADRS","scat":null,"orres":"3","stresc":"3","stresn":"3.0","dtc":"2024-03-18","dy":"1","visit":"DOSING DAY","visitnum":"2.0"},{"seq":"13","testcd":"MADRS02","test":"Reported Sadness","cat":"MADRS","scat":null,"orres":"3","stresc":"3","stresn":"3.0","dtc":"2024-03-18","dy":"1","visit":"DOSING DAY","visitnum":"2.0"},{"seq":"14","testcd":"MADRS03","test":"Inner Tension","cat":"MADRS","scat":null,"orres":"1","stresc":"1","stresn":"1.0","dtc":"2024-03-18","dy":"1","visit":"DOSING DAY","visitnum":"2.0"},{"seq":"15","testcd":"MADRS04","test":"Reduced Sleep","cat":"MADRS","scat":null,"orres":"2","stresc":"2","stresn":"2.0","dtc":"2024-03-18","dy":"1","visit":"DOSING DAY","visitnum":"2.0"},{"seq":"16","testcd":"MADRS05","test":"Reduced Appetite","cat":"MADRS","scat":null,"orres":"1","stresc":"1","stresn":"1.0","dtc":"2024-03-18","dy":"1","visit":"DOSING DAY","visitnum":"2.0"},{"seq":"17","testcd":"MADRS06","test":"Concentration Difficulties","cat":"MADRS","scat":null,"orres":"2","stresc":"2","stresn":"2.0","dtc":"2024-03-18","dy":"1","visit":"DOSING DAY","visitnum":"2.0"},{"seq":"18","testcd":"MADRS07","test":"Lassitude","cat":"MADRS","scat":null,"orres":"4","stresc":"4","stresn":"4.0","dtc":"2024-03-18","dy":"1","visit":"DOSING DAY","visitnum":"2.0"},{"seq":"19","testcd":"MADRS08","test":"Inability to Feel","cat":"MADRS","scat":null,"orres":"2","stresc":"2","stresn":"2.0","dtc":"2024-03-18","dy":"1","visit":"DOSING DAY","visitnum":"2.0"},{"seq":"20","testcd":"MADRS09","test":"Pessimistic Thoughts","cat":"MADRS","scat":null,"orres":"2","stresc":"2","stresn":"2.0","dtc":"2024-03-18","dy":"1","visit":"DOSING DAY","visitnum":"2.0"},{"seq":"21","testcd":"MADRS10","test":"Suicidal Thoughts","cat":"MADRS","scat":null,"orres":"3","stresc":"3","stresn":"3.0","dtc":"2024-03-18","dy":"1","visit":"DOSING DAY","visitnum":"2.0"},{"seq":"22","testcd":"MADRSTOT","test":"MADRS Total Score","cat":"MADRS","scat":"TOTAL","orres":"23.0","stresc":"23.0","stresn":"23.0","dtc":"2024-03-18","dy":"1","visit":"DOSING DAY","visitnum":"2.0"}],"findings_about":[]},"section_11_protocol_deviations":{"deviations":[{"seq":"1","term":"Missed PSILOCYBIN dose on 2024-03-21","decod":"MISSED DOSE","cat":"MINOR","scat":"DOSING","start_dtc":"2024-03-21","end_dtc":null,"visit":null},{"seq":"2","term":"Missed PSILOCYBIN dose on 2024-03-22","decod":"MISSED DOSE","cat":"MINOR","scat":"DOSING","start_dtc":"2024-03-22","end_dtc":null,"visit":null},{"seq":"3","term":"Missed PSILOCYBIN dose on 2024-03-23","decod":"MISSED DOSE","cat":"MINOR","scat":"DOSING","start_dtc":"2024-03-23","end_dtc":null,"visit":null},{"seq":"4","term":"Visit WEEK 1 occurred 0 days late (Day 8 vs planned Day 8)","decod":"VISIT OCCURRED OUTSIDE VISIT WINDOW","cat":"MINOR","scat":"VISIT WINDOW","start_dtc":"2024-03-25","end_dtc":null,"visit":null},{"seq":"5","term":"Missed PSILOCYBIN dose on 2024-04-01","decod":"MISSED DOSE","cat":"MINOR","scat":"DOSING","start_dtc":"2024-04-01","end_dtc":null,"visit":null},{"seq":"6","term":"Missed PSILOCYBIN dose on 2024-04-18","decod":"MISSED DOSE","cat":"MINOR","scat":"DOSING","start_dtc":"2024-04-18","end_dtc":null,"visit":null},{"seq":"7","term":"Missed PSILOCYBIN dose on 2024-04-22","decod":"MISSED DOSE","cat":"MINOR","scat":"DOSING","start_dtc":"2024-04-22","end_dtc":null,"visit":null},{"seq":"8","term":"Missed PSILOCYBIN dose on 2024-04-25","decod":"MISSED DOSE","cat":"MINOR","scat":"DOSING","start_dtc":"2024-04-25","end_dtc":null,"visit":null},{"seq":"9","term":"Visit WEEK 12 occurred 0 days late (Day 85 vs planned Day 85)","decod":"VISIT OCCURRED OUTSIDE VISIT WINDOW","cat":"MINOR","scat":"VISIT WINDOW","start_dtc":"2024-06-10","end_dtc":null,"visit":null},{"seq":"10","term":"Vital signs assessment not performed at WEEK 12","decod":"MISSED ASSESSMENT","cat":"MINOR","scat":"ASSESSMENT","start_dtc":"2024-06-10","end_dtc":null,"visit":null}],"total":10},"section_12_disposition":{"completion_status":"COMPLETED","disposition_records":[{"seq":"1","term":"INFORMED CONSENT OBTAINED","decod":"INFORMED CONSENT OBTAINED","cat":"PROTOCOL MILESTONE","scat":null,"dtc":"2024-02-28","dy":null,"visit":null,"epoch":"SCREENING"},{"seq":"2","term":"RANDOMIZED","decod":"RANDOMIZED","cat":"PROTOCOL MILESTONE","scat":null,"dtc":"2024-03-18","dy":null,"visit":null,"epoch":"TREATMENT"},{"seq":"3","term":"COMPLETED","decod":"COMPLETED","cat":"DISPOSITION EVENT","scat":null,"dtc":"2024-07-09","dy":null,"visit":null,"epoch":"FOLLOW-UP"}],"death":null},"section_13_hospitalizations":{"items":[{"seq":"1","term":"Dry mouth","decod":"Dry mouth","cat":"EMERGENCY ROOM VISIT","start_dtc":"2024-06-10","end_dtc":"2024-06-17","epoch":"TREATMENT"}],"total":1},"section_14_substance_use":{"items":[{"seq":"1","substance":"ALCOHOL","decod":"ALCOHOL","cat":"ALCOHOL","scat":null,"usage":"Y","dose":"11.0","dosu":"DRINKS/WEEK","freq":"QW","start_dtc":"2006-03-04","end_dtc":null},{"seq":"2","substance":"COFFEE","decod":"COFFEE","cat":"CAFFEINE","scat":null,"usage":"N","dose":null,"dosu":null,"freq":null,"start_dtc":null,"end_dtc":null},{"seq":"3","substance":"CIGARETTES","decod":"CIGARETTES","cat":"TOBACCO","scat":"CIGARETTES","usage":"Y","dose":null,"dosu":null,"freq":null,"start_dtc":"2009-03-03","end_dtc":"2014-03-02"}],"total":3},"section_15_subject_status":{"items":[{"seq":"1","testcd":"SURVSTAT","test":"Survival Status","orres":"ALIVE","stresc":"ALIVE","dtc":"2024-07-09","visit":"END OF STUDY","epoch":"FOLLOW-UP"}],"total":1}}