{"subject_id":"TERPSIS-MDD-201-SITE003-0030","study_id":"TERPSIS-MDD-201","generated_at":"2026-06-16T11:15:10.948051+00:00","sdtmig_version":"3.4","flags":{"has_serious_ae":false,"has_fatal_ae":false,"has_protocol_deviation":true,"n_protocol_deviations":9,"n_adverse_events":1,"n_concomitant_meds":2,"max_ae_severity":"MILD","screen_failure":false,"discontinued_early":false,"discontinuation_reason":null,"death":false,"exposure_days":53},"timeline":[{"dtc":"2015-03-12","dy":"-3311","event":"CM START: SERTRALINE","domain":"CM","category":"concomitant_med"},{"dtc":"2024-03-05","dy":"-30","event":"VISIT: SCREENING","domain":"SV","category":"visit"},{"dtc":"2024-03-09","dy":"-26","event":"INFORMED CONSENT OBTAINED","domain":"DS","category":"milestone"},{"dtc":"2024-04-04","dy":"1","event":"RANDOMIZED","domain":"DS","category":"milestone"},{"dtc":"2024-04-04","dy":"1","event":"FIRST DOSE: PSILOCYBIN","domain":"EX","category":"exposure"},{"dtc":"2024-04-04","dy":"1","event":"VISIT: DOSING DAY","domain":"SV","category":"visit"},{"dtc":"2024-04-05","dy":"2","event":"VISIT: DAY 2","domain":"SV","category":"visit"},{"dtc":"2024-04-12","dy":"9","event":"VISIT: WEEK 1","domain":"SV","category":"visit"},{"dtc":"2024-04-16","dy":"13","event":"AE: Anxiety (MILD)","domain":"AE","category":"adverse_event"},{"dtc":"2024-04-24","dy":"21","event":"DEVIATION: MISSED DOSE","domain":"DV","category":"deviation"},{"dtc":"2024-04-28","dy":"25","event":"VISIT: WEEK 3","domain":"SV","category":"visit"},{"dtc":"2024-05-12","dy":"39","event":"DEVIATION: MISSED DOSE","domain":"DV","category":"deviation"},{"dtc":"2024-05-13","dy":"40","event":"DEVIATION: VISIT OCCURRED OUTSIDE VISIT WINDOW","domain":"DV","category":"deviation"},{"dtc":"2024-05-13","dy":"40","event":"DEVIATION: MISSED DOSE","domain":"DV","category":"deviation"},{"dtc":"2024-05-13","dy":"40","event":"DEVIATION: MISSED ASSESSMENT","domain":"DV","category":"deviation"},{"dtc":"2024-05-13","dy":"40","event":"VISIT: WEEK 6","domain":"SV","category":"visit"},{"dtc":"2024-05-19","dy":"46","event":"DEVIATION: MISSED DOSE","domain":"DV","category":"deviation"},{"dtc":"2024-05-21","dy":"48","event":"DEVIATION: MISSED DOSE","domain":"DV","category":"deviation"},{"dtc":"2024-05-21","dy":"48","event":"CM START: IBUPROFEN","domain":"CM","category":"concomitant_med"},{"dtc":"2024-05-22","dy":"49","event":"DEVIATION: MISSED DOSE","domain":"DV","category":"deviation"},{"dtc":"2024-06-25","dy":"83","event":"DEVIATION: VISIT OCCURRED OUTSIDE VISIT WINDOW","domain":"DV","category":"deviation"},{"dtc":"2024-06-25","dy":"83","event":"VISIT: WEEK 12","domain":"SV","category":"visit"},{"dtc":"2024-07-26","dy":"114","event":"COMPLETED","domain":"DS","category":"milestone"}],"section_1_demographics":{"usubjid":"TERPSIS-MDD-201-SITE003-0030","subjid":"0030","siteid":"SITE003","age":"42","ageu":"YEARS","sex":"M","race":"ASIAN","ethnicity":"NOT HISPANIC OR LATINO","country":"USA","arm":"Psilocybin 10mg","armcd":"PSI10","actarm":"Psilocybin 10mg","actarmcd":"PSI10","randomization_date":null,"informed_consent_date":"2024-03-09","reference_start_date":"2024-04-04","reference_end_date":"2024-07-26","screen_failure":false,"death_flag":null,"death_date":null,"subject_characteristics":[{"testcd":"ALCUSE","test":"Alcohol Use","orres":"CURRENT DRINKER","stresc":"CURRENT DRINKER","visit":null,"dtc":"2024-03-09"},{"testcd":"BMI","test":"Body Mass Index","orres":"33.7","stresc":"33.7","visit":null,"dtc":"2024-03-09"},{"testcd":"DURDIS","test":"Duration of Disease","orres":"109 months","stresc":"109","visit":null,"dtc":"2024-03-09"},{"testcd":"TOBUSE","test":"Tobacco Use","orres":"NEVER SMOKED","stresc":"NEVER SMOKED","visit":null,"dtc":"2024-03-09"}]},"section_2_medical_history":{"items":[{"seq":"1","term":"DEPRESSION","decod":"DEPRESSION","cat":"PSYCHIATRIC","scat":null,"presp":null,"occur":null,"status":null,"onset_dtc":"2015-03-12","end_dtc":null,"visit":null},{"seq":"2","term":"GASTROESOPHAGEAL REFLUX DISEASE","decod":"GASTROESOPHAGEAL REFLUX DISEASE","cat":"GASTROINTESTINAL","scat":null,"presp":null,"occur":null,"status":null,"onset_dtc":"2020-03","end_dtc":"2020-07-12","visit":null},{"seq":"3","term":"HYPERLIPIDEMIA","decod":"HYPERLIPIDEMIA","cat":"METABOLIC","scat":null,"presp":null,"occur":null,"status":null,"onset_dtc":"2020-03-10","end_dtc":"2020-10-06","visit":null}]},"section_3_inclusion_exclusion":{"criteria":[]},"section_4_trial_participation":{"visits":[{"visitnum":"1.0","visit":"SCREENING","start_dtc":"2024-03-05","end_dtc":"2024-03-05","updes":null},{"visitnum":"2.0","visit":"DOSING DAY","start_dtc":"2024-04-04","end_dtc":"2024-04-04","updes":null},{"visitnum":"3.0","visit":"DAY 2","start_dtc":"2024-04-05","end_dtc":"2024-04-05","updes":null},{"visitnum":"4.0","visit":"WEEK 1","start_dtc":"2024-04-12","end_dtc":"2024-04-12","updes":null},{"visitnum":"5.0","visit":"WEEK 3","start_dtc":"2024-04-28","end_dtc":"2024-04-28","updes":null},{"visitnum":"6.0","visit":"WEEK 6","start_dtc":"2024-05-13","end_dtc":"2024-05-13","updes":null},{"visitnum":"7.0","visit":"WEEK 12","start_dtc":"2024-06-25","end_dtc":"2024-06-25","updes":null}],"epochs":[{"seq":"1","etcd":"SCRN","element":"Screening","start_dtc":"2024-03-07","end_dtc":"2024-04-04","updes":null},{"seq":"2","etcd":"TRT","element":"Treatment/Observation","start_dtc":"2024-04-04","end_dtc":"2024-06-28","updes":null},{"seq":"3","etcd":"FU","element":"Follow-up","start_dtc":"2024-06-28","end_dtc":"2024-06-28","updes":null}],"visit_count":7},"section_5_concomitant_medications":{"medications":[{"seq":"1","trt":"SERTRALINE","decod":"SERTRALINE","cat":"PRIOR","dose":"50","doseu":null,"dosef":"QD","route":"ORAL","indication":"DEPRESSION","start_dtc":"2015-03-12","end_dtc":"2024-07-26","ongoing":null,"visit":null},{"seq":"2","trt":"IBUPROFEN","decod":"IBUPROFEN","cat":"CONCOMITANT","dose":null,"doseu":null,"dosef":"PRN","route":"ORAL","indication":null,"start_dtc":"2024-05-21","end_dtc":"2024-06-12","ongoing":null,"visit":null}]},"section_6_exposure":{"exposure_as_administered":[{"seq":"1","trt":"PSILOCYBIN","dose":"10.0","doseu":null,"dosef":"ONCE","route":"ORAL","lot":null,"start_dtc":"2024-04-04","end_dtc":"2024-05-27","start_dy":"1","end_dy":"54","epoch":"TREATMENT","visit":null}],"exposure_as_collected":[{"seq":"1","trt":"PSILOCYBIN","dose":"10.0","doseu":null,"dosef":"ONCE","route":"ORAL","start_dtc":"2024-04-04","end_dtc":"2024-04-04","visit":"DOSING DAY"},{"seq":"2","trt":"PSILOCYBIN","dose":"10.0","doseu":null,"dosef":"ONCE","route":"ORAL","start_dtc":"2024-04-05","end_dtc":"2024-04-05","visit":"DOSING DAY"},{"seq":"3","trt":"PSILOCYBIN","dose":"10.0","doseu":null,"dosef":"ONCE","route":"ORAL","start_dtc":"2024-04-06","end_dtc":"2024-04-06","visit":"DOSING DAY"},{"seq":"4","trt":"PSILOCYBIN","dose":"10.0","doseu":null,"dosef":"ONCE","route":"ORAL","start_dtc":"2024-04-07","end_dtc":"2024-04-07","visit":"DOSING DAY"},{"seq":"5","trt":"PSILOCYBIN","dose":"10.0","doseu":null,"dosef":"ONCE","route":"ORAL","start_dtc":"2024-04-08","end_dtc":"2024-04-08","visit":"DAY 2"},{"seq":"6","trt":"PSILOCYBIN","dose":"10.0","doseu":null,"dosef":"ONCE","route":"ORAL","start_dtc":"2024-04-09","end_dtc":"2024-04-09","visit":"WEEK 1"},{"seq":"7","trt":"PSILOCYBIN","dose":"10.0","doseu":null,"dosef":"ONCE","route":"ORAL","start_dtc":"2024-04-10","end_dtc":"2024-04-10","visit":"WEEK 1"},{"seq":"8","trt":"PSILOCYBIN","dose":"10.0","doseu":null,"dosef":"ONCE","route":"ORAL","start_dtc":"2024-04-11","end_dtc":"2024-04-11","visit":"WEEK 1"},{"seq":"9","trt":"PSILOCYBIN","dose":"10.0","doseu":null,"dosef":"ONCE","route":"ORAL","start_dtc":"2024-04-12","end_dtc":"2024-04-12","visit":"WEEK 1"},{"seq":"10","trt":"PSILOCYBIN","dose":"10.0","doseu":null,"dosef":"ONCE","route":"ORAL","start_dtc":"2024-04-13","end_dtc":"2024-04-13","visit":"WEEK 1"},{"seq":"11","trt":"PSILOCYBIN","dose":"10.0","doseu":null,"dosef":"ONCE","route":"ORAL","start_dtc":"2024-04-14","end_dtc":"2024-04-14","visit":"WEEK 1"},{"seq":"12","trt":"PSILOCYBIN","dose":"10.0","doseu":null,"dosef":"ONCE","route":"ORAL","start_dtc":"2024-04-15","end_dtc":"2024-04-15","visit":null},{"seq":"13","trt":"PSILOCYBIN","dose":"10.0","doseu":null,"dosef":"ONCE","route":"ORAL","start_dtc":"2024-04-16","end_dtc":"2024-04-16","visit":null},{"seq":"14","trt":"PSILOCYBIN","dose":"10.0","doseu":null,"dosef":"ONCE","route":"ORAL","start_dtc":"2024-04-17","end_dtc":"2024-04-17","visit":null},{"seq":"15","trt":"PSILOCYBIN","dose":"10.0","doseu":null,"dosef":"ONCE","route":"ORAL","start_dtc":"2024-04-18","end_dtc":"2024-04-18","visit":null},{"seq":"16","trt":"PSILOCYBIN","dose":"10.0","doseu":null,"dosef":"ONCE","route":"ORAL","start_dtc":"2024-04-19","end_dtc":"2024-04-19","visit":null},{"seq":"17","trt":"PSILOCYBIN","dose":"10.0","doseu":null,"dosef":"ONCE","route":"ORAL","start_dtc":"2024-04-20","end_dtc":"2024-04-20","visit":null},{"seq":"18","trt":"PSILOCYBIN","dose":"10.0","doseu":null,"dosef":"ONCE","route":"ORAL","start_dtc":"2024-04-21","end_dtc":"2024-04-21","visit":null},{"seq":"19","trt":"PSILOCYBIN","dose":"10.0","doseu":null,"dosef":"ONCE","route":"ORAL","start_dtc":"2024-04-22","end_dtc":"2024-04-22","visit":"WEEK 3"},{"seq":"20","trt":"PSILOCYBIN","dose":"10.0","doseu":null,"dosef":"ONCE","route":"ORAL","start_dtc":"2024-04-23","end_dtc":"2024-04-23","visit":"WEEK 3"},{"seq":"21","trt":"PSILOCYBIN","dose":null,"doseu":null,"dosef":"ONCE","route":"ORAL","start_dtc":"2024-04-24","end_dtc":"2024-04-24","visit":"WEEK 3"},{"seq":"22","trt":"PSILOCYBIN","dose":"10.0","doseu":null,"dosef":"ONCE","route":"ORAL","start_dtc":"2024-04-25","end_dtc":"2024-04-25","visit":"WEEK 3"},{"seq":"23","trt":"PSILOCYBIN","dose":"10.0","doseu":null,"dosef":"ONCE","route":"ORAL","start_dtc":"2024-04-26","end_dtc":"2024-04-26","visit":"WEEK 3"},{"seq":"24","trt":"PSILOCYBIN","dose":"10.0","doseu":null,"dosef":"ONCE","route":"ORAL","start_dtc":"2024-04-27","end_dtc":"2024-04-27","visit":"WEEK 3"},{"seq":"25","trt":"PSILOCYBIN","dose":"10.0","doseu":null,"dosef":"ONCE","route":"ORAL","start_dtc":"2024-04-28","end_dtc":"2024-04-28","visit":"WEEK 3"},{"seq":"26","trt":"PSILOCYBIN","dose":"10.0","doseu":null,"dosef":"ONCE","route":"ORAL","start_dtc":"2024-04-29","end_dtc":"2024-04-29","visit":null},{"seq":"27","trt":"PSILOCYBIN","dose":"10.0","doseu":null,"dosef":"ONCE","route":"ORAL","start_dtc":"2024-04-30","end_dtc":"2024-04-30","visit":null},{"seq":"28","trt":"PSILOCYBIN","dose":"10.0","doseu":null,"dosef":"ONCE","route":"ORAL","start_dtc":"2024-05-01","end_dtc":"2024-05-01","visit":null},{"seq":"29","trt":"PSILOCYBIN","dose":"10.0","doseu":null,"dosef":"ONCE","route":"ORAL","start_dtc":"2024-05-02","end_dtc":"2024-05-02","visit":null},{"seq":"30","trt":"PSILOCYBIN","dose":"10.0","doseu":null,"dosef":"ONCE","route":"ORAL","start_dtc":"2024-05-03","end_dtc":"2024-05-03","visit":null},{"seq":"31","trt":"PSILOCYBIN","dose":"10.0","doseu":null,"dosef":"ONCE","route":"ORAL","start_dtc":"2024-05-04","end_dtc":"2024-05-04","visit":null},{"seq":"32","trt":"PSILOCYBIN","dose":"10.0","doseu":null,"dosef":"ONCE","route":"ORAL","start_dtc":"2024-05-05","end_dtc":"2024-05-05","visit":null},{"seq":"33","trt":"PSILOCYBIN","dose":"10.0","doseu":null,"dosef":"ONCE","route":"ORAL","start_dtc":"2024-05-06","end_dtc":"2024-05-06","visit":null},{"seq":"34","trt":"PSILOCYBIN","dose":"10.0","doseu":null,"dosef":"ONCE","route":"ORAL","start_dtc":"2024-05-07","end_dtc":"2024-05-07","visit":null},{"seq":"35","trt":"PSILOCYBIN","dose":"10.0","doseu":null,"dosef":"ONCE","route":"ORAL","start_dtc":"2024-05-08","end_dtc":"2024-05-08","visit":null},{"seq":"36","trt":"PSILOCYBIN","dose":"10.0","doseu":null,"dosef":"ONCE","route":"ORAL","start_dtc":"2024-05-09","end_dtc":"2024-05-09","visit":null},{"seq":"37","trt":"PSILOCYBIN","dose":"10.0","doseu":null,"dosef":"ONCE","route":"ORAL","start_dtc":"2024-05-10","end_dtc":"2024-05-10","visit":null},{"seq":"38","trt":"PSILOCYBIN","dose":"10.0","doseu":null,"dosef":"ONCE","route":"ORAL","start_dtc":"2024-05-11","end_dtc":"2024-05-11","visit":null},{"seq":"39","trt":"PSILOCYBIN","dose":null,"doseu":null,"dosef":"ONCE","route":"ORAL","start_dtc":"2024-05-12","end_dtc":"2024-05-12","visit":null},{"seq":"40","trt":"PSILOCYBIN","dose":null,"doseu":null,"dosef":"ONCE","route":"ORAL","start_dtc":"2024-05-13","end_dtc":"2024-05-13","visit":"WEEK 6"},{"seq":"41","trt":"PSILOCYBIN","dose":"10.0","doseu":null,"dosef":"ONCE","route":"ORAL","start_dtc":"2024-05-14","end_dtc":"2024-05-14","visit":"WEEK 6"},{"seq":"42","trt":"PSILOCYBIN","dose":"10.0","doseu":null,"dosef":"ONCE","route":"ORAL","start_dtc":"2024-05-15","end_dtc":"2024-05-15","visit":"WEEK 6"},{"seq":"43","trt":"PSILOCYBIN","dose":"10.0","doseu":null,"dosef":"ONCE","route":"ORAL","start_dtc":"2024-05-16","end_dtc":"2024-05-16","visit":"WEEK 6"},{"seq":"44","trt":"PSILOCYBIN","dose":"10.0","doseu":null,"dosef":"ONCE","route":"ORAL","start_dtc":"2024-05-17","end_dtc":"2024-05-17","visit":"WEEK 6"},{"seq":"45","trt":"PSILOCYBIN","dose":"10.0","doseu":null,"dosef":"ONCE","route":"ORAL","start_dtc":"2024-05-18","end_dtc":"2024-05-18","visit":"WEEK 6"},{"seq":"46","trt":"PSILOCYBIN","dose":null,"doseu":null,"dosef":"ONCE","route":"ORAL","start_dtc":"2024-05-19","end_dtc":"2024-05-19","visit":"WEEK 6"},{"seq":"47","trt":"PSILOCYBIN","dose":"10.0","doseu":null,"dosef":"ONCE","route":"ORAL","start_dtc":"2024-05-20","end_dtc":"2024-05-20","visit":null},{"seq":"48","trt":"PSILOCYBIN","dose":null,"doseu":null,"dosef":"ONCE","route":"ORAL","start_dtc":"2024-05-21","end_dtc":"2024-05-21","visit":null},{"seq":"49","trt":"PSILOCYBIN","dose":null,"doseu":null,"dosef":"ONCE","route":"ORAL","start_dtc":"2024-05-22","end_dtc":"2024-05-22","visit":null},{"seq":"50","trt":"PSILOCYBIN","dose":"10.0","doseu":null,"dosef":"ONCE","route":"ORAL","start_dtc":"2024-05-23","end_dtc":"2024-05-23","visit":null},{"seq":"51","trt":"PSILOCYBIN","dose":"10.0","doseu":null,"dosef":"ONCE","route":"ORAL","start_dtc":"2024-05-24","end_dtc":"2024-05-24","visit":null},{"seq":"52","trt":"PSILOCYBIN","dose":"10.0","doseu":null,"dosef":"ONCE","route":"ORAL","start_dtc":"2024-05-25","end_dtc":"2024-05-25","visit":null},{"seq":"53","trt":"PSILOCYBIN","dose":"10.0","doseu":null,"dosef":"ONCE","route":"ORAL","start_dtc":"2024-05-26","end_dtc":"2024-05-26","visit":null},{"seq":"54","trt":"PSILOCYBIN","dose":"10.0","doseu":null,"dosef":"ONCE","route":"ORAL","start_dtc":"2024-05-27","end_dtc":"2024-05-27","visit":null}]},"section_7_adverse_events":{"summary":{"total_aes":1,"serious_aes":0,"fatal_aes":0,"by_severity":{"MILD":1},"by_soc":{"Psychiatric disorders":1}},"events":[{"seq":"1","term":"ANXIETY","decod":"Anxiety","llt":"Anxiety","hlt":"Anxiety symptoms","hlgt":"Anxiety disorders and symptoms","soc":"Psychiatric disorders","bodsys":"Psychiatric disorders","severity":"MILD","serious":"N","causality":"UNLIKELY RELATED","action_taken":"DOSE NOT CHANGED","outcome":"RECOVERED/RESOLVED","fatal":"N","hospitalization":"N","life_threatening":"N","onset_dtc":"2024-04-16","end_dtc":"2024-04-19","onset_dy":"13","end_dy":"16","duration":null,"epoch":"TREATMENT","visit":null,"supplemental":{}}]},"section_8_laboratory_results":{"summary":{"total_records":49,"abnormal_count":7,"abnormal_pct":14.3},"shift_summary":[{"testcd":"ALT","baseline_value":25.7,"baseline_nrind":"NORMAL","worst_post_baseline_value":28.27,"worst_post_baseline_nrind":"NORMAL","worst_visit":"WEEK 6"},{"testcd":"AST","baseline_value":28.06,"baseline_nrind":"NORMAL","worst_post_baseline_value":27.53,"worst_post_baseline_nrind":"NORMAL","worst_visit":"DAY 2"},{"testcd":"CREAT","baseline_value":47.81,"baseline_nrind":"LOW","worst_post_baseline_value":55.99,"worst_post_baseline_nrind":"LOW","worst_visit":"WEEK 6"},{"testcd":"GLUC","baseline_value":4.74,"baseline_nrind":"NORMAL","worst_post_baseline_value":4.74,"worst_post_baseline_nrind":"NORMAL","worst_visit":"DOSING DAY"},{"testcd":"HGB","baseline_value":164.68,"baseline_nrind":"NORMAL","worst_post_baseline_value":162.59,"worst_post_baseline_nrind":"NORMAL","worst_visit":"DOSING DAY"},{"testcd":"PLAT","baseline_value":313.52,"baseline_nrind":"NORMAL","worst_post_baseline_value":307.23,"worst_post_baseline_nrind":"NORMAL","worst_visit":"DOSING DAY"},{"testcd":"WBC","baseline_value":6.37,"baseline_nrind":"NORMAL","worst_post_baseline_value":7.84,"worst_post_baseline_nrind":"NORMAL","worst_visit":"WEEK 12"}],"results":[{"seq":"1","testcd":"ALT","test":"Alanine Aminotransferase","cat":"CHEMISTRY","orres":"25.7","orresu":"U/L","stresc":"25.7","stresn":"25.7","stresu":"U/L","stnrlo":"7","stnrhi":"56","nrind":"NORMAL","fast":null,"dtc":"2024-03-05","dy":"-30","visit":"SCREENING","visitnum":"1.0","epoch":"SCREENING","spec":null,"method":null},{"seq":"2","testcd":"AST","test":"Aspartate Aminotransferase","cat":"CHEMISTRY","orres":"28.06","orresu":"U/L","stresc":"28.06","stresn":"28.06","stresu":"U/L","stnrlo":"10","stnrhi":"40","nrind":"NORMAL","fast":null,"dtc":"2024-03-05","dy":"-30","visit":"SCREENING","visitnum":"1.0","epoch":"SCREENING","spec":null,"method":null},{"seq":"3","testcd":"CREAT","test":"Creatinine","cat":"CHEMISTRY","orres":"47.81","orresu":"umol/L","stresc":"47.81","stresn":"47.81","stresu":"umol/L","stnrlo":"62","stnrhi":"106","nrind":"LOW","fast":null,"dtc":"2024-03-05","dy":"-30","visit":"SCREENING","visitnum":"1.0","epoch":"SCREENING","spec":null,"method":null},{"seq":"4","testcd":"GLUC","test":"Glucose","cat":"CHEMISTRY","orres":"4.74","orresu":"mmol/L","stresc":"4.74","stresn":"4.74","stresu":"mmol/L","stnrlo":"3.9","stnrhi":"5.6","nrind":"NORMAL","fast":null,"dtc":"2024-03-05","dy":"-30","visit":"SCREENING","visitnum":"1.0","epoch":"SCREENING","spec":null,"method":null},{"seq":"5","testcd":"HGB","test":"Hemoglobin","cat":"HEMATOLOGY","orres":"164.68","orresu":"g/L","stresc":"164.68","stresn":"164.68","stresu":"g/L","stnrlo":"130","stnrhi":"175","nrind":"NORMAL","fast":null,"dtc":"2024-03-05","dy":"-30","visit":"SCREENING","visitnum":"1.0","epoch":"SCREENING","spec":null,"method":null},{"seq":"6","testcd":"PLAT","test":"Platelets","cat":"HEMATOLOGY","orres":"313.52","orresu":"10^9/L","stresc":"313.52","stresn":"313.52","stresu":"10^9/L","stnrlo":"150","stnrhi":"400","nrind":"NORMAL","fast":null,"dtc":"2024-03-05","dy":"-30","visit":"SCREENING","visitnum":"1.0","epoch":"SCREENING","spec":null,"method":null},{"seq":"7","testcd":"WBC","test":"Leukocytes","cat":"HEMATOLOGY","orres":"6.37","orresu":"10^9/L","stresc":"6.37","stresn":"6.37","stresu":"10^9/L","stnrlo":"4.0","stnrhi":"11.0","nrind":"NORMAL","fast":null,"dtc":"2024-03-05","dy":"-30","visit":"SCREENING","visitnum":"1.0","epoch":"SCREENING","spec":null,"method":null},{"seq":"8","testcd":"ALT","test":"Alanine Aminotransferase","cat":"CHEMISTRY","orres":"27.12","orresu":"U/L","stresc":"27.12","stresn":"27.12","stresu":"U/L","stnrlo":"7","stnrhi":"56","nrind":"NORMAL","fast":null,"dtc":"2024-04-04","dy":"1","visit":"DOSING DAY","visitnum":"2.0","epoch":"TREATMENT","spec":null,"method":null},{"seq":"9","testcd":"AST","test":"Aspartate Aminotransferase","cat":"CHEMISTRY","orres":"26.94","orresu":"U/L","stresc":"26.94","stresn":"26.94","stresu":"U/L","stnrlo":"10","stnrhi":"40","nrind":"NORMAL","fast":null,"dtc":"2024-04-04","dy":"1","visit":"DOSING DAY","visitnum":"2.0","epoch":"TREATMENT","spec":null,"method":null},{"seq":"10","testcd":"CREAT","test":"Creatinine","cat":"CHEMISTRY","orres":"50.78","orresu":"umol/L","stresc":"50.78","stresn":"50.78","stresu":"umol/L","stnrlo":"62","stnrhi":"106","nrind":"LOW","fast":null,"dtc":"2024-04-04","dy":"1","visit":"DOSING DAY","visitnum":"2.0","epoch":"TREATMENT","spec":null,"method":null},{"seq":"11","testcd":"GLUC","test":"Glucose","cat":"CHEMISTRY","orres":"4.74","orresu":"mmol/L","stresc":"4.74","stresn":"4.74","stresu":"mmol/L","stnrlo":"3.9","stnrhi":"5.6","nrind":"NORMAL","fast":null,"dtc":"2024-04-04","dy":"1","visit":"DOSING DAY","visitnum":"2.0","epoch":"TREATMENT","spec":null,"method":null},{"seq":"12","testcd":"HGB","test":"Hemoglobin","cat":"HEMATOLOGY","orres":"162.59","orresu":"g/L","stresc":"162.59","stresn":"162.59","stresu":"g/L","stnrlo":"130","stnrhi":"175","nrind":"NORMAL","fast":null,"dtc":"2024-04-04","dy":"1","visit":"DOSING DAY","visitnum":"2.0","epoch":"TREATMENT","spec":null,"method":null},{"seq":"13","testcd":"PLAT","test":"Platelets","cat":"HEMATOLOGY","orres":"307.23","orresu":"10^9/L","stresc":"307.23","stresn":"307.23","stresu":"10^9/L","stnrlo":"150","stnrhi":"400","nrind":"NORMAL","fast":null,"dtc":"2024-04-04","dy":"1","visit":"DOSING DAY","visitnum":"2.0","epoch":"TREATMENT","spec":null,"method":null},{"seq":"14","testcd":"WBC","test":"Leukocytes","cat":"HEMATOLOGY","orres":null,"orresu":null,"stresc":null,"stresn":null,"stresu":null,"stnrlo":null,"stnrhi":null,"nrind":null,"fast":null,"dtc":"2024-04-04","dy":"1","visit":"DOSING DAY","visitnum":"2.0","epoch":"TREATMENT","spec":null,"method":null},{"seq":"15","testcd":"ALT","test":"Alanine Aminotransferase","cat":"CHEMISTRY","orres":"25.68","orresu":"U/L","stresc":"25.68","stresn":"25.68","stresu":"U/L","stnrlo":"7","stnrhi":"56","nrind":"NORMAL","fast":null,"dtc":"2024-04-05","dy":"2","visit":"DAY 2","visitnum":"3.0","epoch":"FOLLOW-UP","spec":null,"method":null},{"seq":"16","testcd":"AST","test":"Aspartate Aminotransferase","cat":"CHEMISTRY","orres":"27.53","orresu":"U/L","stresc":"27.53","stresn":"27.53","stresu":"U/L","stnrlo":"10","stnrhi":"40","nrind":"NORMAL","fast":null,"dtc":"2024-04-05","dy":"2","visit":"DAY 2","visitnum":"3.0","epoch":"FOLLOW-UP","spec":null,"method":null},{"seq":"17","testcd":"CREAT","test":"Creatinine","cat":"CHEMISTRY","orres":"49.05","orresu":"umol/L","stresc":"49.05","stresn":"49.05","stresu":"umol/L","stnrlo":"62","stnrhi":"106","nrind":"LOW","fast":null,"dtc":"2024-04-05","dy":"2","visit":"DAY 2","visitnum":"3.0","epoch":"FOLLOW-UP","spec":null,"method":null},{"seq":"18","testcd":"GLUC","test":"Glucose","cat":"CHEMISTRY","orres":"4.73","orresu":"mmol/L","stresc":"4.73","stresn":"4.73","stresu":"mmol/L","stnrlo":"3.9","stnrhi":"5.6","nrind":"NORMAL","fast":null,"dtc":"2024-04-05","dy":"2","visit":"DAY 2","visitnum":"3.0","epoch":"FOLLOW-UP","spec":null,"method":null},{"seq":"19","testcd":"HGB","test":"Hemoglobin","cat":"HEMATOLOGY","orres":"164.73","orresu":"g/L","stresc":"164.73","stresn":"164.73","stresu":"g/L","stnrlo":"130","stnrhi":"175","nrind":"NORMAL","fast":null,"dtc":"2024-04-05","dy":"2","visit":"DAY 2","visitnum":"3.0","epoch":"FOLLOW-UP","spec":null,"method":null},{"seq":"20","testcd":"PLAT","test":"Platelets","cat":"HEMATOLOGY","orres":"303.83","orresu":"10^9/L","stresc":"303.83","stresn":"303.83","stresu":"10^9/L","stnrlo":"150","stnrhi":"400","nrind":"NORMAL","fast":null,"dtc":"2024-04-05","dy":"2","visit":"DAY 2","visitnum":"3.0","epoch":"FOLLOW-UP","spec":null,"method":null},{"seq":"21","testcd":"WBC","test":"Leukocytes","cat":"HEMATOLOGY","orres":"6.87","orresu":"10^9/L","stresc":"6.87","stresn":"6.87","stresu":"10^9/L","stnrlo":"4.0","stnrhi":"11.0","nrind":"NORMAL","fast":null,"dtc":"2024-04-05","dy":"2","visit":"DAY 2","visitnum":"3.0","epoch":"FOLLOW-UP","spec":null,"method":null},{"seq":"22","testcd":"ALT","test":"Alanine Aminotransferase","cat":"CHEMISTRY","orres":"25.7","orresu":"U/L","stresc":"25.7","stresn":"25.7","stresu":"U/L","stnrlo":"7","stnrhi":"56","nrind":"NORMAL","fast":null,"dtc":"2024-04-12","dy":"9","visit":"WEEK 1","visitnum":"4.0","epoch":"FOLLOW-UP","spec":null,"method":null},{"seq":"23","testcd":"AST","test":"Aspartate Aminotransferase","cat":"CHEMISTRY","orres":"27.31","orresu":"U/L","stresc":"27.31","stresn":"27.31","stresu":"U/L","stnrlo":"10","stnrhi":"40","nrind":"NORMAL","fast":null,"dtc":"2024-04-12","dy":"9","visit":"WEEK 1","visitnum":"4.0","epoch":"FOLLOW-UP","spec":null,"method":null},{"seq":"24","testcd":"CREAT","test":"Creatinine","cat":"CHEMISTRY","orres":"52.43","orresu":"umol/L","stresc":"52.43","stresn":"52.43","stresu":"umol/L","stnrlo":"62","stnrhi":"106","nrind":"LOW","fast":null,"dtc":"2024-04-12","dy":"9","visit":"WEEK 1","visitnum":"4.0","epoch":"FOLLOW-UP","spec":null,"method":null},{"seq":"25","testcd":"GLUC","test":"Glucose","cat":"CHEMISTRY","orres":"4.7","orresu":"mmol/L","stresc":"4.7","stresn":"4.7","stresu":"mmol/L","stnrlo":"3.9","stnrhi":"5.6","nrind":"NORMAL","fast":null,"dtc":"2024-04-12","dy":"9","visit":"WEEK 1","visitnum":"4.0","epoch":"FOLLOW-UP","spec":null,"method":null},{"seq":"26","testcd":"HGB","test":"Hemoglobin","cat":"HEMATOLOGY","orres":"164.06","orresu":"g/L","stresc":"164.06","stresn":"164.06","stresu":"g/L","stnrlo":"130","stnrhi":"175","nrind":"NORMAL","fast":null,"dtc":"2024-04-12","dy":"9","visit":"WEEK 1","visitnum":"4.0","epoch":"FOLLOW-UP","spec":null,"method":null},{"seq":"27","testcd":"PLAT","test":"Platelets","cat":"HEMATOLOGY","orres":"296.3","orresu":"10^9/L","stresc":"296.3","stresn":"296.3","stresu":"10^9/L","stnrlo":"150","stnrhi":"400","nrind":"NORMAL","fast":null,"dtc":"2024-04-12","dy":"9","visit":"WEEK 1","visitnum":"4.0","epoch":"FOLLOW-UP","spec":null,"method":null},{"seq":"28","testcd":"WBC","test":"Leukocytes","cat":"HEMATOLOGY","orres":"7.48","orresu":"10^9/L","stresc":"7.48","stresn":"7.48","stresu":"10^9/L","stnrlo":"4.0","stnrhi":"11.0","nrind":"NORMAL","fast":null,"dtc":"2024-04-12","dy":"9","visit":"WEEK 1","visitnum":"4.0","epoch":"FOLLOW-UP","spec":null,"method":null},{"seq":"29","testcd":"ALT","test":"Alanine Aminotransferase","cat":"CHEMISTRY","orres":"25.14","orresu":"U/L","stresc":"25.14","stresn":"25.14","stresu":"U/L","stnrlo":"7","stnrhi":"56","nrind":"NORMAL","fast":null,"dtc":"2024-04-28","dy":"25","visit":"WEEK 3","visitnum":"5.0","epoch":"FOLLOW-UP","spec":null,"method":null},{"seq":"30","testcd":"AST","test":"Aspartate Aminotransferase","cat":"CHEMISTRY","orres":"26.61","orresu":"U/L","stresc":"26.61","stresn":"26.61","stresu":"U/L","stnrlo":"10","stnrhi":"40","nrind":"NORMAL","fast":null,"dtc":"2024-04-28","dy":"25","visit":"WEEK 3","visitnum":"5.0","epoch":"FOLLOW-UP","spec":null,"method":null},{"seq":"31","testcd":"CREAT","test":"Creatinine","cat":"CHEMISTRY","orres":"54.63","orresu":"umol/L","stresc":"54.63","stresn":"54.63","stresu":"umol/L","stnrlo":"62","stnrhi":"106","nrind":"LOW","fast":null,"dtc":"2024-04-28","dy":"25","visit":"WEEK 3","visitnum":"5.0","epoch":"FOLLOW-UP","spec":null,"method":null},{"seq":"32","testcd":"GLUC","test":"Glucose","cat":"CHEMISTRY","orres":"4.69","orresu":"mmol/L","stresc":"4.69","stresn":"4.69","stresu":"mmol/L","stnrlo":"3.9","stnrhi":"5.6","nrind":"NORMAL","fast":null,"dtc":"2024-04-28","dy":"25","visit":"WEEK 3","visitnum":"5.0","epoch":"FOLLOW-UP","spec":null,"method":null},{"seq":"33","testcd":"HGB","test":"Hemoglobin","cat":"HEMATOLOGY","orres":"164.95","orresu":"g/L","stresc":"164.95","stresn":"164.95","stresu":"g/L","stnrlo":"130","stnrhi":"175","nrind":"NORMAL","fast":null,"dtc":"2024-04-28","dy":"25","visit":"WEEK 3","visitnum":"5.0","epoch":"FOLLOW-UP","spec":null,"method":null},{"seq":"34","testcd":"PLAT","test":"Platelets","cat":"HEMATOLOGY","orres":"299.4","orresu":"10^9/L","stresc":"299.4","stresn":"299.4","stresu":"10^9/L","stnrlo":"150","stnrhi":"400","nrind":"NORMAL","fast":null,"dtc":"2024-04-28","dy":"25","visit":"WEEK 3","visitnum":"5.0","epoch":"FOLLOW-UP","spec":null,"method":null},{"seq":"35","testcd":"WBC","test":"Leukocytes","cat":"HEMATOLOGY","orres":"6.97","orresu":"10^9/L","stresc":"6.97","stresn":"6.97","stresu":"10^9/L","stnrlo":"4.0","stnrhi":"11.0","nrind":"NORMAL","fast":null,"dtc":"2024-04-28","dy":"25","visit":"WEEK 3","visitnum":"5.0","epoch":"FOLLOW-UP","spec":null,"method":null},{"seq":"36","testcd":"ALT","test":"Alanine Aminotransferase","cat":"CHEMISTRY","orres":"28.27","orresu":"U/L","stresc":"28.27","stresn":"28.27","stresu":"U/L","stnrlo":"7","stnrhi":"56","nrind":"NORMAL","fast":null,"dtc":"2024-05-13","dy":"40","visit":"WEEK 6","visitnum":"6.0","epoch":"FOLLOW-UP","spec":null,"method":null},{"seq":"37","testcd":"AST","test":"Aspartate Aminotransferase","cat":"CHEMISTRY","orres":"26.79","orresu":"U/L","stresc":"26.79","stresn":"26.79","stresu":"U/L","stnrlo":"10","stnrhi":"40","nrind":"NORMAL","fast":null,"dtc":"2024-05-13","dy":"40","visit":"WEEK 6","visitnum":"6.0","epoch":"FOLLOW-UP","spec":null,"method":null},{"seq":"38","testcd":"CREAT","test":"Creatinine","cat":"CHEMISTRY","orres":"55.99","orresu":"umol/L","stresc":"55.99","stresn":"55.99","stresu":"umol/L","stnrlo":"62","stnrhi":"106","nrind":"LOW","fast":null,"dtc":"2024-05-13","dy":"40","visit":"WEEK 6","visitnum":"6.0","epoch":"FOLLOW-UP","spec":null,"method":null},{"seq":"39","testcd":"GLUC","test":"Glucose","cat":"CHEMISTRY","orres":"4.72","orresu":"mmol/L","stresc":"4.72","stresn":"4.72","stresu":"mmol/L","stnrlo":"3.9","stnrhi":"5.6","nrind":"NORMAL","fast":null,"dtc":"2024-05-13","dy":"40","visit":"WEEK 6","visitnum":"6.0","epoch":"FOLLOW-UP","spec":null,"method":null},{"seq":"40","testcd":"HGB","test":"Hemoglobin","cat":"HEMATOLOGY","orres":"166.47","orresu":"g/L","stresc":"166.47","stresn":"166.47","stresu":"g/L","stnrlo":"130","stnrhi":"175","nrind":"NORMAL","fast":null,"dtc":"2024-05-13","dy":"40","visit":"WEEK 6","visitnum":"6.0","epoch":"FOLLOW-UP","spec":null,"method":null},{"seq":"41","testcd":"PLAT","test":"Platelets","cat":"HEMATOLOGY","orres":"297.9","orresu":"10^9/L","stresc":"297.9","stresn":"297.9","stresu":"10^9/L","stnrlo":"150","stnrhi":"400","nrind":"NORMAL","fast":null,"dtc":"2024-05-13","dy":"40","visit":"WEEK 6","visitnum":"6.0","epoch":"FOLLOW-UP","spec":null,"method":null},{"seq":"42","testcd":"WBC","test":"Leukocytes","cat":"HEMATOLOGY","orres":"7.44","orresu":"10^9/L","stresc":"7.44","stresn":"7.44","stresu":"10^9/L","stnrlo":"4.0","stnrhi":"11.0","nrind":"NORMAL","fast":null,"dtc":"2024-05-13","dy":"40","visit":"WEEK 6","visitnum":"6.0","epoch":"FOLLOW-UP","spec":null,"method":null},{"seq":"43","testcd":"ALT","test":"Alanine Aminotransferase","cat":"CHEMISTRY","orres":"26.58","orresu":"U/L","stresc":"26.58","stresn":"26.58","stresu":"U/L","stnrlo":"7","stnrhi":"56","nrind":"NORMAL","fast":null,"dtc":"2024-06-25","dy":"83","visit":"WEEK 12","visitnum":"7.0","epoch":"FOLLOW-UP","spec":null,"method":null},{"seq":"44","testcd":"AST","test":"Aspartate Aminotransferase","cat":"CHEMISTRY","orres":"27.01","orresu":"U/L","stresc":"27.01","stresn":"27.01","stresu":"U/L","stnrlo":"10","stnrhi":"40","nrind":"NORMAL","fast":null,"dtc":"2024-06-25","dy":"83","visit":"WEEK 12","visitnum":"7.0","epoch":"FOLLOW-UP","spec":null,"method":null},{"seq":"45","testcd":"CREAT","test":"Creatinine","cat":"CHEMISTRY","orres":"51.5","orresu":"umol/L","stresc":"51.5","stresn":"51.5","stresu":"umol/L","stnrlo":"62","stnrhi":"106","nrind":"LOW","fast":null,"dtc":"2024-06-25","dy":"83","visit":"WEEK 12","visitnum":"7.0","epoch":"FOLLOW-UP","spec":null,"method":null},{"seq":"46","testcd":"GLUC","test":"Glucose","cat":"CHEMISTRY","orres":"4.73","orresu":"mmol/L","stresc":"4.73","stresn":"4.73","stresu":"mmol/L","stnrlo":"3.9","stnrhi":"5.6","nrind":"NORMAL","fast":null,"dtc":"2024-06-25","dy":"83","visit":"WEEK 12","visitnum":"7.0","epoch":"FOLLOW-UP","spec":null,"method":null},{"seq":"47","testcd":"HGB","test":"Hemoglobin","cat":"HEMATOLOGY","orres":"168.45","orresu":"g/L","stresc":"168.45","stresn":"168.45","stresu":"g/L","stnrlo":"130","stnrhi":"175","nrind":"NORMAL","fast":null,"dtc":"2024-06-25","dy":"83","visit":"WEEK 12","visitnum":"7.0","epoch":"FOLLOW-UP","spec":null,"method":null},{"seq":"48","testcd":"PLAT","test":"Platelets","cat":"HEMATOLOGY","orres":"304.94","orresu":"10^9/L","stresc":"304.94","stresn":"304.94","stresu":"10^9/L","stnrlo":"150","stnrhi":"400","nrind":"NORMAL","fast":null,"dtc":"2024-06-25","dy":"83","visit":"WEEK 12","visitnum":"7.0","epoch":"FOLLOW-UP","spec":null,"method":null},{"seq":"49","testcd":"WBC","test":"Leukocytes","cat":"HEMATOLOGY","orres":"7.84","orresu":"10^9/L","stresc":"7.84","stresn":"7.84","stresu":"10^9/L","stnrlo":"4.0","stnrhi":"11.0","nrind":"NORMAL","fast":null,"dtc":"2024-06-25","dy":"83","visit":"WEEK 12","visitnum":"7.0","epoch":"FOLLOW-UP","spec":null,"method":null}]},"section_9_vital_signs":{"summary":{"total_records":56},"trends":{"BMI":[{"visit":"SCREENING","visitnum":"1.0","dtc":"2024-03-05","value":"33.7","unit":"kg/m2"},{"visit":"DOSING DAY","visitnum":"2.0","dtc":"2024-04-04","value":"33.3","unit":"kg/m2"},{"visit":"DAY 2","visitnum":"3.0","dtc":"2024-04-05","value":"34.4","unit":"kg/m2"},{"visit":"WEEK 1","visitnum":"4.0","dtc":"2024-04-12","value":"33.7","unit":"kg/m2"},{"visit":"WEEK 3","visitnum":"5.0","dtc":"2024-04-28","value":"32.3","unit":"kg/m2"},{"visit":"WEEK 6","visitnum":"6.0","dtc":"2024-05-13","value":"33.6","unit":"kg/m2"},{"visit":"WEEK 12","visitnum":"7.0","dtc":"2024-06-25","value":"33.5","unit":"kg/m2"}],"DIABP":[{"visit":"SCREENING","visitnum":"1.0","dtc":"2024-03-05","value":"85.7","unit":"mmHg"},{"visit":"DOSING DAY","visitnum":"2.0","dtc":"2024-04-04","value":"84.9","unit":"mmHg"},{"visit":"DAY 2","visitnum":"3.0","dtc":"2024-04-05","value":"86.3","unit":"mmHg"},{"visit":"WEEK 1","visitnum":"4.0","dtc":"2024-04-12","value":"86.3","unit":"mmHg"},{"visit":"WEEK 3","visitnum":"5.0","dtc":"2024-04-28","value":"85.9","unit":"mmHg"},{"visit":"WEEK 12","visitnum":"7.0","dtc":"2024-06-25","value":"86.3","unit":"mmHg"}],"HEIGHT":[{"visit":"SCREENING","visitnum":"1.0","dtc":"2024-03-05","value":"153.6","unit":"cm"},{"visit":"DOSING DAY","visitnum":"2.0","dtc":"2024-04-04","value":"154.8","unit":"cm"},{"visit":"DAY 2","visitnum":"3.0","dtc":"2024-04-05","value":"154.6","unit":"cm"},{"visit":"WEEK 1","visitnum":"4.0","dtc":"2024-04-12","value":"155.4","unit":"cm"},{"visit":"WEEK 3","visitnum":"5.0","dtc":"2024-04-28","value":"156.1","unit":"cm"},{"visit":"WEEK 6","visitnum":"6.0","dtc":"2024-05-13","value":"155.5","unit":"cm"},{"visit":"WEEK 12","visitnum":"7.0","dtc":"2024-06-25","value":"155.1","unit":"cm"}],"PULSE":[{"visit":"SCREENING","visitnum":"1.0","dtc":"2024-03-05","value":"59.5","unit":"beats/min"},{"visit":"DOSING DAY","visitnum":"2.0","dtc":"2024-04-04","value":"61.1","unit":"beats/min"},{"visit":"DAY 2","visitnum":"3.0","dtc":"2024-04-05","value":"64.3","unit":"beats/min"},{"visit":"WEEK 1","visitnum":"4.0","dtc":"2024-04-12","value":"68.2","unit":"beats/min"},{"visit":"WEEK 3","visitnum":"5.0","dtc":"2024-04-28","value":"66.7","unit":"beats/min"},{"visit":"WEEK 6","visitnum":"6.0","dtc":"2024-05-13","value":"65.4","unit":"beats/min"},{"visit":"WEEK 12","visitnum":"7.0","dtc":"2024-06-25","value":"70.7","unit":"beats/min"}],"RESP":[{"visit":"SCREENING","visitnum":"1.0","dtc":"2024-03-05","value":"11.4","unit":"breaths/min"},{"visit":"DOSING DAY","visitnum":"2.0","dtc":"2024-04-04","value":"13.3","unit":"breaths/min"},{"visit":"DAY 2","visitnum":"3.0","dtc":"2024-04-05","value":"13.3","unit":"breaths/min"},{"visit":"WEEK 1","visitnum":"4.0","dtc":"2024-04-12","value":"12.6","unit":"breaths/min"},{"visit":"WEEK 3","visitnum":"5.0","dtc":"2024-04-28","value":"12.7","unit":"breaths/min"},{"visit":"WEEK 6","visitnum":"6.0","dtc":"2024-05-13","value":"12.6","unit":"breaths/min"},{"visit":"WEEK 12","visitnum":"7.0","dtc":"2024-06-25","value":"13.6","unit":"breaths/min"}],"SYSBP":[{"visit":"SCREENING","visitnum":"1.0","dtc":"2024-03-05","value":"137.9","unit":"mmHg"},{"visit":"DOSING DAY","visitnum":"2.0","dtc":"2024-04-04","value":"135.3","unit":"mmHg"},{"visit":"DAY 2","visitnum":"3.0","dtc":"2024-04-05","value":"138.1","unit":"mmHg"},{"visit":"WEEK 1","visitnum":"4.0","dtc":"2024-04-12","value":"141.7","unit":"mmHg"},{"visit":"WEEK 3","visitnum":"5.0","dtc":"2024-04-28","value":"140.5","unit":"mmHg"},{"visit":"WEEK 6","visitnum":"6.0","dtc":"2024-05-13","value":"140.9","unit":"mmHg"},{"visit":"WEEK 12","visitnum":"7.0","dtc":"2024-06-25","value":"139.3","unit":"mmHg"}],"TEMP":[{"visit":"SCREENING","visitnum":"1.0","dtc":"2024-03-05","value":"37.2","unit":"C"},{"visit":"DOSING DAY","visitnum":"2.0","dtc":"2024-04-04","value":"37.4","unit":"C"},{"visit":"DAY 2","visitnum":"3.0","dtc":"2024-04-05","value":"37.2","unit":"C"},{"visit":"WEEK 1","visitnum":"4.0","dtc":"2024-04-12","value":"37.1","unit":"C"},{"visit":"WEEK 3","visitnum":"5.0","dtc":"2024-04-28","value":"37.3","unit":"C"},{"visit":"WEEK 6","visitnum":"6.0","dtc":"2024-05-13","value":"37.1","unit":"C"},{"visit":"WEEK 12","visitnum":"7.0","dtc":"2024-06-25","value":"37.2","unit":"C"}],"WEIGHT":[{"visit":"SCREENING","visitnum":"1.0","dtc":"2024-03-05","value":"79.6","unit":"kg"},{"visit":"DOSING DAY","visitnum":"2.0","dtc":"2024-04-04","value":"79.9","unit":"kg"},{"visit":"DAY 2","visitnum":"3.0","dtc":"2024-04-05","value":"82.2","unit":"kg"},{"visit":"WEEK 1","visitnum":"4.0","dtc":"2024-04-12","value":"81.4","unit":"kg"},{"visit":"WEEK 3","visitnum":"5.0","dtc":"2024-04-28","value":"78.6","unit":"kg"},{"visit":"WEEK 6","visitnum":"6.0","dtc":"2024-05-13","value":"81.3","unit":"kg"},{"visit":"WEEK 12","visitnum":"7.0","dtc":"2024-06-25","value":"80.6","unit":"kg"}]},"results":[{"seq":"1","testcd":"BMI","test":"BMI","cat":null,"orres":"33.7","orresu":"kg/m2","stresc":"33.7","stresn":"33.7","stresu":"kg/m2","stnrlo":null,"stnrhi":null,"nrind":null,"pos":null,"loc":null,"dtc":"2024-03-05","dy":"-30","visit":"SCREENING","visitnum":"1.0","epoch":"SCREENING"},{"seq":"2","testcd":"DIABP","test":"Diastolic Blood Pressure","cat":null,"orres":"85.7","orresu":"mmHg","stresc":"85.7","stresn":"85.7","stresu":"mmHg","stnrlo":null,"stnrhi":null,"nrind":null,"pos":null,"loc":null,"dtc":"2024-03-05","dy":"-30","visit":"SCREENING","visitnum":"1.0","epoch":"SCREENING"},{"seq":"3","testcd":"HEIGHT","test":"Height","cat":null,"orres":"153.6","orresu":"cm","stresc":"153.6","stresn":"153.6","stresu":"cm","stnrlo":null,"stnrhi":null,"nrind":null,"pos":null,"loc":null,"dtc":"2024-03-05","dy":"-30","visit":"SCREENING","visitnum":"1.0","epoch":"SCREENING"},{"seq":"4","testcd":"PULSE","test":"Pulse Rate","cat":null,"orres":"59.5","orresu":"beats/min","stresc":"59.5","stresn":"59.5","stresu":"beats/min","stnrlo":null,"stnrhi":null,"nrind":null,"pos":null,"loc":null,"dtc":"2024-03-05","dy":"-30","visit":"SCREENING","visitnum":"1.0","epoch":"SCREENING"},{"seq":"5","testcd":"RESP","test":"Respiratory Rate","cat":null,"orres":"11.4","orresu":"breaths/min","stresc":"11.4","stresn":"11.4","stresu":"breaths/min","stnrlo":null,"stnrhi":null,"nrind":null,"pos":null,"loc":null,"dtc":"2024-03-05","dy":"-30","visit":"SCREENING","visitnum":"1.0","epoch":"SCREENING"},{"seq":"6","testcd":"SYSBP","test":"Systolic Blood Pressure","cat":null,"orres":"137.9","orresu":"mmHg","stresc":"137.9","stresn":"137.9","stresu":"mmHg","stnrlo":null,"stnrhi":null,"nrind":null,"pos":null,"loc":null,"dtc":"2024-03-05","dy":"-30","visit":"SCREENING","visitnum":"1.0","epoch":"SCREENING"},{"seq":"7","testcd":"TEMP","test":"Temperature","cat":null,"orres":"37.2","orresu":"C","stresc":"37.2","stresn":"37.2","stresu":"C","stnrlo":null,"stnrhi":null,"nrind":null,"pos":null,"loc":null,"dtc":"2024-03-05","dy":"-30","visit":"SCREENING","visitnum":"1.0","epoch":"SCREENING"},{"seq":"8","testcd":"WEIGHT","test":"Weight","cat":null,"orres":"79.6","orresu":"kg","stresc":"79.6","stresn":"79.6","stresu":"kg","stnrlo":null,"stnrhi":null,"nrind":null,"pos":null,"loc":null,"dtc":"2024-03-05","dy":"-30","visit":"SCREENING","visitnum":"1.0","epoch":"SCREENING"},{"seq":"9","testcd":"BMI","test":"BMI","cat":null,"orres":"33.3","orresu":"kg/m2","stresc":"33.3","stresn":"33.3","stresu":"kg/m2","stnrlo":null,"stnrhi":null,"nrind":null,"pos":null,"loc":null,"dtc":"2024-04-04","dy":"1","visit":"DOSING DAY","visitnum":"2.0","epoch":"TREATMENT"},{"seq":"10","testcd":"DIABP","test":"Diastolic Blood Pressure","cat":null,"orres":"84.9","orresu":"mmHg","stresc":"84.9","stresn":"84.9","stresu":"mmHg","stnrlo":null,"stnrhi":null,"nrind":null,"pos":null,"loc":null,"dtc":"2024-04-04","dy":"1","visit":"DOSING DAY","visitnum":"2.0","epoch":"TREATMENT"},{"seq":"11","testcd":"HEIGHT","test":"Height","cat":null,"orres":"154.8","orresu":"cm","stresc":"154.8","stresn":"154.8","stresu":"cm","stnrlo":null,"stnrhi":null,"nrind":null,"pos":null,"loc":null,"dtc":"2024-04-04","dy":"1","visit":"DOSING DAY","visitnum":"2.0","epoch":"TREATMENT"},{"seq":"12","testcd":"PULSE","test":"Pulse Rate","cat":null,"orres":"61.1","orresu":"beats/min","stresc":"61.1","stresn":"61.1","stresu":"beats/min","stnrlo":null,"stnrhi":null,"nrind":null,"pos":null,"loc":null,"dtc":"2024-04-04","dy":"1","visit":"DOSING DAY","visitnum":"2.0","epoch":"TREATMENT"},{"seq":"13","testcd":"RESP","test":"Respiratory Rate","cat":null,"orres":"13.3","orresu":"breaths/min","stresc":"13.3","stresn":"13.3","stresu":"breaths/min","stnrlo":null,"stnrhi":null,"nrind":null,"pos":null,"loc":null,"dtc":"2024-04-04","dy":"1","visit":"DOSING DAY","visitnum":"2.0","epoch":"TREATMENT"},{"seq":"14","testcd":"SYSBP","test":"Systolic Blood Pressure","cat":null,"orres":"135.3","orresu":"mmHg","stresc":"135.3","stresn":"135.3","stresu":"mmHg","stnrlo":null,"stnrhi":null,"nrind":null,"pos":null,"loc":null,"dtc":"2024-04-04","dy":"1","visit":"DOSING DAY","visitnum":"2.0","epoch":"TREATMENT"},{"seq":"15","testcd":"TEMP","test":"Temperature","cat":null,"orres":"37.4","orresu":"C","stresc":"37.4","stresn":"37.4","stresu":"C","stnrlo":null,"stnrhi":null,"nrind":null,"pos":null,"loc":null,"dtc":"2024-04-04","dy":"1","visit":"DOSING DAY","visitnum":"2.0","epoch":"TREATMENT"},{"seq":"16","testcd":"WEIGHT","test":"Weight","cat":null,"orres":"79.9","orresu":"kg","stresc":"79.9","stresn":"79.9","stresu":"kg","stnrlo":null,"stnrhi":null,"nrind":null,"pos":null,"loc":null,"dtc":"2024-04-04","dy":"1","visit":"DOSING DAY","visitnum":"2.0","epoch":"TREATMENT"},{"seq":"17","testcd":"BMI","test":"BMI","cat":null,"orres":"34.4","orresu":"kg/m2","stresc":"34.4","stresn":"34.4","stresu":"kg/m2","stnrlo":null,"stnrhi":null,"nrind":null,"pos":null,"loc":null,"dtc":"2024-04-05","dy":"2","visit":"DAY 2","visitnum":"3.0","epoch":"FOLLOW-UP"},{"seq":"18","testcd":"DIABP","test":"Diastolic Blood Pressure","cat":null,"orres":"86.3","orresu":"mmHg","stresc":"86.3","stresn":"86.3","stresu":"mmHg","stnrlo":null,"stnrhi":null,"nrind":null,"pos":null,"loc":null,"dtc":"2024-04-05","dy":"2","visit":"DAY 2","visitnum":"3.0","epoch":"FOLLOW-UP"},{"seq":"19","testcd":"HEIGHT","test":"Height","cat":null,"orres":"154.6","orresu":"cm","stresc":"154.6","stresn":"154.6","stresu":"cm","stnrlo":null,"stnrhi":null,"nrind":null,"pos":null,"loc":null,"dtc":"2024-04-05","dy":"2","visit":"DAY 2","visitnum":"3.0","epoch":"FOLLOW-UP"},{"seq":"20","testcd":"PULSE","test":"Pulse Rate","cat":null,"orres":"64.3","orresu":"beats/min","stresc":"64.3","stresn":"64.3","stresu":"beats/min","stnrlo":null,"stnrhi":null,"nrind":null,"pos":null,"loc":null,"dtc":"2024-04-05","dy":"2","visit":"DAY 2","visitnum":"3.0","epoch":"FOLLOW-UP"},{"seq":"21","testcd":"RESP","test":"Respiratory Rate","cat":null,"orres":"13.3","orresu":"breaths/min","stresc":"13.3","stresn":"13.3","stresu":"breaths/min","stnrlo":null,"stnrhi":null,"nrind":null,"pos":null,"loc":null,"dtc":"2024-04-05","dy":"2","visit":"DAY 2","visitnum":"3.0","epoch":"FOLLOW-UP"},{"seq":"22","testcd":"SYSBP","test":"Systolic Blood Pressure","cat":null,"orres":"138.1","orresu":"mmHg","stresc":"138.1","stresn":"138.1","stresu":"mmHg","stnrlo":null,"stnrhi":null,"nrind":null,"pos":null,"loc":null,"dtc":"2024-04-05","dy":"2","visit":"DAY 2","visitnum":"3.0","epoch":"FOLLOW-UP"},{"seq":"23","testcd":"TEMP","test":"Temperature","cat":null,"orres":"37.2","orresu":"C","stresc":"37.2","stresn":"37.2","stresu":"C","stnrlo":null,"stnrhi":null,"nrind":null,"pos":null,"loc":null,"dtc":"2024-04-05","dy":"2","visit":"DAY 2","visitnum":"3.0","epoch":"FOLLOW-UP"},{"seq":"24","testcd":"WEIGHT","test":"Weight","cat":null,"orres":"82.2","orresu":"kg","stresc":"82.2","stresn":"82.2","stresu":"kg","stnrlo":null,"stnrhi":null,"nrind":null,"pos":null,"loc":null,"dtc":"2024-04-05","dy":"2","visit":"DAY 2","visitnum":"3.0","epoch":"FOLLOW-UP"},{"seq":"25","testcd":"BMI","test":"BMI","cat":null,"orres":"33.7","orresu":"kg/m2","stresc":"33.7","stresn":"33.7","stresu":"kg/m2","stnrlo":null,"stnrhi":null,"nrind":null,"pos":null,"loc":null,"dtc":"2024-04-12","dy":"9","visit":"WEEK 1","visitnum":"4.0","epoch":"FOLLOW-UP"},{"seq":"26","testcd":"DIABP","test":"Diastolic Blood Pressure","cat":null,"orres":"86.3","orresu":"mmHg","stresc":"86.3","stresn":"86.3","stresu":"mmHg","stnrlo":null,"stnrhi":null,"nrind":null,"pos":null,"loc":null,"dtc":"2024-04-12","dy":"9","visit":"WEEK 1","visitnum":"4.0","epoch":"FOLLOW-UP"},{"seq":"27","testcd":"HEIGHT","test":"Height","cat":null,"orres":"155.4","orresu":"cm","stresc":"155.4","stresn":"155.4","stresu":"cm","stnrlo":null,"stnrhi":null,"nrind":null,"pos":null,"loc":null,"dtc":"2024-04-12","dy":"9","visit":"WEEK 1","visitnum":"4.0","epoch":"FOLLOW-UP"},{"seq":"28","testcd":"PULSE","test":"Pulse Rate","cat":null,"orres":"68.2","orresu":"beats/min","stresc":"68.2","stresn":"68.2","stresu":"beats/min","stnrlo":null,"stnrhi":null,"nrind":null,"pos":null,"loc":null,"dtc":"2024-04-12","dy":"9","visit":"WEEK 1","visitnum":"4.0","epoch":"FOLLOW-UP"},{"seq":"29","testcd":"RESP","test":"Respiratory Rate","cat":null,"orres":"12.6","orresu":"breaths/min","stresc":"12.6","stresn":"12.6","stresu":"breaths/min","stnrlo":null,"stnrhi":null,"nrind":null,"pos":null,"loc":null,"dtc":"2024-04-12","dy":"9","visit":"WEEK 1","visitnum":"4.0","epoch":"FOLLOW-UP"},{"seq":"30","testcd":"SYSBP","test":"Systolic Blood Pressure","cat":null,"orres":"141.7","orresu":"mmHg","stresc":"141.7","stresn":"141.7","stresu":"mmHg","stnrlo":null,"stnrhi":null,"nrind":null,"pos":null,"loc":null,"dtc":"2024-04-12","dy":"9","visit":"WEEK 1","visitnum":"4.0","epoch":"FOLLOW-UP"},{"seq":"31","testcd":"TEMP","test":"Temperature","cat":null,"orres":"37.1","orresu":"C","stresc":"37.1","stresn":"37.1","stresu":"C","stnrlo":null,"stnrhi":null,"nrind":null,"pos":null,"loc":null,"dtc":"2024-04-12","dy":"9","visit":"WEEK 1","visitnum":"4.0","epoch":"FOLLOW-UP"},{"seq":"32","testcd":"WEIGHT","test":"Weight","cat":null,"orres":"81.4","orresu":"kg","stresc":"81.4","stresn":"81.4","stresu":"kg","stnrlo":null,"stnrhi":null,"nrind":null,"pos":null,"loc":null,"dtc":"2024-04-12","dy":"9","visit":"WEEK 1","visitnum":"4.0","epoch":"FOLLOW-UP"},{"seq":"33","testcd":"BMI","test":"BMI","cat":null,"orres":"32.3","orresu":"kg/m2","stresc":"32.3","stresn":"32.3","stresu":"kg/m2","stnrlo":null,"stnrhi":null,"nrind":null,"pos":null,"loc":null,"dtc":"2024-04-28","dy":"25","visit":"WEEK 3","visitnum":"5.0","epoch":"FOLLOW-UP"},{"seq":"34","testcd":"DIABP","test":"Diastolic Blood Pressure","cat":null,"orres":"85.9","orresu":"mmHg","stresc":"85.9","stresn":"85.9","stresu":"mmHg","stnrlo":null,"stnrhi":null,"nrind":null,"pos":null,"loc":null,"dtc":"2024-04-28","dy":"25","visit":"WEEK 3","visitnum":"5.0","epoch":"FOLLOW-UP"},{"seq":"35","testcd":"HEIGHT","test":"Height","cat":null,"orres":"156.1","orresu":"cm","stresc":"156.1","stresn":"156.1","stresu":"cm","stnrlo":null,"stnrhi":null,"nrind":null,"pos":null,"loc":null,"dtc":"2024-04-28","dy":"25","visit":"WEEK 3","visitnum":"5.0","epoch":"FOLLOW-UP"},{"seq":"36","testcd":"PULSE","test":"Pulse Rate","cat":null,"orres":"66.7","orresu":"beats/min","stresc":"66.7","stresn":"66.7","stresu":"beats/min","stnrlo":null,"stnrhi":null,"nrind":null,"pos":null,"loc":null,"dtc":"2024-04-28","dy":"25","visit":"WEEK 3","visitnum":"5.0","epoch":"FOLLOW-UP"},{"seq":"37","testcd":"RESP","test":"Respiratory Rate","cat":null,"orres":"12.7","orresu":"breaths/min","stresc":"12.7","stresn":"12.7","stresu":"breaths/min","stnrlo":null,"stnrhi":null,"nrind":null,"pos":null,"loc":null,"dtc":"2024-04-28","dy":"25","visit":"WEEK 3","visitnum":"5.0","epoch":"FOLLOW-UP"},{"seq":"38","testcd":"SYSBP","test":"Systolic Blood Pressure","cat":null,"orres":"140.5","orresu":"mmHg","stresc":"140.5","stresn":"140.5","stresu":"mmHg","stnrlo":null,"stnrhi":null,"nrind":null,"pos":null,"loc":null,"dtc":"2024-04-28","dy":"25","visit":"WEEK 3","visitnum":"5.0","epoch":"FOLLOW-UP"},{"seq":"39","testcd":"TEMP","test":"Temperature","cat":null,"orres":"37.3","orresu":"C","stresc":"37.3","stresn":"37.3","stresu":"C","stnrlo":null,"stnrhi":null,"nrind":null,"pos":null,"loc":null,"dtc":"2024-04-28","dy":"25","visit":"WEEK 3","visitnum":"5.0","epoch":"FOLLOW-UP"},{"seq":"40","testcd":"WEIGHT","test":"Weight","cat":null,"orres":"78.6","orresu":"kg","stresc":"78.6","stresn":"78.6","stresu":"kg","stnrlo":null,"stnrhi":null,"nrind":null,"pos":null,"loc":null,"dtc":"2024-04-28","dy":"25","visit":"WEEK 3","visitnum":"5.0","epoch":"FOLLOW-UP"},{"seq":"41","testcd":"BMI","test":"BMI","cat":null,"orres":"33.6","orresu":"kg/m2","stresc":"33.6","stresn":"33.6","stresu":"kg/m2","stnrlo":null,"stnrhi":null,"nrind":null,"pos":null,"loc":null,"dtc":"2024-05-13","dy":"40","visit":"WEEK 6","visitnum":"6.0","epoch":"FOLLOW-UP"},{"seq":"42","testcd":"DIABP","test":"Diastolic Blood Pressure","cat":null,"orres":null,"orresu":null,"stresc":null,"stresn":null,"stresu":null,"stnrlo":null,"stnrhi":null,"nrind":null,"pos":null,"loc":null,"dtc":"2024-05-13","dy":"40","visit":"WEEK 6","visitnum":"6.0","epoch":"FOLLOW-UP"},{"seq":"43","testcd":"HEIGHT","test":"Height","cat":null,"orres":"155.5","orresu":"cm","stresc":"155.5","stresn":"155.5","stresu":"cm","stnrlo":null,"stnrhi":null,"nrind":null,"pos":null,"loc":null,"dtc":"2024-05-13","dy":"40","visit":"WEEK 6","visitnum":"6.0","epoch":"FOLLOW-UP"},{"seq":"44","testcd":"PULSE","test":"Pulse Rate","cat":null,"orres":"65.4","orresu":"beats/min","stresc":"65.4","stresn":"65.4","stresu":"beats/min","stnrlo":null,"stnrhi":null,"nrind":null,"pos":null,"loc":null,"dtc":"2024-05-13","dy":"40","visit":"WEEK 6","visitnum":"6.0","epoch":"FOLLOW-UP"},{"seq":"45","testcd":"RESP","test":"Respiratory Rate","cat":null,"orres":"12.6","orresu":"breaths/min","stresc":"12.6","stresn":"12.6","stresu":"breaths/min","stnrlo":null,"stnrhi":null,"nrind":null,"pos":null,"loc":null,"dtc":"2024-05-13","dy":"40","visit":"WEEK 6","visitnum":"6.0","epoch":"FOLLOW-UP"},{"seq":"46","testcd":"SYSBP","test":"Systolic Blood Pressure","cat":null,"orres":"140.9","orresu":"mmHg","stresc":"140.9","stresn":"140.9","stresu":"mmHg","stnrlo":null,"stnrhi":null,"nrind":null,"pos":null,"loc":null,"dtc":"2024-05-13","dy":"40","visit":"WEEK 6","visitnum":"6.0","epoch":"FOLLOW-UP"},{"seq":"47","testcd":"TEMP","test":"Temperature","cat":null,"orres":"37.1","orresu":"C","stresc":"37.1","stresn":"37.1","stresu":"C","stnrlo":null,"stnrhi":null,"nrind":null,"pos":null,"loc":null,"dtc":"2024-05-13","dy":"40","visit":"WEEK 6","visitnum":"6.0","epoch":"FOLLOW-UP"},{"seq":"48","testcd":"WEIGHT","test":"Weight","cat":null,"orres":"81.3","orresu":"kg","stresc":"81.3","stresn":"81.3","stresu":"kg","stnrlo":null,"stnrhi":null,"nrind":null,"pos":null,"loc":null,"dtc":"2024-05-13","dy":"40","visit":"WEEK 6","visitnum":"6.0","epoch":"FOLLOW-UP"},{"seq":"49","testcd":"BMI","test":"BMI","cat":null,"orres":"33.5","orresu":"kg/m2","stresc":"33.5","stresn":"33.5","stresu":"kg/m2","stnrlo":null,"stnrhi":null,"nrind":null,"pos":null,"loc":null,"dtc":"2024-06-25","dy":"83","visit":"WEEK 12","visitnum":"7.0","epoch":"FOLLOW-UP"},{"seq":"50","testcd":"DIABP","test":"Diastolic Blood Pressure","cat":null,"orres":"86.3","orresu":"mmHg","stresc":"86.3","stresn":"86.3","stresu":"mmHg","stnrlo":null,"stnrhi":null,"nrind":null,"pos":null,"loc":null,"dtc":"2024-06-25","dy":"83","visit":"WEEK 12","visitnum":"7.0","epoch":"FOLLOW-UP"},{"seq":"51","testcd":"HEIGHT","test":"Height","cat":null,"orres":"155.1","orresu":"cm","stresc":"155.1","stresn":"155.1","stresu":"cm","stnrlo":null,"stnrhi":null,"nrind":null,"pos":null,"loc":null,"dtc":"2024-06-25","dy":"83","visit":"WEEK 12","visitnum":"7.0","epoch":"FOLLOW-UP"},{"seq":"52","testcd":"PULSE","test":"Pulse Rate","cat":null,"orres":"70.7","orresu":"beats/min","stresc":"70.7","stresn":"70.7","stresu":"beats/min","stnrlo":null,"stnrhi":null,"nrind":null,"pos":null,"loc":null,"dtc":"2024-06-25","dy":"83","visit":"WEEK 12","visitnum":"7.0","epoch":"FOLLOW-UP"},{"seq":"53","testcd":"RESP","test":"Respiratory Rate","cat":null,"orres":"13.6","orresu":"breaths/min","stresc":"13.6","stresn":"13.6","stresu":"breaths/min","stnrlo":null,"stnrhi":null,"nrind":null,"pos":null,"loc":null,"dtc":"2024-06-25","dy":"83","visit":"WEEK 12","visitnum":"7.0","epoch":"FOLLOW-UP"},{"seq":"54","testcd":"SYSBP","test":"Systolic Blood Pressure","cat":null,"orres":"139.3","orresu":"mmHg","stresc":"139.3","stresn":"139.3","stresu":"mmHg","stnrlo":null,"stnrhi":null,"nrind":null,"pos":null,"loc":null,"dtc":"2024-06-25","dy":"83","visit":"WEEK 12","visitnum":"7.0","epoch":"FOLLOW-UP"},{"seq":"55","testcd":"TEMP","test":"Temperature","cat":null,"orres":"37.2","orresu":"C","stresc":"37.2","stresn":"37.2","stresu":"C","stnrlo":null,"stnrhi":null,"nrind":null,"pos":null,"loc":null,"dtc":"2024-06-25","dy":"83","visit":"WEEK 12","visitnum":"7.0","epoch":"FOLLOW-UP"},{"seq":"56","testcd":"WEIGHT","test":"Weight","cat":null,"orres":"80.6","orresu":"kg","stresc":"80.6","stresn":"80.6","stresu":"kg","stnrlo":null,"stnrhi":null,"nrind":null,"pos":null,"loc":null,"dtc":"2024-06-25","dy":"83","visit":"WEEK 12","visitnum":"7.0","epoch":"FOLLOW-UP"}]},"section_10_questionnaires_and_scores":{"questionnaires":[{"seq":"1","testcd":"MADRS01","test":"Apparent Sadness","cat":"MADRS","scat":null,"orres":"3","stresc":"3","stresn":"3.0","dtc":"2024-03-09","dy":"-26","visit":"SCREENING","visitnum":"1.0"},{"seq":"2","testcd":"MADRS02","test":"Reported Sadness","cat":"MADRS","scat":null,"orres":"3","stresc":"3","stresn":"3.0","dtc":"2024-03-09","dy":"-26","visit":"SCREENING","visitnum":"1.0"},{"seq":"3","testcd":"MADRS03","test":"Inner Tension","cat":"MADRS","scat":null,"orres":"2","stresc":"2","stresn":"2.0","dtc":"2024-03-09","dy":"-26","visit":"SCREENING","visitnum":"1.0"},{"seq":"4","testcd":"MADRS04","test":"Reduced Sleep","cat":"MADRS","scat":null,"orres":"5","stresc":"5","stresn":"5.0","dtc":"2024-03-09","dy":"-26","visit":"SCREENING","visitnum":"1.0"},{"seq":"5","testcd":"MADRS05","test":"Reduced Appetite","cat":"MADRS","scat":null,"orres":"0","stresc":"0","stresn":"0.0","dtc":"2024-03-09","dy":"-26","visit":"SCREENING","visitnum":"1.0"},{"seq":"6","testcd":"MADRS06","test":"Concentration Difficulties","cat":"MADRS","scat":null,"orres":"4","stresc":"4","stresn":"4.0","dtc":"2024-03-09","dy":"-26","visit":"SCREENING","visitnum":"1.0"},{"seq":"7","testcd":"MADRS07","test":"Lassitude","cat":"MADRS","scat":null,"orres":"2","stresc":"2","stresn":"2.0","dtc":"2024-03-09","dy":"-26","visit":"SCREENING","visitnum":"1.0"},{"seq":"8","testcd":"MADRS08","test":"Inability to Feel","cat":"MADRS","scat":null,"orres":"3","stresc":"3","stresn":"3.0","dtc":"2024-03-09","dy":"-26","visit":"SCREENING","visitnum":"1.0"},{"seq":"9","testcd":"MADRS09","test":"Pessimistic Thoughts","cat":"MADRS","scat":null,"orres":"2","stresc":"2","stresn":"2.0","dtc":"2024-03-09","dy":"-26","visit":"SCREENING","visitnum":"1.0"},{"seq":"10","testcd":"MADRS10","test":"Suicidal Thoughts","cat":"MADRS","scat":null,"orres":"2","stresc":"2","stresn":"2.0","dtc":"2024-03-09","dy":"-26","visit":"SCREENING","visitnum":"1.0"},{"seq":"11","testcd":"MADRSTOT","test":"MADRS Total Score","cat":"MADRS","scat":"TOTAL","orres":"26.0","stresc":"26.0","stresn":"26.0","dtc":"2024-03-09","dy":"-26","visit":"SCREENING","visitnum":"1.0"},{"seq":"12","testcd":"MADRS01","test":"Apparent Sadness","cat":"MADRS","scat":null,"orres":"2","stresc":"2","stresn":"2.0","dtc":"2024-04-04","dy":"1","visit":"DOSING DAY","visitnum":"2.0"},{"seq":"13","testcd":"MADRS02","test":"Reported Sadness","cat":"MADRS","scat":null,"orres":"4","stresc":"4","stresn":"4.0","dtc":"2024-04-04","dy":"1","visit":"DOSING DAY","visitnum":"2.0"},{"seq":"14","testcd":"MADRS03","test":"Inner Tension","cat":"MADRS","scat":null,"orres":"3","stresc":"3","stresn":"3.0","dtc":"2024-04-04","dy":"1","visit":"DOSING DAY","visitnum":"2.0"},{"seq":"15","testcd":"MADRS04","test":"Reduced Sleep","cat":"MADRS","scat":null,"orres":"3","stresc":"3","stresn":"3.0","dtc":"2024-04-04","dy":"1","visit":"DOSING DAY","visitnum":"2.0"},{"seq":"16","testcd":"MADRS05","test":"Reduced Appetite","cat":"MADRS","scat":null,"orres":"1","stresc":"1","stresn":"1.0","dtc":"2024-04-04","dy":"1","visit":"DOSING DAY","visitnum":"2.0"},{"seq":"17","testcd":"MADRS06","test":"Concentration Difficulties","cat":"MADRS","scat":null,"orres":"3","stresc":"3","stresn":"3.0","dtc":"2024-04-04","dy":"1","visit":"DOSING DAY","visitnum":"2.0"},{"seq":"18","testcd":"MADRS07","test":"Lassitude","cat":"MADRS","scat":null,"orres":"2","stresc":"2","stresn":"2.0","dtc":"2024-04-04","dy":"1","visit":"DOSING DAY","visitnum":"2.0"},{"seq":"19","testcd":"MADRS08","test":"Inability to Feel","cat":"MADRS","scat":null,"orres":"3","stresc":"3","stresn":"3.0","dtc":"2024-04-04","dy":"1","visit":"DOSING DAY","visitnum":"2.0"},{"seq":"20","testcd":"MADRS09","test":"Pessimistic Thoughts","cat":"MADRS","scat":null,"orres":"3","stresc":"3","stresn":"3.0","dtc":"2024-04-04","dy":"1","visit":"DOSING DAY","visitnum":"2.0"},{"seq":"21","testcd":"MADRS10","test":"Suicidal Thoughts","cat":"MADRS","scat":null,"orres":"3","stresc":"3","stresn":"3.0","dtc":"2024-04-04","dy":"1","visit":"DOSING DAY","visitnum":"2.0"},{"seq":"22","testcd":"MADRSTOT","test":"MADRS Total Score","cat":"MADRS","scat":"TOTAL","orres":"27.0","stresc":"27.0","stresn":"27.0","dtc":"2024-04-04","dy":"1","visit":"DOSING DAY","visitnum":"2.0"}],"findings_about":[]},"section_11_protocol_deviations":{"deviations":[{"seq":"1","term":"Missed PSILOCYBIN dose on 2024-04-24","decod":"MISSED DOSE","cat":"MINOR","scat":"DOSING","start_dtc":"2024-04-24","end_dtc":null,"visit":null},{"seq":"2","term":"Missed PSILOCYBIN dose on 2024-05-12","decod":"MISSED DOSE","cat":"MINOR","scat":"DOSING","start_dtc":"2024-05-12","end_dtc":null,"visit":null},{"seq":"3","term":"Visit WEEK 6 occurred 3 days early (Day 40 vs planned Day 43)","decod":"VISIT OCCURRED OUTSIDE VISIT WINDOW","cat":"MINOR","scat":"VISIT WINDOW","start_dtc":"2024-05-13","end_dtc":null,"visit":null},{"seq":"4","term":"Missed PSILOCYBIN dose on 2024-05-13","decod":"MISSED DOSE","cat":"MINOR","scat":"DOSING","start_dtc":"2024-05-13","end_dtc":null,"visit":null},{"seq":"5","term":"Vital signs assessment not performed at WEEK 6","decod":"MISSED ASSESSMENT","cat":"MINOR","scat":"ASSESSMENT","start_dtc":"2024-05-13","end_dtc":null,"visit":null},{"seq":"6","term":"Missed PSILOCYBIN dose on 2024-05-19","decod":"MISSED DOSE","cat":"MINOR","scat":"DOSING","start_dtc":"2024-05-19","end_dtc":null,"visit":null},{"seq":"7","term":"Missed PSILOCYBIN dose on 2024-05-21","decod":"MISSED DOSE","cat":"MINOR","scat":"DOSING","start_dtc":"2024-05-21","end_dtc":null,"visit":null},{"seq":"8","term":"Missed PSILOCYBIN dose on 2024-05-22","decod":"MISSED DOSE","cat":"MINOR","scat":"DOSING","start_dtc":"2024-05-22","end_dtc":null,"visit":null},{"seq":"9","term":"Visit WEEK 12 occurred 2 days early (Day 83 vs planned Day 85)","decod":"VISIT OCCURRED OUTSIDE VISIT WINDOW","cat":"MINOR","scat":"VISIT WINDOW","start_dtc":"2024-06-25","end_dtc":null,"visit":null}],"total":9},"section_12_disposition":{"completion_status":"COMPLETED","disposition_records":[{"seq":"1","term":"INFORMED CONSENT OBTAINED","decod":"INFORMED CONSENT OBTAINED","cat":"PROTOCOL MILESTONE","scat":null,"dtc":"2024-03-09","dy":null,"visit":null,"epoch":"SCREENING"},{"seq":"2","term":"RANDOMIZED","decod":"RANDOMIZED","cat":"PROTOCOL MILESTONE","scat":null,"dtc":"2024-04-04","dy":null,"visit":null,"epoch":"TREATMENT"},{"seq":"3","term":"COMPLETED","decod":"COMPLETED","cat":"DISPOSITION EVENT","scat":null,"dtc":"2024-07-26","dy":null,"visit":null,"epoch":"FOLLOW-UP"}],"death":null},"section_13_hospitalizations":{"items":[],"total":0},"section_14_substance_use":{"items":[{"seq":"1","substance":"ALCOHOL","decod":"ALCOHOL","cat":"ALCOHOL","scat":null,"usage":"Y","dose":"4.0","dosu":"DRINKS/WEEK","freq":"QW","start_dtc":"2017-03-11","end_dtc":null},{"seq":"2","substance":"COFFEE","decod":"COFFEE","cat":"CAFFEINE","scat":null,"usage":"Y","dose":"2.0","dosu":"CUPS/DAY","freq":"QD","start_dtc":"2001-03-15","end_dtc":null},{"seq":"3","substance":"CIGARETTES","decod":"CIGARETTES","cat":"TOBACCO","scat":"CIGARETTES","usage":"N","dose":null,"dosu":null,"freq":null,"start_dtc":null,"end_dtc":null}],"total":3},"section_15_subject_status":{"items":[{"seq":"1","testcd":"SURVSTAT","test":"Survival Status","orres":"ALIVE","stresc":"ALIVE","dtc":"2024-07-26","visit":"END OF STUDY","epoch":"FOLLOW-UP"}],"total":1}}