{"subject_id":"TERPSIS-MDD-201-SITE001-0043","study_id":"TERPSIS-MDD-201","generated_at":"2026-06-16T11:15:08.751471+00:00","sdtmig_version":"3.4","flags":{"has_serious_ae":true,"has_fatal_ae":false,"has_protocol_deviation":true,"n_protocol_deviations":3,"n_adverse_events":5,"n_concomitant_meds":3,"max_ae_severity":"SEVERE","screen_failure":false,"discontinued_early":false,"discontinuation_reason":null,"death":false,"exposure_days":37},"timeline":[{"dtc":"2016-02-08","dy":"-2949","event":"CM START: SALBUTAMOL","domain":"CM","category":"concomitant_med"},{"dtc":"2024-02-06","dy":"-29","event":"INFORMED CONSENT OBTAINED","domain":"DS","category":"milestone"},{"dtc":"2024-02-21","dy":"-14","event":"VISIT: SCREENING","domain":"SV","category":"visit"},{"dtc":"2024-03-06","dy":"1","event":"RANDOMIZED","domain":"DS","category":"milestone"},{"dtc":"2024-03-06","dy":"1","event":"FIRST DOSE: PSILOCYBIN","domain":"EX","category":"exposure"},{"dtc":"2024-03-06","dy":"1","event":"VISIT: DOSING DAY","domain":"SV","category":"visit"},{"dtc":"2024-03-07","dy":"2","event":"VISIT: DAY 2","domain":"SV","category":"visit"},{"dtc":"2024-03-10","dy":"5","event":"DEVIATION: MISSED DOSE","domain":"DV","category":"deviation"},{"dtc":"2024-03-14","dy":"9","event":"VISIT: WEEK 1","domain":"SV","category":"visit"},{"dtc":"2024-03-26","dy":"21","event":"AE: Dizziness (MILD)","domain":"AE","category":"adverse_event"},{"dtc":"2024-03-27","dy":"22","event":"VISIT: WEEK 3","domain":"SV","category":"visit"},{"dtc":"2024-03-30","dy":"25","event":"DEVIATION: MISSED DOSE","domain":"DV","category":"deviation"},{"dtc":"2024-04-09","dy":"35","event":"AE: Dry mouth (MILD)","domain":"AE","category":"adverse_event"},{"dtc":"2024-04-17","dy":"43","event":"VISIT: WEEK 6","domain":"SV","category":"visit"},{"dtc":"2024-04-20","dy":"46","event":"AE: Dry mouth (MODERATE)","domain":"AE","category":"adverse_event"},{"dtc":"2024-04-20","dy":"46","event":"CM START: ARTIFICIAL SALIVA","domain":"CM","category":"concomitant_med"},{"dtc":"2024-05-18","dy":"74","event":"AE: Dizziness (SEVERE) [SERIOUS]","domain":"AE","category":"adverse_event"},{"dtc":"2024-05-18","dy":"74","event":"CM START: MECLIZINE","domain":"CM","category":"concomitant_med"},{"dtc":"2024-05-24","dy":"80","event":"AE: Nausea (MILD)","domain":"AE","category":"adverse_event"},{"dtc":"2024-05-26","dy":"82","event":"DEVIATION: VISIT OCCURRED OUTSIDE VISIT WINDOW","domain":"DV","category":"deviation"},{"dtc":"2024-05-26","dy":"82","event":"VISIT: WEEK 12","domain":"SV","category":"visit"},{"dtc":"2024-06-27","dy":"114","event":"COMPLETED","domain":"DS","category":"milestone"}],"section_1_demographics":{"usubjid":"TERPSIS-MDD-201-SITE001-0043","subjid":"0043","siteid":"SITE001","age":"34","ageu":"YEARS","sex":"F","race":"WHITE","ethnicity":"NOT HISPANIC OR LATINO","country":"USA","arm":"Psilocybin 10mg","armcd":"PSI10","actarm":"Psilocybin 10mg","actarmcd":"PSI10","randomization_date":null,"informed_consent_date":"2024-02-06","reference_start_date":"2024-03-06","reference_end_date":"2024-06-27","screen_failure":false,"death_flag":null,"death_date":null,"subject_characteristics":[{"testcd":"ALCUSE","test":"Alcohol Use","orres":"CURRENT DRINKER","stresc":"CURRENT DRINKER","visit":null,"dtc":"2024-02-06"},{"testcd":"BMI","test":"Body Mass Index","orres":"19.9","stresc":"19.9","visit":null,"dtc":"2024-02-06"},{"testcd":"DURDIS","test":"Duration of Disease","orres":"97 months","stresc":"97","visit":null,"dtc":"2024-02-06"},{"testcd":"TOBUSE","test":"Tobacco Use","orres":"NEVER SMOKED","stresc":"NEVER SMOKED","visit":null,"dtc":"2024-02-06"}]},"section_2_medical_history":{"items":[{"seq":"1","term":"ASTHMA","decod":"ASTHMA","cat":"RESPIRATORY","scat":null,"presp":null,"occur":null,"status":null,"onset_dtc":"2016-02-08","end_dtc":null,"visit":null},{"seq":"2","term":"DEPRESSION","decod":"DEPRESSION","cat":"PSYCHIATRIC","scat":null,"presp":null,"occur":null,"status":null,"onset_dtc":"2019-02-07","end_dtc":"2019-03-12","visit":null},{"seq":"3","term":"GASTROESOPHAGEAL REFLUX DISEASE","decod":"GASTROESOPHAGEAL REFLUX DISEASE","cat":"GASTROINTESTINAL","scat":null,"presp":null,"occur":null,"status":null,"onset_dtc":"2023-02-06","end_dtc":"2023-04-17","visit":null}]},"section_3_inclusion_exclusion":{"criteria":[]},"section_4_trial_participation":{"visits":[{"visitnum":"1.0","visit":"SCREENING","start_dtc":"2024-02-21","end_dtc":"2024-02-21","updes":null},{"visitnum":"2.0","visit":"DOSING DAY","start_dtc":"2024-03-06","end_dtc":"2024-03-06","updes":null},{"visitnum":"3.0","visit":"DAY 2","start_dtc":"2024-03-07","end_dtc":"2024-03-07","updes":null},{"visitnum":"4.0","visit":"WEEK 1","start_dtc":"2024-03-14","end_dtc":"2024-03-14","updes":null},{"visitnum":"5.0","visit":"WEEK 3","start_dtc":"2024-03-27","end_dtc":"2024-03-27","updes":null},{"visitnum":"6.0","visit":"WEEK 6","start_dtc":"2024-04-17","end_dtc":"2024-04-17","updes":null},{"visitnum":"7.0","visit":"WEEK 12","start_dtc":"2024-05-26","end_dtc":"2024-05-26","updes":null}],"epochs":[{"seq":"1","etcd":"SCRN","element":"Screening","start_dtc":"2024-02-07","end_dtc":"2024-03-06","updes":null},{"seq":"2","etcd":"TRT","element":"Treatment/Observation","start_dtc":"2024-03-06","end_dtc":"2024-05-30","updes":null},{"seq":"3","etcd":"FU","element":"Follow-up","start_dtc":"2024-05-30","end_dtc":"2024-05-30","updes":null}],"visit_count":7},"section_5_concomitant_medications":{"medications":[{"seq":"1","trt":"SALBUTAMOL","decod":"SALBUTAMOL","cat":"PRIOR","dose":"100","doseu":null,"dosef":"PRN","route":"RESPIRATORY (INHALATION)","indication":"ASTHMA","start_dtc":"2016-02-08","end_dtc":"2024-06-27","ongoing":null,"visit":null},{"seq":"2","trt":"ARTIFICIAL SALIVA","decod":"ARTIFICIAL SALIVA","cat":"CONCOMITANT","dose":null,"doseu":null,"dosef":"PRN","route":"ORAL","indication":"DRY MOUTH","start_dtc":"2024-04-20","end_dtc":"2024-04-24","ongoing":null,"visit":null},{"seq":"3","trt":"MECLIZINE","decod":"MECLIZINE","cat":"CONCOMITANT","dose":"25","doseu":null,"dosef":"PRN","route":"ORAL","indication":"DIZZINESS","start_dtc":"2024-05-18","end_dtc":"2024-06-04","ongoing":null,"visit":null}]},"section_6_exposure":{"exposure_as_administered":[{"seq":"1","trt":"PSILOCYBIN","dose":"10.0","doseu":null,"dosef":"ONCE","route":"ORAL","lot":null,"start_dtc":"2024-03-06","end_dtc":"2024-04-12","start_dy":"1","end_dy":"38","epoch":"TREATMENT","visit":null}],"exposure_as_collected":[{"seq":"1","trt":"PSILOCYBIN","dose":"10.0","doseu":null,"dosef":"ONCE","route":"ORAL","start_dtc":"2024-03-06","end_dtc":"2024-03-06","visit":"DOSING DAY"},{"seq":"2","trt":"PSILOCYBIN","dose":"10.0","doseu":null,"dosef":"ONCE","route":"ORAL","start_dtc":"2024-03-07","end_dtc":"2024-03-07","visit":"DOSING DAY"},{"seq":"3","trt":"PSILOCYBIN","dose":"10.0","doseu":null,"dosef":"ONCE","route":"ORAL","start_dtc":"2024-03-08","end_dtc":"2024-03-08","visit":"DOSING DAY"},{"seq":"4","trt":"PSILOCYBIN","dose":"10.0","doseu":null,"dosef":"ONCE","route":"ORAL","start_dtc":"2024-03-09","end_dtc":"2024-03-09","visit":"DOSING DAY"},{"seq":"5","trt":"PSILOCYBIN","dose":null,"doseu":null,"dosef":"ONCE","route":"ORAL","start_dtc":"2024-03-10","end_dtc":"2024-03-10","visit":"DAY 2"},{"seq":"6","trt":"PSILOCYBIN","dose":"10.0","doseu":null,"dosef":"ONCE","route":"ORAL","start_dtc":"2024-03-11","end_dtc":"2024-03-11","visit":"WEEK 1"},{"seq":"7","trt":"PSILOCYBIN","dose":"10.0","doseu":null,"dosef":"ONCE","route":"ORAL","start_dtc":"2024-03-12","end_dtc":"2024-03-12","visit":"WEEK 1"},{"seq":"8","trt":"PSILOCYBIN","dose":"10.0","doseu":null,"dosef":"ONCE","route":"ORAL","start_dtc":"2024-03-13","end_dtc":"2024-03-13","visit":"WEEK 1"},{"seq":"9","trt":"PSILOCYBIN","dose":"10.0","doseu":null,"dosef":"ONCE","route":"ORAL","start_dtc":"2024-03-14","end_dtc":"2024-03-14","visit":"WEEK 1"},{"seq":"10","trt":"PSILOCYBIN","dose":"10.0","doseu":null,"dosef":"ONCE","route":"ORAL","start_dtc":"2024-03-15","end_dtc":"2024-03-15","visit":"WEEK 1"},{"seq":"11","trt":"PSILOCYBIN","dose":"10.0","doseu":null,"dosef":"ONCE","route":"ORAL","start_dtc":"2024-03-16","end_dtc":"2024-03-16","visit":"WEEK 1"},{"seq":"12","trt":"PSILOCYBIN","dose":"10.0","doseu":null,"dosef":"ONCE","route":"ORAL","start_dtc":"2024-03-17","end_dtc":"2024-03-17","visit":null},{"seq":"13","trt":"PSILOCYBIN","dose":"10.0","doseu":null,"dosef":"ONCE","route":"ORAL","start_dtc":"2024-03-18","end_dtc":"2024-03-18","visit":null},{"seq":"14","trt":"PSILOCYBIN","dose":"10.0","doseu":null,"dosef":"ONCE","route":"ORAL","start_dtc":"2024-03-19","end_dtc":"2024-03-19","visit":null},{"seq":"15","trt":"PSILOCYBIN","dose":"10.0","doseu":null,"dosef":"ONCE","route":"ORAL","start_dtc":"2024-03-20","end_dtc":"2024-03-20","visit":null},{"seq":"16","trt":"PSILOCYBIN","dose":"10.0","doseu":null,"dosef":"ONCE","route":"ORAL","start_dtc":"2024-03-21","end_dtc":"2024-03-21","visit":null},{"seq":"17","trt":"PSILOCYBIN","dose":"10.0","doseu":null,"dosef":"ONCE","route":"ORAL","start_dtc":"2024-03-22","end_dtc":"2024-03-22","visit":null},{"seq":"18","trt":"PSILOCYBIN","dose":"10.0","doseu":null,"dosef":"ONCE","route":"ORAL","start_dtc":"2024-03-23","end_dtc":"2024-03-23","visit":null},{"seq":"19","trt":"PSILOCYBIN","dose":"10.0","doseu":null,"dosef":"ONCE","route":"ORAL","start_dtc":"2024-03-24","end_dtc":"2024-03-24","visit":"WEEK 3"},{"seq":"20","trt":"PSILOCYBIN","dose":"10.0","doseu":null,"dosef":"ONCE","route":"ORAL","start_dtc":"2024-03-25","end_dtc":"2024-03-25","visit":"WEEK 3"},{"seq":"21","trt":"PSILOCYBIN","dose":"10.0","doseu":null,"dosef":"ONCE","route":"ORAL","start_dtc":"2024-03-26","end_dtc":"2024-03-26","visit":"WEEK 3"},{"seq":"22","trt":"PSILOCYBIN","dose":"10.0","doseu":null,"dosef":"ONCE","route":"ORAL","start_dtc":"2024-03-27","end_dtc":"2024-03-27","visit":"WEEK 3"},{"seq":"23","trt":"PSILOCYBIN","dose":"10.0","doseu":null,"dosef":"ONCE","route":"ORAL","start_dtc":"2024-03-28","end_dtc":"2024-03-28","visit":"WEEK 3"},{"seq":"24","trt":"PSILOCYBIN","dose":"10.0","doseu":null,"dosef":"ONCE","route":"ORAL","start_dtc":"2024-03-29","end_dtc":"2024-03-29","visit":"WEEK 3"},{"seq":"25","trt":"PSILOCYBIN","dose":null,"doseu":null,"dosef":"ONCE","route":"ORAL","start_dtc":"2024-03-30","end_dtc":"2024-03-30","visit":"WEEK 3"},{"seq":"26","trt":"PSILOCYBIN","dose":"10.0","doseu":null,"dosef":"ONCE","route":"ORAL","start_dtc":"2024-03-31","end_dtc":"2024-03-31","visit":null},{"seq":"27","trt":"PSILOCYBIN","dose":"10.0","doseu":null,"dosef":"ONCE","route":"ORAL","start_dtc":"2024-04-01","end_dtc":"2024-04-01","visit":null},{"seq":"28","trt":"PSILOCYBIN","dose":"10.0","doseu":null,"dosef":"ONCE","route":"ORAL","start_dtc":"2024-04-02","end_dtc":"2024-04-02","visit":null},{"seq":"29","trt":"PSILOCYBIN","dose":"10.0","doseu":null,"dosef":"ONCE","route":"ORAL","start_dtc":"2024-04-03","end_dtc":"2024-04-03","visit":null},{"seq":"30","trt":"PSILOCYBIN","dose":"10.0","doseu":null,"dosef":"ONCE","route":"ORAL","start_dtc":"2024-04-04","end_dtc":"2024-04-04","visit":null},{"seq":"31","trt":"PSILOCYBIN","dose":"10.0","doseu":null,"dosef":"ONCE","route":"ORAL","start_dtc":"2024-04-05","end_dtc":"2024-04-05","visit":null},{"seq":"32","trt":"PSILOCYBIN","dose":"10.0","doseu":null,"dosef":"ONCE","route":"ORAL","start_dtc":"2024-04-06","end_dtc":"2024-04-06","visit":null},{"seq":"33","trt":"PSILOCYBIN","dose":"10.0","doseu":null,"dosef":"ONCE","route":"ORAL","start_dtc":"2024-04-07","end_dtc":"2024-04-07","visit":null},{"seq":"34","trt":"PSILOCYBIN","dose":"10.0","doseu":null,"dosef":"ONCE","route":"ORAL","start_dtc":"2024-04-08","end_dtc":"2024-04-08","visit":null},{"seq":"35","trt":"PSILOCYBIN","dose":"10.0","doseu":null,"dosef":"ONCE","route":"ORAL","start_dtc":"2024-04-09","end_dtc":"2024-04-09","visit":null},{"seq":"36","trt":"PSILOCYBIN","dose":"10.0","doseu":null,"dosef":"ONCE","route":"ORAL","start_dtc":"2024-04-10","end_dtc":"2024-04-10","visit":null},{"seq":"37","trt":"PSILOCYBIN","dose":"10.0","doseu":null,"dosef":"ONCE","route":"ORAL","start_dtc":"2024-04-11","end_dtc":"2024-04-11","visit":null},{"seq":"38","trt":"PSILOCYBIN","dose":"10.0","doseu":null,"dosef":"ONCE","route":"ORAL","start_dtc":"2024-04-12","end_dtc":"2024-04-12","visit":null}]},"section_7_adverse_events":{"summary":{"total_aes":5,"serious_aes":1,"fatal_aes":0,"by_severity":{"MILD":3,"MODERATE":1,"SEVERE":1},"by_soc":{"Nervous system disorders":2,"Gastrointestinal disorders":3}},"events":[{"seq":"1","term":"DIZZINESS","decod":"Dizziness","llt":"Dizziness","hlt":"Dizziness and vertigo symptoms","hlgt":"Neurological signs and symptoms NEC","soc":"Nervous system disorders","bodsys":"Nervous system disorders","severity":"MILD","serious":"N","causality":"NOT RELATED","action_taken":"DOSE NOT CHANGED","outcome":"RECOVERED/RESOLVED","fatal":"N","hospitalization":"N","life_threatening":"N","onset_dtc":"2024-03-26","end_dtc":"2024-04-03","onset_dy":"21","end_dy":"29","duration":null,"epoch":"TREATMENT","visit":null,"supplemental":{}},{"seq":"2","term":"DRY MOUTH","decod":"Dry mouth","llt":"Dry mouth","hlt":"Salivary gland conditions","hlgt":"Oral soft tissue conditions","soc":"Gastrointestinal disorders","bodsys":"Gastrointestinal disorders","severity":"MILD","serious":"N","causality":"POSSIBLY RELATED","action_taken":"DOSE NOT CHANGED","outcome":"RECOVERED/RESOLVED","fatal":"N","hospitalization":"N","life_threatening":"N","onset_dtc":"2024-04-09","end_dtc":"2024-04-23","onset_dy":"35","end_dy":"49","duration":null,"epoch":"TREATMENT","visit":null,"supplemental":{}},{"seq":"3","term":"DRY MOUTH","decod":"Dry mouth","llt":"Dry mouth","hlt":"Salivary gland conditions","hlgt":"Oral soft tissue conditions","soc":"Gastrointestinal disorders","bodsys":"Gastrointestinal disorders","severity":"MODERATE","serious":"N","causality":"NOT RELATED","action_taken":"DOSE NOT CHANGED","outcome":"RECOVERED/RESOLVED","fatal":"N","hospitalization":"N","life_threatening":"N","onset_dtc":"2024-04-20","end_dtc":"2024-05-01","onset_dy":"46","end_dy":"57","duration":null,"epoch":"TREATMENT","visit":null,"supplemental":{}},{"seq":"4","term":"DIZZINESS","decod":"Dizziness","llt":"Dizziness","hlt":"Dizziness and vertigo symptoms","hlgt":"Neurological signs and symptoms NEC","soc":"Nervous system disorders","bodsys":"Nervous system disorders","severity":"SEVERE","serious":"Y","causality":"NOT RELATED","action_taken":"DOSE NOT CHANGED","outcome":"RECOVERED/RESOLVED","fatal":"N","hospitalization":"Y","life_threatening":"N","onset_dtc":"2024-05-18","end_dtc":"2024-06-21","onset_dy":"74","end_dy":"108","duration":null,"epoch":"TREATMENT","visit":null,"supplemental":{}},{"seq":"5","term":"NAUSEA","decod":"Nausea","llt":"Nausea","hlt":"Nausea and vomiting symptoms","hlgt":"Gastrointestinal signs and symptoms","soc":"Gastrointestinal disorders","bodsys":"Gastrointestinal disorders","severity":"MILD","serious":"N","causality":"UNLIKELY RELATED","action_taken":"DOSE NOT CHANGED","outcome":"RECOVERED/RESOLVED","fatal":"N","hospitalization":"N","life_threatening":"N","onset_dtc":"2024-05-24","end_dtc":"2024-05-25","onset_dy":"80","end_dy":"81","duration":null,"epoch":"TREATMENT","visit":null,"supplemental":{}}]},"section_8_laboratory_results":{"summary":{"total_records":35,"abnormal_count":7,"abnormal_pct":20.0},"shift_summary":[{"testcd":"ALT","baseline_value":11.4,"baseline_nrind":"NORMAL","worst_post_baseline_value":14.56,"worst_post_baseline_nrind":"NORMAL","worst_visit":"WEEK 1"},{"testcd":"AST","baseline_value":25.36,"baseline_nrind":"NORMAL","worst_post_baseline_value":25.75,"worst_post_baseline_nrind":"NORMAL","worst_visit":"WEEK 12"},{"testcd":"CREAT","baseline_value":105.59,"baseline_nrind":"HIGH","worst_post_baseline_value":107.11,"worst_post_baseline_nrind":"HIGH","worst_visit":"WEEK 3"},{"testcd":"GLUC","baseline_value":4.21,"baseline_nrind":"NORMAL","worst_post_baseline_value":4.3,"worst_post_baseline_nrind":"NORMAL","worst_visit":"WEEK 1"},{"testcd":"HGB","baseline_value":119.13,"baseline_nrind":"LOW","worst_post_baseline_value":119.88,"worst_post_baseline_nrind":"LOW","worst_visit":"DOSING DAY"},{"testcd":"PLAT","baseline_value":199.36,"baseline_nrind":"NORMAL","worst_post_baseline_value":233.92,"worst_post_baseline_nrind":"NORMAL","worst_visit":"WEEK 12"},{"testcd":"WBC","baseline_value":6.9,"baseline_nrind":"NORMAL","worst_post_baseline_value":7.46,"worst_post_baseline_nrind":"NORMAL","worst_visit":"DOSING DAY"}],"results":[{"seq":"1","testcd":"ALT","test":"Alanine Aminotransferase","cat":"CHEMISTRY","orres":"11.4","orresu":"U/L","stresc":"11.4","stresn":"11.4","stresu":"U/L","stnrlo":"7","stnrhi":"56","nrind":"NORMAL","fast":null,"dtc":"2024-02-21","dy":"-14","visit":"SCREENING","visitnum":"1.0","epoch":"SCREENING","spec":null,"method":null},{"seq":"2","testcd":"AST","test":"Aspartate Aminotransferase","cat":"CHEMISTRY","orres":"25.36","orresu":"U/L","stresc":"25.36","stresn":"25.36","stresu":"U/L","stnrlo":"10","stnrhi":"40","nrind":"NORMAL","fast":null,"dtc":"2024-02-21","dy":"-14","visit":"SCREENING","visitnum":"1.0","epoch":"SCREENING","spec":null,"method":null},{"seq":"3","testcd":"CREAT","test":"Creatinine","cat":"CHEMISTRY","orres":"105.59","orresu":"umol/L","stresc":"105.59","stresn":"105.59","stresu":"umol/L","stnrlo":"44","stnrhi":"80","nrind":"HIGH","fast":null,"dtc":"2024-02-21","dy":"-14","visit":"SCREENING","visitnum":"1.0","epoch":"SCREENING","spec":null,"method":null},{"seq":"4","testcd":"GLUC","test":"Glucose","cat":"CHEMISTRY","orres":"4.21","orresu":"mmol/L","stresc":"4.21","stresn":"4.21","stresu":"mmol/L","stnrlo":"3.9","stnrhi":"5.6","nrind":"NORMAL","fast":null,"dtc":"2024-02-21","dy":"-14","visit":"SCREENING","visitnum":"1.0","epoch":"SCREENING","spec":null,"method":null},{"seq":"5","testcd":"HGB","test":"Hemoglobin","cat":"HEMATOLOGY","orres":"119.13","orresu":"g/L","stresc":"119.13","stresn":"119.13","stresu":"g/L","stnrlo":"120","stnrhi":"155","nrind":"LOW","fast":null,"dtc":"2024-02-21","dy":"-14","visit":"SCREENING","visitnum":"1.0","epoch":"SCREENING","spec":null,"method":null},{"seq":"6","testcd":"PLAT","test":"Platelets","cat":"HEMATOLOGY","orres":"199.36","orresu":"10^9/L","stresc":"199.36","stresn":"199.36","stresu":"10^9/L","stnrlo":"150","stnrhi":"400","nrind":"NORMAL","fast":null,"dtc":"2024-02-21","dy":"-14","visit":"SCREENING","visitnum":"1.0","epoch":"SCREENING","spec":null,"method":null},{"seq":"7","testcd":"WBC","test":"Leukocytes","cat":"HEMATOLOGY","orres":"6.9","orresu":"10^9/L","stresc":"6.9","stresn":"6.9","stresu":"10^9/L","stnrlo":"4.0","stnrhi":"11.0","nrind":"NORMAL","fast":null,"dtc":"2024-02-21","dy":"-14","visit":"SCREENING","visitnum":"1.0","epoch":"SCREENING","spec":null,"method":null},{"seq":"8","testcd":"ALT","test":"Alanine Aminotransferase","cat":"CHEMISTRY","orres":"12.57","orresu":"U/L","stresc":"12.57","stresn":"12.57","stresu":"U/L","stnrlo":"7","stnrhi":"56","nrind":"NORMAL","fast":null,"dtc":"2024-03-06","dy":"1","visit":"DOSING DAY","visitnum":"2.0","epoch":"TREATMENT","spec":null,"method":null},{"seq":"9","testcd":"AST","test":"Aspartate Aminotransferase","cat":"CHEMISTRY","orres":"23.27","orresu":"U/L","stresc":"23.27","stresn":"23.27","stresu":"U/L","stnrlo":"10","stnrhi":"40","nrind":"NORMAL","fast":null,"dtc":"2024-03-06","dy":"1","visit":"DOSING DAY","visitnum":"2.0","epoch":"TREATMENT","spec":null,"method":null},{"seq":"10","testcd":"CREAT","test":"Creatinine","cat":"CHEMISTRY","orres":"106.11","orresu":"umol/L","stresc":"106.11","stresn":"106.11","stresu":"umol/L","stnrlo":"44","stnrhi":"80","nrind":"HIGH","fast":null,"dtc":"2024-03-06","dy":"1","visit":"DOSING DAY","visitnum":"2.0","epoch":"TREATMENT","spec":null,"method":null},{"seq":"11","testcd":"GLUC","test":"Glucose","cat":"CHEMISTRY","orres":"4.27","orresu":"mmol/L","stresc":"4.27","stresn":"4.27","stresu":"mmol/L","stnrlo":"3.9","stnrhi":"5.6","nrind":"NORMAL","fast":null,"dtc":"2024-03-06","dy":"1","visit":"DOSING DAY","visitnum":"2.0","epoch":"TREATMENT","spec":null,"method":null},{"seq":"12","testcd":"HGB","test":"Hemoglobin","cat":"HEMATOLOGY","orres":"119.88","orresu":"g/L","stresc":"119.88","stresn":"119.88","stresu":"g/L","stnrlo":"120","stnrhi":"155","nrind":"LOW","fast":null,"dtc":"2024-03-06","dy":"1","visit":"DOSING DAY","visitnum":"2.0","epoch":"TREATMENT","spec":null,"method":null},{"seq":"13","testcd":"PLAT","test":"Platelets","cat":"HEMATOLOGY","orres":"189.91","orresu":"10^9/L","stresc":"189.91","stresn":"189.91","stresu":"10^9/L","stnrlo":"150","stnrhi":"400","nrind":"NORMAL","fast":null,"dtc":"2024-03-06","dy":"1","visit":"DOSING DAY","visitnum":"2.0","epoch":"TREATMENT","spec":null,"method":null},{"seq":"14","testcd":"WBC","test":"Leukocytes","cat":"HEMATOLOGY","orres":"7.46","orresu":"10^9/L","stresc":"7.46","stresn":"7.46","stresu":"10^9/L","stnrlo":"4.0","stnrhi":"11.0","nrind":"NORMAL","fast":null,"dtc":"2024-03-06","dy":"1","visit":"DOSING DAY","visitnum":"2.0","epoch":"TREATMENT","spec":null,"method":null},{"seq":"15","testcd":"ALT","test":"Alanine Aminotransferase","cat":"CHEMISTRY","orres":"14.56","orresu":"U/L","stresc":"14.56","stresn":"14.56","stresu":"U/L","stnrlo":"7","stnrhi":"56","nrind":"NORMAL","fast":null,"dtc":"2024-03-14","dy":"9","visit":"WEEK 1","visitnum":"4.0","epoch":"FOLLOW-UP","spec":null,"method":null},{"seq":"16","testcd":"AST","test":"Aspartate Aminotransferase","cat":"CHEMISTRY","orres":"24.24","orresu":"U/L","stresc":"24.24","stresn":"24.24","stresu":"U/L","stnrlo":"10","stnrhi":"40","nrind":"NORMAL","fast":null,"dtc":"2024-03-14","dy":"9","visit":"WEEK 1","visitnum":"4.0","epoch":"FOLLOW-UP","spec":null,"method":null},{"seq":"17","testcd":"CREAT","test":"Creatinine","cat":"CHEMISTRY","orres":"104.98","orresu":"umol/L","stresc":"104.98","stresn":"104.98","stresu":"umol/L","stnrlo":"44","stnrhi":"80","nrind":"HIGH","fast":null,"dtc":"2024-03-14","dy":"9","visit":"WEEK 1","visitnum":"4.0","epoch":"FOLLOW-UP","spec":null,"method":null},{"seq":"18","testcd":"GLUC","test":"Glucose","cat":"CHEMISTRY","orres":"4.3","orresu":"mmol/L","stresc":"4.3","stresn":"4.3","stresu":"mmol/L","stnrlo":"3.9","stnrhi":"5.6","nrind":"NORMAL","fast":null,"dtc":"2024-03-14","dy":"9","visit":"WEEK 1","visitnum":"4.0","epoch":"FOLLOW-UP","spec":null,"method":null},{"seq":"19","testcd":"HGB","test":"Hemoglobin","cat":"HEMATOLOGY","orres":"120.58","orresu":"g/L","stresc":"120.58","stresn":"120.58","stresu":"g/L","stnrlo":"120","stnrhi":"155","nrind":"NORMAL","fast":null,"dtc":"2024-03-14","dy":"9","visit":"WEEK 1","visitnum":"4.0","epoch":"FOLLOW-UP","spec":null,"method":null},{"seq":"20","testcd":"PLAT","test":"Platelets","cat":"HEMATOLOGY","orres":"197.21","orresu":"10^9/L","stresc":"197.21","stresn":"197.21","stresu":"10^9/L","stnrlo":"150","stnrhi":"400","nrind":"NORMAL","fast":null,"dtc":"2024-03-14","dy":"9","visit":"WEEK 1","visitnum":"4.0","epoch":"FOLLOW-UP","spec":null,"method":null},{"seq":"21","testcd":"WBC","test":"Leukocytes","cat":"HEMATOLOGY","orres":"6.6","orresu":"10^9/L","stresc":"6.6","stresn":"6.6","stresu":"10^9/L","stnrlo":"4.0","stnrhi":"11.0","nrind":"NORMAL","fast":null,"dtc":"2024-03-14","dy":"9","visit":"WEEK 1","visitnum":"4.0","epoch":"FOLLOW-UP","spec":null,"method":null},{"seq":"22","testcd":"ALT","test":"Alanine Aminotransferase","cat":"CHEMISTRY","orres":"11.63","orresu":"U/L","stresc":"11.63","stresn":"11.63","stresu":"U/L","stnrlo":"7","stnrhi":"56","nrind":"NORMAL","fast":null,"dtc":"2024-03-27","dy":"22","visit":"WEEK 3","visitnum":"5.0","epoch":"FOLLOW-UP","spec":null,"method":null},{"seq":"23","testcd":"AST","test":"Aspartate Aminotransferase","cat":"CHEMISTRY","orres":"23.48","orresu":"U/L","stresc":"23.48","stresn":"23.48","stresu":"U/L","stnrlo":"10","stnrhi":"40","nrind":"NORMAL","fast":null,"dtc":"2024-03-27","dy":"22","visit":"WEEK 3","visitnum":"5.0","epoch":"FOLLOW-UP","spec":null,"method":null},{"seq":"24","testcd":"CREAT","test":"Creatinine","cat":"CHEMISTRY","orres":"107.11","orresu":"umol/L","stresc":"107.11","stresn":"107.11","stresu":"umol/L","stnrlo":"44","stnrhi":"80","nrind":"HIGH","fast":null,"dtc":"2024-03-27","dy":"22","visit":"WEEK 3","visitnum":"5.0","epoch":"FOLLOW-UP","spec":null,"method":null},{"seq":"25","testcd":"GLUC","test":"Glucose","cat":"CHEMISTRY","orres":"4.26","orresu":"mmol/L","stresc":"4.26","stresn":"4.26","stresu":"mmol/L","stnrlo":"3.9","stnrhi":"5.6","nrind":"NORMAL","fast":null,"dtc":"2024-03-27","dy":"22","visit":"WEEK 3","visitnum":"5.0","epoch":"FOLLOW-UP","spec":null,"method":null},{"seq":"26","testcd":"HGB","test":"Hemoglobin","cat":"HEMATOLOGY","orres":"122.82","orresu":"g/L","stresc":"122.82","stresn":"122.82","stresu":"g/L","stnrlo":"120","stnrhi":"155","nrind":"NORMAL","fast":null,"dtc":"2024-03-27","dy":"22","visit":"WEEK 3","visitnum":"5.0","epoch":"FOLLOW-UP","spec":null,"method":null},{"seq":"27","testcd":"PLAT","test":"Platelets","cat":"HEMATOLOGY","orres":"215.6","orresu":"10^9/L","stresc":"215.6","stresn":"215.6","stresu":"10^9/L","stnrlo":"150","stnrhi":"400","nrind":"NORMAL","fast":null,"dtc":"2024-03-27","dy":"22","visit":"WEEK 3","visitnum":"5.0","epoch":"FOLLOW-UP","spec":null,"method":null},{"seq":"28","testcd":"WBC","test":"Leukocytes","cat":"HEMATOLOGY","orres":"6.2","orresu":"10^9/L","stresc":"6.2","stresn":"6.2","stresu":"10^9/L","stnrlo":"4.0","stnrhi":"11.0","nrind":"NORMAL","fast":null,"dtc":"2024-03-27","dy":"22","visit":"WEEK 3","visitnum":"5.0","epoch":"FOLLOW-UP","spec":null,"method":null},{"seq":"29","testcd":"ALT","test":"Alanine Aminotransferase","cat":"CHEMISTRY","orres":"11.78","orresu":"U/L","stresc":"11.78","stresn":"11.78","stresu":"U/L","stnrlo":"7","stnrhi":"56","nrind":"NORMAL","fast":null,"dtc":"2024-05-26","dy":"82","visit":"WEEK 12","visitnum":"7.0","epoch":"FOLLOW-UP","spec":null,"method":null},{"seq":"30","testcd":"AST","test":"Aspartate Aminotransferase","cat":"CHEMISTRY","orres":"25.75","orresu":"U/L","stresc":"25.75","stresn":"25.75","stresu":"U/L","stnrlo":"10","stnrhi":"40","nrind":"NORMAL","fast":null,"dtc":"2024-05-26","dy":"82","visit":"WEEK 12","visitnum":"7.0","epoch":"FOLLOW-UP","spec":null,"method":null},{"seq":"31","testcd":"CREAT","test":"Creatinine","cat":"CHEMISTRY","orres":"104.76","orresu":"umol/L","stresc":"104.76","stresn":"104.76","stresu":"umol/L","stnrlo":"44","stnrhi":"80","nrind":"HIGH","fast":null,"dtc":"2024-05-26","dy":"82","visit":"WEEK 12","visitnum":"7.0","epoch":"FOLLOW-UP","spec":null,"method":null},{"seq":"32","testcd":"GLUC","test":"Glucose","cat":"CHEMISTRY","orres":"4.3","orresu":"mmol/L","stresc":"4.3","stresn":"4.3","stresu":"mmol/L","stnrlo":"3.9","stnrhi":"5.6","nrind":"NORMAL","fast":null,"dtc":"2024-05-26","dy":"82","visit":"WEEK 12","visitnum":"7.0","epoch":"FOLLOW-UP","spec":null,"method":null},{"seq":"33","testcd":"HGB","test":"Hemoglobin","cat":"HEMATOLOGY","orres":null,"orresu":null,"stresc":null,"stresn":null,"stresu":null,"stnrlo":null,"stnrhi":null,"nrind":null,"fast":null,"dtc":"2024-05-26","dy":"82","visit":"WEEK 12","visitnum":"7.0","epoch":"FOLLOW-UP","spec":null,"method":null},{"seq":"34","testcd":"PLAT","test":"Platelets","cat":"HEMATOLOGY","orres":"233.92","orresu":"10^9/L","stresc":"233.92","stresn":"233.92","stresu":"10^9/L","stnrlo":"150","stnrhi":"400","nrind":"NORMAL","fast":null,"dtc":"2024-05-26","dy":"82","visit":"WEEK 12","visitnum":"7.0","epoch":"FOLLOW-UP","spec":null,"method":null},{"seq":"35","testcd":"WBC","test":"Leukocytes","cat":"HEMATOLOGY","orres":"6.73","orresu":"10^9/L","stresc":"6.73","stresn":"6.73","stresu":"10^9/L","stnrlo":"4.0","stnrhi":"11.0","nrind":"NORMAL","fast":null,"dtc":"2024-05-26","dy":"82","visit":"WEEK 12","visitnum":"7.0","epoch":"FOLLOW-UP","spec":null,"method":null}]},"section_9_vital_signs":{"summary":{"total_records":40},"trends":{"BMI":[{"visit":"SCREENING","visitnum":"1.0","dtc":"2024-02-21","value":"19.9","unit":"kg/m2"},{"visit":"DOSING DAY","visitnum":"2.0","dtc":"2024-03-06","value":"20.9","unit":"kg/m2"},{"visit":"DAY 2","visitnum":"3.0","dtc":"2024-03-07","value":"20.5","unit":"kg/m2"},{"visit":"WEEK 6","visitnum":"6.0","dtc":"2024-04-17","value":"19.9","unit":"kg/m2"},{"visit":"WEEK 12","visitnum":"7.0","dtc":"2024-05-26","value":"19.7","unit":"kg/m2"}],"DIABP":[{"visit":"SCREENING","visitnum":"1.0","dtc":"2024-02-21","value":"68.6","unit":"mmHg"},{"visit":"DOSING DAY","visitnum":"2.0","dtc":"2024-03-06","value":"70.7","unit":"mmHg"},{"visit":"DAY 2","visitnum":"3.0","dtc":"2024-03-07","value":"69.9","unit":"mmHg"},{"visit":"WEEK 6","visitnum":"6.0","dtc":"2024-04-17","value":"71.0","unit":"mmHg"},{"visit":"WEEK 12","visitnum":"7.0","dtc":"2024-05-26","value":"74.0","unit":"mmHg"}],"HEIGHT":[{"visit":"SCREENING","visitnum":"1.0","dtc":"2024-02-21","value":"155.4","unit":"cm"},{"visit":"DOSING DAY","visitnum":"2.0","dtc":"2024-03-06","value":"155.4","unit":"cm"},{"visit":"DAY 2","visitnum":"3.0","dtc":"2024-03-07","value":"156.0","unit":"cm"},{"visit":"WEEK 6","visitnum":"6.0","dtc":"2024-04-17","value":"155.9","unit":"cm"},{"visit":"WEEK 12","visitnum":"7.0","dtc":"2024-05-26","value":"156.0","unit":"cm"}],"PULSE":[{"visit":"SCREENING","visitnum":"1.0","dtc":"2024-02-21","value":"65.8","unit":"beats/min"},{"visit":"DOSING DAY","visitnum":"2.0","dtc":"2024-03-06","value":"66.7","unit":"beats/min"},{"visit":"DAY 2","visitnum":"3.0","dtc":"2024-03-07","value":"66.3","unit":"beats/min"},{"visit":"WEEK 6","visitnum":"6.0","dtc":"2024-04-17","value":"66.5","unit":"beats/min"},{"visit":"WEEK 12","visitnum":"7.0","dtc":"2024-05-26","value":"66.1","unit":"beats/min"}],"RESP":[{"visit":"SCREENING","visitnum":"1.0","dtc":"2024-02-21","value":"21.3","unit":"breaths/min"},{"visit":"DOSING DAY","visitnum":"2.0","dtc":"2024-03-06","value":"22.1","unit":"breaths/min"},{"visit":"DAY 2","visitnum":"3.0","dtc":"2024-03-07","value":"22.3","unit":"breaths/min"},{"visit":"WEEK 6","visitnum":"6.0","dtc":"2024-04-17","value":"22.5","unit":"breaths/min"},{"visit":"WEEK 12","visitnum":"7.0","dtc":"2024-05-26","value":"21.9","unit":"breaths/min"}],"SYSBP":[{"visit":"SCREENING","visitnum":"1.0","dtc":"2024-02-21","value":"111.8","unit":"mmHg"},{"visit":"DOSING DAY","visitnum":"2.0","dtc":"2024-03-06","value":"112.6","unit":"mmHg"},{"visit":"DAY 2","visitnum":"3.0","dtc":"2024-03-07","value":"111.7","unit":"mmHg"},{"visit":"WEEK 6","visitnum":"6.0","dtc":"2024-04-17","value":"112.5","unit":"mmHg"},{"visit":"WEEK 12","visitnum":"7.0","dtc":"2024-05-26","value":"116.4","unit":"mmHg"}],"TEMP":[{"visit":"SCREENING","visitnum":"1.0","dtc":"2024-02-21","value":"36.4","unit":"C"},{"visit":"DOSING DAY","visitnum":"2.0","dtc":"2024-03-06","value":"36.6","unit":"C"},{"visit":"DAY 2","visitnum":"3.0","dtc":"2024-03-07","value":"36.4","unit":"C"},{"visit":"WEEK 6","visitnum":"6.0","dtc":"2024-04-17","value":"36.5","unit":"C"},{"visit":"WEEK 12","visitnum":"7.0","dtc":"2024-05-26","value":"36.5","unit":"C"}],"WEIGHT":[{"visit":"SCREENING","visitnum":"1.0","dtc":"2024-02-21","value":"48.0","unit":"kg"},{"visit":"DOSING DAY","visitnum":"2.0","dtc":"2024-03-06","value":"50.4","unit":"kg"},{"visit":"DAY 2","visitnum":"3.0","dtc":"2024-03-07","value":"49.9","unit":"kg"},{"visit":"WEEK 6","visitnum":"6.0","dtc":"2024-04-17","value":"48.3","unit":"kg"},{"visit":"WEEK 12","visitnum":"7.0","dtc":"2024-05-26","value":"48.0","unit":"kg"}]},"results":[{"seq":"1","testcd":"BMI","test":"BMI","cat":null,"orres":"19.9","orresu":"kg/m2","stresc":"19.9","stresn":"19.9","stresu":"kg/m2","stnrlo":null,"stnrhi":null,"nrind":null,"pos":null,"loc":null,"dtc":"2024-02-21","dy":"-14","visit":"SCREENING","visitnum":"1.0","epoch":"SCREENING"},{"seq":"2","testcd":"DIABP","test":"Diastolic Blood Pressure","cat":null,"orres":"68.6","orresu":"mmHg","stresc":"68.6","stresn":"68.6","stresu":"mmHg","stnrlo":null,"stnrhi":null,"nrind":null,"pos":null,"loc":null,"dtc":"2024-02-21","dy":"-14","visit":"SCREENING","visitnum":"1.0","epoch":"SCREENING"},{"seq":"3","testcd":"HEIGHT","test":"Height","cat":null,"orres":"155.4","orresu":"cm","stresc":"155.4","stresn":"155.4","stresu":"cm","stnrlo":null,"stnrhi":null,"nrind":null,"pos":null,"loc":null,"dtc":"2024-02-21","dy":"-14","visit":"SCREENING","visitnum":"1.0","epoch":"SCREENING"},{"seq":"4","testcd":"PULSE","test":"Pulse Rate","cat":null,"orres":"65.8","orresu":"beats/min","stresc":"65.8","stresn":"65.8","stresu":"beats/min","stnrlo":null,"stnrhi":null,"nrind":null,"pos":null,"loc":null,"dtc":"2024-02-21","dy":"-14","visit":"SCREENING","visitnum":"1.0","epoch":"SCREENING"},{"seq":"5","testcd":"RESP","test":"Respiratory Rate","cat":null,"orres":"21.3","orresu":"breaths/min","stresc":"21.3","stresn":"21.3","stresu":"breaths/min","stnrlo":null,"stnrhi":null,"nrind":null,"pos":null,"loc":null,"dtc":"2024-02-21","dy":"-14","visit":"SCREENING","visitnum":"1.0","epoch":"SCREENING"},{"seq":"6","testcd":"SYSBP","test":"Systolic Blood Pressure","cat":null,"orres":"111.8","orresu":"mmHg","stresc":"111.8","stresn":"111.8","stresu":"mmHg","stnrlo":null,"stnrhi":null,"nrind":null,"pos":null,"loc":null,"dtc":"2024-02-21","dy":"-14","visit":"SCREENING","visitnum":"1.0","epoch":"SCREENING"},{"seq":"7","testcd":"TEMP","test":"Temperature","cat":null,"orres":"36.4","orresu":"C","stresc":"36.4","stresn":"36.4","stresu":"C","stnrlo":null,"stnrhi":null,"nrind":null,"pos":null,"loc":null,"dtc":"2024-02-21","dy":"-14","visit":"SCREENING","visitnum":"1.0","epoch":"SCREENING"},{"seq":"8","testcd":"WEIGHT","test":"Weight","cat":null,"orres":"48.0","orresu":"kg","stresc":"48.0","stresn":"48.0","stresu":"kg","stnrlo":null,"stnrhi":null,"nrind":null,"pos":null,"loc":null,"dtc":"2024-02-21","dy":"-14","visit":"SCREENING","visitnum":"1.0","epoch":"SCREENING"},{"seq":"9","testcd":"BMI","test":"BMI","cat":null,"orres":"20.9","orresu":"kg/m2","stresc":"20.9","stresn":"20.9","stresu":"kg/m2","stnrlo":null,"stnrhi":null,"nrind":null,"pos":null,"loc":null,"dtc":"2024-03-06","dy":"1","visit":"DOSING DAY","visitnum":"2.0","epoch":"TREATMENT"},{"seq":"10","testcd":"DIABP","test":"Diastolic Blood Pressure","cat":null,"orres":"70.7","orresu":"mmHg","stresc":"70.7","stresn":"70.7","stresu":"mmHg","stnrlo":null,"stnrhi":null,"nrind":null,"pos":null,"loc":null,"dtc":"2024-03-06","dy":"1","visit":"DOSING DAY","visitnum":"2.0","epoch":"TREATMENT"},{"seq":"11","testcd":"HEIGHT","test":"Height","cat":null,"orres":"155.4","orresu":"cm","stresc":"155.4","stresn":"155.4","stresu":"cm","stnrlo":null,"stnrhi":null,"nrind":null,"pos":null,"loc":null,"dtc":"2024-03-06","dy":"1","visit":"DOSING DAY","visitnum":"2.0","epoch":"TREATMENT"},{"seq":"12","testcd":"PULSE","test":"Pulse Rate","cat":null,"orres":"66.7","orresu":"beats/min","stresc":"66.7","stresn":"66.7","stresu":"beats/min","stnrlo":null,"stnrhi":null,"nrind":null,"pos":null,"loc":null,"dtc":"2024-03-06","dy":"1","visit":"DOSING DAY","visitnum":"2.0","epoch":"TREATMENT"},{"seq":"13","testcd":"RESP","test":"Respiratory Rate","cat":null,"orres":"22.1","orresu":"breaths/min","stresc":"22.1","stresn":"22.1","stresu":"breaths/min","stnrlo":null,"stnrhi":null,"nrind":null,"pos":null,"loc":null,"dtc":"2024-03-06","dy":"1","visit":"DOSING DAY","visitnum":"2.0","epoch":"TREATMENT"},{"seq":"14","testcd":"SYSBP","test":"Systolic Blood Pressure","cat":null,"orres":"112.6","orresu":"mmHg","stresc":"112.6","stresn":"112.6","stresu":"mmHg","stnrlo":null,"stnrhi":null,"nrind":null,"pos":null,"loc":null,"dtc":"2024-03-06","dy":"1","visit":"DOSING DAY","visitnum":"2.0","epoch":"TREATMENT"},{"seq":"15","testcd":"TEMP","test":"Temperature","cat":null,"orres":"36.6","orresu":"C","stresc":"36.6","stresn":"36.6","stresu":"C","stnrlo":null,"stnrhi":null,"nrind":null,"pos":null,"loc":null,"dtc":"2024-03-06","dy":"1","visit":"DOSING DAY","visitnum":"2.0","epoch":"TREATMENT"},{"seq":"16","testcd":"WEIGHT","test":"Weight","cat":null,"orres":"50.4","orresu":"kg","stresc":"50.4","stresn":"50.4","stresu":"kg","stnrlo":null,"stnrhi":null,"nrind":null,"pos":null,"loc":null,"dtc":"2024-03-06","dy":"1","visit":"DOSING DAY","visitnum":"2.0","epoch":"TREATMENT"},{"seq":"17","testcd":"BMI","test":"BMI","cat":null,"orres":"20.5","orresu":"kg/m2","stresc":"20.5","stresn":"20.5","stresu":"kg/m2","stnrlo":null,"stnrhi":null,"nrind":null,"pos":null,"loc":null,"dtc":"2024-03-07","dy":"2","visit":"DAY 2","visitnum":"3.0","epoch":"FOLLOW-UP"},{"seq":"18","testcd":"DIABP","test":"Diastolic Blood Pressure","cat":null,"orres":"69.9","orresu":"mmHg","stresc":"69.9","stresn":"69.9","stresu":"mmHg","stnrlo":null,"stnrhi":null,"nrind":null,"pos":null,"loc":null,"dtc":"2024-03-07","dy":"2","visit":"DAY 2","visitnum":"3.0","epoch":"FOLLOW-UP"},{"seq":"19","testcd":"HEIGHT","test":"Height","cat":null,"orres":"156.0","orresu":"cm","stresc":"156.0","stresn":"156.0","stresu":"cm","stnrlo":null,"stnrhi":null,"nrind":null,"pos":null,"loc":null,"dtc":"2024-03-07","dy":"2","visit":"DAY 2","visitnum":"3.0","epoch":"FOLLOW-UP"},{"seq":"20","testcd":"PULSE","test":"Pulse Rate","cat":null,"orres":"66.3","orresu":"beats/min","stresc":"66.3","stresn":"66.3","stresu":"beats/min","stnrlo":null,"stnrhi":null,"nrind":null,"pos":null,"loc":null,"dtc":"2024-03-07","dy":"2","visit":"DAY 2","visitnum":"3.0","epoch":"FOLLOW-UP"},{"seq":"21","testcd":"RESP","test":"Respiratory Rate","cat":null,"orres":"22.3","orresu":"breaths/min","stresc":"22.3","stresn":"22.3","stresu":"breaths/min","stnrlo":null,"stnrhi":null,"nrind":null,"pos":null,"loc":null,"dtc":"2024-03-07","dy":"2","visit":"DAY 2","visitnum":"3.0","epoch":"FOLLOW-UP"},{"seq":"22","testcd":"SYSBP","test":"Systolic Blood Pressure","cat":null,"orres":"111.7","orresu":"mmHg","stresc":"111.7","stresn":"111.7","stresu":"mmHg","stnrlo":null,"stnrhi":null,"nrind":null,"pos":null,"loc":null,"dtc":"2024-03-07","dy":"2","visit":"DAY 2","visitnum":"3.0","epoch":"FOLLOW-UP"},{"seq":"23","testcd":"TEMP","test":"Temperature","cat":null,"orres":"36.4","orresu":"C","stresc":"36.4","stresn":"36.4","stresu":"C","stnrlo":null,"stnrhi":null,"nrind":null,"pos":null,"loc":null,"dtc":"2024-03-07","dy":"2","visit":"DAY 2","visitnum":"3.0","epoch":"FOLLOW-UP"},{"seq":"24","testcd":"WEIGHT","test":"Weight","cat":null,"orres":"49.9","orresu":"kg","stresc":"49.9","stresn":"49.9","stresu":"kg","stnrlo":null,"stnrhi":null,"nrind":null,"pos":null,"loc":null,"dtc":"2024-03-07","dy":"2","visit":"DAY 2","visitnum":"3.0","epoch":"FOLLOW-UP"},{"seq":"25","testcd":"BMI","test":"BMI","cat":null,"orres":"19.9","orresu":"kg/m2","stresc":"19.9","stresn":"19.9","stresu":"kg/m2","stnrlo":null,"stnrhi":null,"nrind":null,"pos":null,"loc":null,"dtc":"2024-04-17","dy":"43","visit":"WEEK 6","visitnum":"6.0","epoch":"FOLLOW-UP"},{"seq":"26","testcd":"DIABP","test":"Diastolic Blood Pressure","cat":null,"orres":"71.0","orresu":"mmHg","stresc":"71.0","stresn":"71.0","stresu":"mmHg","stnrlo":null,"stnrhi":null,"nrind":null,"pos":null,"loc":null,"dtc":"2024-04-17","dy":"43","visit":"WEEK 6","visitnum":"6.0","epoch":"FOLLOW-UP"},{"seq":"27","testcd":"HEIGHT","test":"Height","cat":null,"orres":"155.9","orresu":"cm","stresc":"155.9","stresn":"155.9","stresu":"cm","stnrlo":null,"stnrhi":null,"nrind":null,"pos":null,"loc":null,"dtc":"2024-04-17","dy":"43","visit":"WEEK 6","visitnum":"6.0","epoch":"FOLLOW-UP"},{"seq":"28","testcd":"PULSE","test":"Pulse Rate","cat":null,"orres":"66.5","orresu":"beats/min","stresc":"66.5","stresn":"66.5","stresu":"beats/min","stnrlo":null,"stnrhi":null,"nrind":null,"pos":null,"loc":null,"dtc":"2024-04-17","dy":"43","visit":"WEEK 6","visitnum":"6.0","epoch":"FOLLOW-UP"},{"seq":"29","testcd":"RESP","test":"Respiratory Rate","cat":null,"orres":"22.5","orresu":"breaths/min","stresc":"22.5","stresn":"22.5","stresu":"breaths/min","stnrlo":null,"stnrhi":null,"nrind":null,"pos":null,"loc":null,"dtc":"2024-04-17","dy":"43","visit":"WEEK 6","visitnum":"6.0","epoch":"FOLLOW-UP"},{"seq":"30","testcd":"SYSBP","test":"Systolic Blood Pressure","cat":null,"orres":"112.5","orresu":"mmHg","stresc":"112.5","stresn":"112.5","stresu":"mmHg","stnrlo":null,"stnrhi":null,"nrind":null,"pos":null,"loc":null,"dtc":"2024-04-17","dy":"43","visit":"WEEK 6","visitnum":"6.0","epoch":"FOLLOW-UP"},{"seq":"31","testcd":"TEMP","test":"Temperature","cat":null,"orres":"36.5","orresu":"C","stresc":"36.5","stresn":"36.5","stresu":"C","stnrlo":null,"stnrhi":null,"nrind":null,"pos":null,"loc":null,"dtc":"2024-04-17","dy":"43","visit":"WEEK 6","visitnum":"6.0","epoch":"FOLLOW-UP"},{"seq":"32","testcd":"WEIGHT","test":"Weight","cat":null,"orres":"48.3","orresu":"kg","stresc":"48.3","stresn":"48.3","stresu":"kg","stnrlo":null,"stnrhi":null,"nrind":null,"pos":null,"loc":null,"dtc":"2024-04-17","dy":"43","visit":"WEEK 6","visitnum":"6.0","epoch":"FOLLOW-UP"},{"seq":"33","testcd":"BMI","test":"BMI","cat":null,"orres":"19.7","orresu":"kg/m2","stresc":"19.7","stresn":"19.7","stresu":"kg/m2","stnrlo":null,"stnrhi":null,"nrind":null,"pos":null,"loc":null,"dtc":"2024-05-26","dy":"82","visit":"WEEK 12","visitnum":"7.0","epoch":"FOLLOW-UP"},{"seq":"34","testcd":"DIABP","test":"Diastolic Blood Pressure","cat":null,"orres":"74.0","orresu":"mmHg","stresc":"74.0","stresn":"74.0","stresu":"mmHg","stnrlo":null,"stnrhi":null,"nrind":null,"pos":null,"loc":null,"dtc":"2024-05-26","dy":"82","visit":"WEEK 12","visitnum":"7.0","epoch":"FOLLOW-UP"},{"seq":"35","testcd":"HEIGHT","test":"Height","cat":null,"orres":"156.0","orresu":"cm","stresc":"156.0","stresn":"156.0","stresu":"cm","stnrlo":null,"stnrhi":null,"nrind":null,"pos":null,"loc":null,"dtc":"2024-05-26","dy":"82","visit":"WEEK 12","visitnum":"7.0","epoch":"FOLLOW-UP"},{"seq":"36","testcd":"PULSE","test":"Pulse Rate","cat":null,"orres":"66.1","orresu":"beats/min","stresc":"66.1","stresn":"66.1","stresu":"beats/min","stnrlo":null,"stnrhi":null,"nrind":null,"pos":null,"loc":null,"dtc":"2024-05-26","dy":"82","visit":"WEEK 12","visitnum":"7.0","epoch":"FOLLOW-UP"},{"seq":"37","testcd":"RESP","test":"Respiratory Rate","cat":null,"orres":"21.9","orresu":"breaths/min","stresc":"21.9","stresn":"21.9","stresu":"breaths/min","stnrlo":null,"stnrhi":null,"nrind":null,"pos":null,"loc":null,"dtc":"2024-05-26","dy":"82","visit":"WEEK 12","visitnum":"7.0","epoch":"FOLLOW-UP"},{"seq":"38","testcd":"SYSBP","test":"Systolic Blood Pressure","cat":null,"orres":"116.4","orresu":"mmHg","stresc":"116.4","stresn":"116.4","stresu":"mmHg","stnrlo":null,"stnrhi":null,"nrind":null,"pos":null,"loc":null,"dtc":"2024-05-26","dy":"82","visit":"WEEK 12","visitnum":"7.0","epoch":"FOLLOW-UP"},{"seq":"39","testcd":"TEMP","test":"Temperature","cat":null,"orres":"36.5","orresu":"C","stresc":"36.5","stresn":"36.5","stresu":"C","stnrlo":null,"stnrhi":null,"nrind":null,"pos":null,"loc":null,"dtc":"2024-05-26","dy":"82","visit":"WEEK 12","visitnum":"7.0","epoch":"FOLLOW-UP"},{"seq":"40","testcd":"WEIGHT","test":"Weight","cat":null,"orres":"48.0","orresu":"kg","stresc":"48.0","stresn":"48.0","stresu":"kg","stnrlo":null,"stnrhi":null,"nrind":null,"pos":null,"loc":null,"dtc":"2024-05-26","dy":"82","visit":"WEEK 12","visitnum":"7.0","epoch":"FOLLOW-UP"}]},"section_10_questionnaires_and_scores":{"questionnaires":[{"seq":"1","testcd":"MADRS01","test":"Apparent Sadness","cat":"MADRS","scat":null,"orres":"3","stresc":"3","stresn":"3.0","dtc":"2024-02-06","dy":"-29","visit":"SCREENING","visitnum":"1.0"},{"seq":"2","testcd":"MADRS02","test":"Reported Sadness","cat":"MADRS","scat":null,"orres":"1","stresc":"1","stresn":"1.0","dtc":"2024-02-06","dy":"-29","visit":"SCREENING","visitnum":"1.0"},{"seq":"3","testcd":"MADRS03","test":"Inner Tension","cat":"MADRS","scat":null,"orres":"4","stresc":"4","stresn":"4.0","dtc":"2024-02-06","dy":"-29","visit":"SCREENING","visitnum":"1.0"},{"seq":"4","testcd":"MADRS04","test":"Reduced Sleep","cat":"MADRS","scat":null,"orres":"3","stresc":"3","stresn":"3.0","dtc":"2024-02-06","dy":"-29","visit":"SCREENING","visitnum":"1.0"},{"seq":"5","testcd":"MADRS05","test":"Reduced Appetite","cat":"MADRS","scat":null,"orres":"2","stresc":"2","stresn":"2.0","dtc":"2024-02-06","dy":"-29","visit":"SCREENING","visitnum":"1.0"},{"seq":"6","testcd":"MADRS06","test":"Concentration Difficulties","cat":"MADRS","scat":null,"orres":"2","stresc":"2","stresn":"2.0","dtc":"2024-02-06","dy":"-29","visit":"SCREENING","visitnum":"1.0"},{"seq":"7","testcd":"MADRS07","test":"Lassitude","cat":"MADRS","scat":null,"orres":"3","stresc":"3","stresn":"3.0","dtc":"2024-02-06","dy":"-29","visit":"SCREENING","visitnum":"1.0"},{"seq":"8","testcd":"MADRS08","test":"Inability to Feel","cat":"MADRS","scat":null,"orres":"4","stresc":"4","stresn":"4.0","dtc":"2024-02-06","dy":"-29","visit":"SCREENING","visitnum":"1.0"},{"seq":"9","testcd":"MADRS09","test":"Pessimistic Thoughts","cat":"MADRS","scat":null,"orres":"2","stresc":"2","stresn":"2.0","dtc":"2024-02-06","dy":"-29","visit":"SCREENING","visitnum":"1.0"},{"seq":"10","testcd":"MADRS10","test":"Suicidal Thoughts","cat":"MADRS","scat":null,"orres":"2","stresc":"2","stresn":"2.0","dtc":"2024-02-06","dy":"-29","visit":"SCREENING","visitnum":"1.0"},{"seq":"11","testcd":"MADRSTOT","test":"MADRS Total Score","cat":"MADRS","scat":"TOTAL","orres":"26.0","stresc":"26.0","stresn":"26.0","dtc":"2024-02-06","dy":"-29","visit":"SCREENING","visitnum":"1.0"},{"seq":"12","testcd":"MADRS01","test":"Apparent Sadness","cat":"MADRS","scat":null,"orres":"3","stresc":"3","stresn":"3.0","dtc":"2024-03-06","dy":"1","visit":"DOSING DAY","visitnum":"2.0"},{"seq":"13","testcd":"MADRS02","test":"Reported Sadness","cat":"MADRS","scat":null,"orres":"2","stresc":"2","stresn":"2.0","dtc":"2024-03-06","dy":"1","visit":"DOSING DAY","visitnum":"2.0"},{"seq":"14","testcd":"MADRS03","test":"Inner Tension","cat":"MADRS","scat":null,"orres":"4","stresc":"4","stresn":"4.0","dtc":"2024-03-06","dy":"1","visit":"DOSING DAY","visitnum":"2.0"},{"seq":"15","testcd":"MADRS04","test":"Reduced Sleep","cat":"MADRS","scat":null,"orres":"4","stresc":"4","stresn":"4.0","dtc":"2024-03-06","dy":"1","visit":"DOSING DAY","visitnum":"2.0"},{"seq":"16","testcd":"MADRS05","test":"Reduced Appetite","cat":"MADRS","scat":null,"orres":"2","stresc":"2","stresn":"2.0","dtc":"2024-03-06","dy":"1","visit":"DOSING DAY","visitnum":"2.0"},{"seq":"17","testcd":"MADRS06","test":"Concentration Difficulties","cat":"MADRS","scat":null,"orres":"3","stresc":"3","stresn":"3.0","dtc":"2024-03-06","dy":"1","visit":"DOSING DAY","visitnum":"2.0"},{"seq":"18","testcd":"MADRS07","test":"Lassitude","cat":"MADRS","scat":null,"orres":"2","stresc":"2","stresn":"2.0","dtc":"2024-03-06","dy":"1","visit":"DOSING DAY","visitnum":"2.0"},{"seq":"19","testcd":"MADRS08","test":"Inability to Feel","cat":"MADRS","scat":null,"orres":"1","stresc":"1","stresn":"1.0","dtc":"2024-03-06","dy":"1","visit":"DOSING DAY","visitnum":"2.0"},{"seq":"20","testcd":"MADRS09","test":"Pessimistic Thoughts","cat":"MADRS","scat":null,"orres":"2","stresc":"2","stresn":"2.0","dtc":"2024-03-06","dy":"1","visit":"DOSING DAY","visitnum":"2.0"},{"seq":"21","testcd":"MADRS10","test":"Suicidal Thoughts","cat":"MADRS","scat":null,"orres":"2","stresc":"2","stresn":"2.0","dtc":"2024-03-06","dy":"1","visit":"DOSING DAY","visitnum":"2.0"},{"seq":"22","testcd":"MADRSTOT","test":"MADRS Total Score","cat":"MADRS","scat":"TOTAL","orres":"25.0","stresc":"25.0","stresn":"25.0","dtc":"2024-03-06","dy":"1","visit":"DOSING DAY","visitnum":"2.0"}],"findings_about":[]},"section_11_protocol_deviations":{"deviations":[{"seq":"1","term":"Missed PSILOCYBIN dose on 2024-03-10","decod":"MISSED DOSE","cat":"MINOR","scat":"DOSING","start_dtc":"2024-03-10","end_dtc":null,"visit":null},{"seq":"2","term":"Missed PSILOCYBIN dose on 2024-03-30","decod":"MISSED DOSE","cat":"MINOR","scat":"DOSING","start_dtc":"2024-03-30","end_dtc":null,"visit":null},{"seq":"3","term":"Visit WEEK 12 occurred 3 days early (Day 82 vs planned Day 85)","decod":"VISIT OCCURRED OUTSIDE VISIT WINDOW","cat":"MINOR","scat":"VISIT WINDOW","start_dtc":"2024-05-26","end_dtc":null,"visit":null}],"total":3},"section_12_disposition":{"completion_status":"COMPLETED","disposition_records":[{"seq":"1","term":"INFORMED CONSENT OBTAINED","decod":"INFORMED CONSENT OBTAINED","cat":"PROTOCOL MILESTONE","scat":null,"dtc":"2024-02-06","dy":null,"visit":null,"epoch":"SCREENING"},{"seq":"2","term":"RANDOMIZED","decod":"RANDOMIZED","cat":"PROTOCOL MILESTONE","scat":null,"dtc":"2024-03-06","dy":null,"visit":null,"epoch":"TREATMENT"},{"seq":"3","term":"COMPLETED","decod":"COMPLETED","cat":"DISPOSITION EVENT","scat":null,"dtc":"2024-06-27","dy":null,"visit":null,"epoch":"FOLLOW-UP"}],"death":null},"section_13_hospitalizations":{"items":[{"seq":"1","term":"Dizziness","decod":"Dizziness","cat":"HOSPITALIZATION","start_dtc":"2024-05-18","end_dtc":"2024-05-21","epoch":"TREATMENT"}],"total":1},"section_14_substance_use":{"items":[{"seq":"1","substance":"ALCOHOL","decod":"ALCOHOL","cat":"ALCOHOL","scat":null,"usage":"Y","dose":"2.0","dosu":"DRINKS/WEEK","freq":"QW","start_dtc":"1999-02-12","end_dtc":null},{"seq":"2","substance":"COFFEE","decod":"COFFEE","cat":"CAFFEINE","scat":null,"usage":"Y","dose":"5.0","dosu":"CUPS/DAY","freq":"QD","start_dtc":"2013-02-08","end_dtc":null},{"seq":"3","substance":"CIGARETTES","decod":"CIGARETTES","cat":"TOBACCO","scat":"CIGARETTES","usage":"N","dose":null,"dosu":null,"freq":null,"start_dtc":null,"end_dtc":null}],"total":3},"section_15_subject_status":{"items":[{"seq":"1","testcd":"SURVSTAT","test":"Survival Status","orres":"ALIVE","stresc":"ALIVE","dtc":"2024-06-27","visit":"END OF STUDY","epoch":"FOLLOW-UP"}],"total":1}}