{
  "study_id": "VISION-NSCLC",
  "generated_at": "2026-06-16T10:08:15.811391+00:00",
  "sdtmig_version": "3.4",
  "overall": {
    "total_subjects": 150,
    "total_records": 82657,
    "domains_generated": 28,
    "conformance_pass": true,
    "error_count": 0,
    "warning_count": 0,
    "info_count": 150
  },
  "domains": {
    "AE": {
      "record_count": 811,
      "variable_count": 35,
      "completeness": {
        "required_vars_present": [
          "STUDYID",
          "DOMAIN",
          "USUBJID",
          "AESEQ",
          "AETERM",
          "AEDECOD",
          "AESTDTC"
        ],
        "required_vars_missing": [],
        "required_vars_pct": 100.0,
        "key_fields_populated_pct": 100.0,
        "date_fields": {
          "AESTDTC": {
            "populated_pct": 100.0
          },
          "AEENDTC": {
            "populated_pct": 88.53
          }
        },
        "variable_population": {
          "STUDYID": 100.0,
          "DOMAIN": 100.0,
          "USUBJID": 100.0,
          "AESEQ": 100.0,
          "AELNKID": 100.0,
          "AETERM": 100.0,
          "AELLT": 100.0,
          "AELLTCD": 0.0,
          "AEDECOD": 100.0,
          "AEPTCD": 100.0,
          "AEHLT": 100.0,
          "AEHLTCD": 100.0,
          "AEHLGT": 100.0,
          "AEHLGTCD": 100.0,
          "AEBODSYS": 100.0,
          "AEBDSYCD": 100.0,
          "AESOC": 100.0,
          "AESOCCD": 100.0,
          "AESEV": 100.0,
          "AESER": 100.0,
          "AEACN": 100.0,
          "AEREL": 100.0,
          "AEOUT": 100.0,
          "AESCONG": 100.0,
          "AESDISAB": 100.0,
          "AESDTH": 100.0,
          "AESHOSP": 100.0,
          "AESLIFE": 100.0,
          "AESMIE": 100.0,
          "EPOCH": 100.0,
          "AESTDTC": 100.0,
          "AEENDTC": 88.53,
          "AESTDY": 100.0,
          "AEENDY": 88.53,
          "AEENRF": 11.47
        }
      },
      "records_per_subject": {
        "mean": 6.5,
        "median": 7.0,
        "min": 1,
        "max": 17,
        "p25": 3.0,
        "p75": 9.0,
        "total_subjects": 124
      },
      "value_distributions": {
        "AESEV": {
          "MILD": 333,
          "MODERATE": 312,
          "SEVERE": 166
        },
        "AESER": {
          "N": 645,
          "Y": 166
        },
        "AEOUT": {
          "RECOVERED/RESOLVED": 575,
          "RECOVERING/RESOLVING": 117,
          "NOT RECOVERED/NOT RESOLVED": 93,
          "RECOVERED/RESOLVED WITH SEQUELAE": 14,
          "UNKNOWN": 10,
          "FATAL": 2
        },
        "AEACN": {
          "DOSE NOT CHANGED": 654,
          "DOSE REDUCED": 76,
          "DRUG INTERRUPTED": 68,
          "DRUG WITHDRAWN": 11,
          "NOT APPLICABLE": 2
        },
        "AEREL": {
          "NOT RELATED": 321,
          "POSSIBLY RELATED": 203,
          "UNLIKELY RELATED": 177,
          "PROBABLY RELATED": 76,
          "RELATED": 34
        },
        "AEBODSYS": {
          "General disorders and administration site conditions": 280,
          "Gastrointestinal disorders": 242,
          "Metabolism and nutrition disorders": 115,
          "Investigations": 92,
          "Respiratory, thoracic and mediastinal disorders": 60,
          "Infections and infestations": 12,
          "Vascular disorders": 6,
          "Immune system disorders": 2,
          "Cardiac disorders": 2
        }
      },
      "conformance_findings": {
        "errors": [],
        "warnings": [],
        "infos": [
          {
            "rule_id": "G6_AE_DEATH",
            "category": "FDA Submission Rules",
            "source": "Pinnacle 21 (SD1040)",
            "description": "No adverse event end date (AEENDTC) should be after the subject's death date (DTHDTC)",
            "result": "AE end dates vs death dates valid",
            "affected_count": 0,
            "affected_usubjids": []
          },
          {
            "rule_id": "G7_DUPLICATE_ROWS",
            "category": "FDA Submission Rules",
            "source": "Pinnacle 21 (SD1042)",
            "description": "No domain should contain exact duplicate rows (all columns identical)",
            "result": "No duplicate rows",
            "affected_count": 0,
            "affected_usubjids": []
          },
          {
            "rule_id": "G10_AEOUT_FATAL",
            "category": "FDA Submission Rules",
            "source": "Pinnacle 21 (SD1055)",
            "description": "When AEOUT is FATAL, AESDTH (resulted in death) must be Y",
            "result": "AEOUT=FATAL implies AESDTH=Y valid",
            "affected_count": 0,
            "affected_usubjids": []
          },
          {
            "rule_id": "D1_AE_DATES",
            "category": "Date and Temporal Integrity",
            "source": "Pinnacle 21 (SD1015)",
            "description": "Adverse event start date (AESTDTC) must be on or before end date (AEENDTC)",
            "result": "AE date ordering valid",
            "affected_count": 0,
            "affected_usubjids": []
          },
          {
            "rule_id": "D2_AFTER_DEATH",
            "category": "Domain Structure Rules",
            "source": "sdtmchecks R package",
            "description": "No clinical events (AE, EX, LB, VS, CM) should occur after the subject's death date",
            "result": "No AE dates after death",
            "affected_count": 0,
            "affected_usubjids": []
          },
          {
            "rule_id": "D4_AEDECOD",
            "category": "Domain Structure Rules",
            "source": "Pinnacle 21",
            "description": "AEDECOD (AE dictionary-derived term) must be populated for every AE record",
            "result": "AEDECOD fully populated",
            "affected_count": 0,
            "affected_usubjids": []
          },
          {
            "rule_id": "D17_EPOCH_AE",
            "category": "Cross-domain Consistency",
            "source": "Pinnacle 21",
            "description": "EPOCH assignment must match Subject Elements (SE) timeline for records in AE",
            "result": "EPOCH populated (811/811)",
            "affected_count": 0,
            "affected_usubjids": []
          },
          {
            "rule_id": "D19_AE_DUPS",
            "category": "Domain Structure Rules",
            "source": "sdtmchecks R package",
            "description": "No subject should have the same AEDECOD on the same AESTDTC (semantic duplicate)",
            "result": "No semantic AE duplicates",
            "affected_count": 0,
            "affected_usubjids": []
          },
          {
            "rule_id": "D20_DOMAIN_COL",
            "category": "Cross-domain Consistency",
            "source": "Pinnacle 21",
            "description": "Every domain must have a DOMAIN column with the correct 2-letter code, positioned as the second column",
            "result": "DOMAIN column correct",
            "affected_count": 0,
            "affected_usubjids": []
          },
          {
            "rule_id": "CN_AE_NOT_RECOV",
            "category": "Clinical Plausibility",
            "source": "Pinnacle 21 (SD1332)",
            "description": "Adverse events with outcome NOT RECOVERED/NOT RESOLVED must not have an end date \u2014 the event is still ongoing",
            "result": "NOT RECOVERED AEs have no end date",
            "affected_count": 0,
            "affected_usubjids": []
          },
          {
            "rule_id": "ST01_AE",
            "category": "STRUCTURAL",
            "category_description": "Checks that every domain has the correct SDTM-IG 3.4 column structure \u2014 required variables present, proper column ordering (STUDYID first, DOMAIN second), and correct data types.",
            "result": "All required variables present",
            "affected_count": 0
          },
          {
            "rule_id": "ST02_AE",
            "category": "STRUCTURAL",
            "category_description": "Checks that every domain has the correct SDTM-IG 3.4 column structure \u2014 required variables present, proper column ordering (STUDYID first, DOMAIN second), and correct data types.",
            "result": "Unique keys valid",
            "affected_count": 0
          },
          {
            "rule_id": "TE01_AE",
            "category": "TEMPORAL",
            "category_description": "Validates date logic within and across domains \u2014 reference dates are chronologically ordered, study day derivations are correct, and no temporal impossibilities exist.",
            "result": "AE date intervals valid",
            "affected_count": 0
          },
          {
            "rule_id": "TE03_DEATH",
            "category": "TEMPORAL",
            "category_description": "Validates date logic within and across domains \u2014 reference dates are chronologically ordered, study day derivations are correct, and no temporal impossibilities exist.",
            "result": "No AEs after death",
            "affected_count": 0
          },
          {
            "rule_id": "CT01_AESEV",
            "category": "TERMINOLOGY",
            "category_description": "Verifies that coded values (AESEV, AEOUT, SEX, RACE, etc.) use CDISC Controlled Terminology and that dictionary-derived terms (AEDECOD, CMDECOD) are populated.",
            "result": "AESEV values valid",
            "affected_count": 0
          },
          {
            "rule_id": "CT02_AEOUT",
            "category": "TERMINOLOGY",
            "category_description": "Verifies that coded values (AESEV, AEOUT, SEX, RACE, etc.) use CDISC Controlled Terminology and that dictionary-derived terms (AEDECOD, CMDECOD) are populated.",
            "result": "AEOUT values valid",
            "affected_count": 0
          },
          {
            "rule_id": "CT03_AESER",
            "category": "TERMINOLOGY",
            "category_description": "Verifies that coded values (AESEV, AEOUT, SEX, RACE, etc.) use CDISC Controlled Terminology and that dictionary-derived terms (AEDECOD, CMDECOD) are populated.",
            "result": "AESER values valid",
            "affected_count": 0
          },
          {
            "rule_id": "CT04_MEDDRA",
            "category": "TERMINOLOGY",
            "category_description": "Verifies that coded values (AESEV, AEOUT, SEX, RACE, etc.) use CDISC Controlled Terminology and that dictionary-derived terms (AEDECOD, CMDECOD) are populated.",
            "result": "All AEs have AEDECOD",
            "affected_count": "0"
          },
          {
            "rule_id": "CO01_AE",
            "category": "COHERENCE",
            "category_description": "Cross-domain logical consistency \u2014 subjects who died have matching DM/DS/AE records, ARM matches ACTARM for enrolled subjects, exposure aligns with disposition.",
            "result": "All subjects in DM",
            "affected_count": 0
          },
          {
            "rule_id": "DV01_AESTDY",
            "category": "DERIVED",
            "category_description": "Validates computed variables \u2014 study day (--DY) correctly derived from reference start date, EPOCH assigned from Subject Elements timeline.",
            "result": "AESTDY correctly derived",
            "affected_count": 0
          },
          {
            "rule_id": "DV02_AESEQ",
            "category": "DERIVED",
            "category_description": "Validates computed variables \u2014 study day (--DY) correctly derived from reference start date, EPOCH assigned from Subject Elements timeline.",
            "result": "AESEQ monotonically increasing per subject",
            "affected_count": 0
          }
        ]
      }
    },
    "CM": {
      "record_count": 585,
      "variable_count": 17,
      "completeness": {
        "required_vars_present": [
          "STUDYID",
          "DOMAIN",
          "USUBJID",
          "CMSEQ",
          "CMTRT"
        ],
        "required_vars_missing": [],
        "required_vars_pct": 100.0,
        "key_fields_populated_pct": 100.0,
        "date_fields": {
          "CMSTDTC": {
            "populated_pct": 100.0
          },
          "CMENDTC": {
            "populated_pct": 100.0
          }
        },
        "variable_population": {
          "STUDYID": 100.0,
          "DOMAIN": 100.0,
          "USUBJID": 100.0,
          "CMSEQ": 100.0,
          "CMTRT": 100.0,
          "CMDECOD": 100.0,
          "CMCAT": 100.0,
          "CMINDC": 84.44,
          "CMDOSE": 84.44,
          "CMDOSU": 84.44,
          "CMDOSFRQ": 100.0,
          "CMROUTE": 100.0,
          "EPOCH": 100.0,
          "CMSTDTC": 100.0,
          "CMENDTC": 100.0,
          "CMSTDY": 100.0,
          "CMENDY": 100.0
        }
      },
      "records_per_subject": {
        "mean": 4.4,
        "median": 4.0,
        "min": 1,
        "max": 16,
        "p25": 2.0,
        "p75": 6.0,
        "total_subjects": 133
      },
      "value_distributions": {
        "CMDECOD": {
          "FUROSEMIDE": 123,
          "PARACETAMOL": 74,
          "IBUPROFEN": 71,
          "ONDANSETRON": 61,
          "LOPERAMIDE": 39,
          "METFORMIN": 32,
          "SALBUTAMOL": 31,
          "MEGESTROL": 27,
          "METOCLOPRAMIDE": 26,
          "OMEPRAZOLE": 25,
          "ASPIRIN": 18,
          "ATORVASTATIN": 10,
          "ESCITALOPRAM": 10,
          "AMLODIPINE": 8,
          "ESOMEPRAZOLE": 7,
          "AMOXICILLIN/CLAVULANATE": 7,
          "LISINOPRIL": 5,
          "SERTRALINE": 4,
          "HYDROCHLOROTHIAZIDE": 4,
          "ROSUVASTATIN": 3
        },
        "CMCAT": {
          "CONCOMITANT": 488,
          "PRIOR": 97
        },
        "CMDOSFRQ": {
          "PRN": 254,
          "QD": 244,
          "BID": 61,
          "TID": 26
        },
        "CMROUTE": {
          "ORAL": 554,
          "RESPIRATORY (INHALATION)": 31
        }
      },
      "conformance_findings": {
        "errors": [],
        "warnings": [],
        "infos": [
          {
            "rule_id": "G7_DUPLICATE_ROWS",
            "category": "FDA Submission Rules",
            "source": "Pinnacle 21 (SD1042)",
            "description": "No domain should contain exact duplicate rows (all columns identical)",
            "result": "No duplicate rows",
            "affected_count": 0,
            "affected_usubjids": []
          },
          {
            "rule_id": "D2_AFTER_DEATH",
            "category": "Domain Structure Rules",
            "source": "sdtmchecks R package",
            "description": "No clinical events (AE, EX, LB, VS, CM) should occur after the subject's death date",
            "result": "No CM dates after death",
            "affected_count": 0,
            "affected_usubjids": []
          },
          {
            "rule_id": "D4_CMDECOD",
            "category": "Domain Structure Rules",
            "source": "Pinnacle 21",
            "description": "CMDECOD (CM dictionary-derived term) must be populated for every CM record",
            "result": "CMDECOD fully populated",
            "affected_count": 0,
            "affected_usubjids": []
          },
          {
            "rule_id": "D17_EPOCH_CM",
            "category": "Cross-domain Consistency",
            "source": "Pinnacle 21",
            "description": "EPOCH assignment must match Subject Elements (SE) timeline for records in CM",
            "result": "EPOCH populated (585/585)",
            "affected_count": 0,
            "affected_usubjids": []
          },
          {
            "rule_id": "D20_DOMAIN_COL",
            "category": "Cross-domain Consistency",
            "source": "Pinnacle 21",
            "description": "Every domain must have a DOMAIN column with the correct 2-letter code, positioned as the second column",
            "result": "DOMAIN column correct",
            "affected_count": 0,
            "affected_usubjids": []
          },
          {
            "rule_id": "CN_CM_DATES",
            "category": "Clinical Plausibility",
            "source": "Clinical validation rules",
            "description": "Concomitant medication start date must be on or before end date",
            "result": "CM date ordering valid",
            "affected_count": 0,
            "affected_usubjids": []
          },
          {
            "rule_id": "ST01_CM",
            "category": "STRUCTURAL",
            "category_description": "Checks that every domain has the correct SDTM-IG 3.4 column structure \u2014 required variables present, proper column ordering (STUDYID first, DOMAIN second), and correct data types.",
            "result": "All required variables present",
            "affected_count": 0
          },
          {
            "rule_id": "ST02_CM",
            "category": "STRUCTURAL",
            "category_description": "Checks that every domain has the correct SDTM-IG 3.4 column structure \u2014 required variables present, proper column ordering (STUDYID first, DOMAIN second), and correct data types.",
            "result": "Unique keys valid",
            "affected_count": 0
          }
        ]
      }
    },
    "DA": {
      "record_count": 39063,
      "variable_count": 16,
      "completeness": {
        "required_vars_present": [
          "STUDYID",
          "DOMAIN",
          "USUBJID",
          "DASEQ",
          "DATESTCD",
          "DATEST"
        ],
        "required_vars_missing": [],
        "required_vars_pct": 100.0,
        "key_fields_populated_pct": 100.0,
        "date_fields": {},
        "variable_population": {
          "STUDYID": 100.0,
          "DOMAIN": 100.0,
          "USUBJID": 100.0,
          "DASEQ": 100.0,
          "DATESTCD": 100.0,
          "DATEST": 100.0,
          "DAORRES": 100.0,
          "DAORRESU": 100.0,
          "DASTRESC": 100.0,
          "DASTRESN": 100.0,
          "DASTRESU": 100.0,
          "VISITNUM": 100.0,
          "VISIT": 28.3,
          "EPOCH": 100.0,
          "DADTC": 100.0,
          "DADY": 100.0
        }
      },
      "records_per_subject": {
        "mean": 283.1,
        "median": 313.5,
        "min": 6,
        "max": 504,
        "p25": 181.5,
        "p75": 405.0,
        "total_subjects": 138
      },
      "value_distributions": {},
      "conformance_findings": {
        "errors": [],
        "warnings": [],
        "infos": [
          {
            "rule_id": "G7_DUPLICATE_ROWS",
            "category": "FDA Submission Rules",
            "source": "Pinnacle 21 (SD1042)",
            "description": "No domain should contain exact duplicate rows (all columns identical)",
            "result": "No duplicate rows",
            "affected_count": 0,
            "affected_usubjids": []
          },
          {
            "rule_id": "D20_DOMAIN_COL",
            "category": "Cross-domain Consistency",
            "source": "Pinnacle 21",
            "description": "Every domain must have a DOMAIN column with the correct 2-letter code, positioned as the second column",
            "result": "DOMAIN column correct",
            "affected_count": 0,
            "affected_usubjids": []
          },
          {
            "rule_id": "ST01_DA",
            "category": "STRUCTURAL",
            "category_description": "Checks that every domain has the correct SDTM-IG 3.4 column structure \u2014 required variables present, proper column ordering (STUDYID first, DOMAIN second), and correct data types.",
            "result": "All required variables present",
            "affected_count": 0
          }
        ]
      }
    },
    "DD": {
      "record_count": 6,
      "variable_count": 9,
      "completeness": {
        "required_vars_present": [
          "STUDYID",
          "DOMAIN",
          "USUBJID",
          "DDSEQ"
        ],
        "required_vars_missing": [],
        "required_vars_pct": 100.0,
        "key_fields_populated_pct": 100.0,
        "date_fields": {},
        "variable_population": {
          "STUDYID": 100.0,
          "DOMAIN": 100.0,
          "USUBJID": 100.0,
          "DDSEQ": 100.0,
          "DDTESTCD": 100.0,
          "DDTEST": 100.0,
          "DDORRES": 100.0,
          "DDSTRESC": 100.0,
          "DDDTC": 100.0
        }
      },
      "records_per_subject": {
        "mean": 3.0,
        "median": 3.0,
        "min": 3,
        "max": 3,
        "p25": 3.0,
        "p75": 3.0,
        "total_subjects": 2
      },
      "value_distributions": {},
      "conformance_findings": {
        "errors": [],
        "warnings": [],
        "infos": [
          {
            "rule_id": "G7_DUPLICATE_ROWS",
            "category": "FDA Submission Rules",
            "source": "Pinnacle 21 (SD1042)",
            "description": "No domain should contain exact duplicate rows (all columns identical)",
            "result": "No duplicate rows",
            "affected_count": 0,
            "affected_usubjids": []
          },
          {
            "rule_id": "D20_DOMAIN_COL",
            "category": "Cross-domain Consistency",
            "source": "Pinnacle 21",
            "description": "Every domain must have a DOMAIN column with the correct 2-letter code, positioned as the second column",
            "result": "DOMAIN column correct",
            "affected_count": 0,
            "affected_usubjids": []
          },
          {
            "rule_id": "ST01_DD",
            "category": "STRUCTURAL",
            "category_description": "Checks that every domain has the correct SDTM-IG 3.4 column structure \u2014 required variables present, proper column ordering (STUDYID first, DOMAIN second), and correct data types.",
            "result": "All required variables present",
            "affected_count": 0
          }
        ]
      }
    },
    "DM": {
      "record_count": 150,
      "variable_count": 27,
      "completeness": {
        "required_vars_present": [
          "STUDYID",
          "DOMAIN",
          "USUBJID",
          "SUBJID",
          "SITEID",
          "AGE",
          "SEX",
          "ARMCD",
          "ARM"
        ],
        "required_vars_missing": [],
        "required_vars_pct": 100.0,
        "key_fields_populated_pct": 98.22,
        "date_fields": {},
        "variable_population": {
          "STUDYID": 100.0,
          "DOMAIN": 100.0,
          "USUBJID": 100.0,
          "SUBJID": 100.0,
          "RFSTDTC": 92.0,
          "RFENDTC": 92.0,
          "RFXSTDTC": 92.0,
          "RFXENDTC": 92.0,
          "RFICDTC": 100.0,
          "RFPENDTC": 92.0,
          "DTHDTC": 1.33,
          "DTHFL": 1.33,
          "SITEID": 100.0,
          "INVNAM": 100.0,
          "BRTHDTC": 100.0,
          "AGE": 100.0,
          "AGEU": 100.0,
          "SEX": 100.0,
          "RACE": 100.0,
          "ETHNIC": 100.0,
          "ARMCD": 92.0,
          "ARM": 92.0,
          "ACTARMCD": 92.0,
          "ACTARM": 92.0,
          "ARMNRS": 8.0,
          "ACTARMUD": 0.0,
          "COUNTRY": 100.0
        }
      },
      "records_per_subject": {
        "mean": 1.0,
        "median": 1.0,
        "min": 1,
        "max": 1,
        "p25": 1.0,
        "p75": 1.0,
        "total_subjects": 150
      },
      "value_distributions": {
        "SEX": {
          "M": 75,
          "F": 75
        },
        "RACE": {
          "WHITE": 105,
          "ASIAN": 16,
          "OTHER": 15,
          "BLACK OR AFRICAN AMERICAN": 14
        },
        "ETHNIC": {
          "NOT HISPANIC OR LATINO": 130,
          "HISPANIC OR LATINO": 13,
          "UNKNOWN": 7
        },
        "COUNTRY": {
          "USA": 150
        },
        "ARMCD": {
          "TEP500": 138
        },
        "ARM": {
          "Tepotinib 500mg QD": 138
        }
      },
      "conformance_findings": {
        "errors": [],
        "warnings": [],
        "infos": [
          {
            "rule_id": "G4_RFSTDTC_ORDER",
            "category": "FDA Submission Rules",
            "source": "Pinnacle 21 (SD1029)",
            "description": "DM reference start/end dates must be in chronological order",
            "result": "DM reference date ordering valid",
            "affected_count": 0,
            "affected_usubjids": []
          },
          {
            "rule_id": "G5_RFXSTDTC",
            "category": "FDA Submission Rules",
            "source": "Pinnacle 21 (SD1030)",
            "description": "RFXSTDTC (first study treatment date) must be populated for enrolled subjects and blank for screen failures",
            "result": "RFXSTDTC enrollment rules valid",
            "affected_count": 0,
            "affected_usubjids": []
          },
          {
            "rule_id": "G7_DUPLICATE_ROWS",
            "category": "FDA Submission Rules",
            "source": "Pinnacle 21 (SD1042)",
            "description": "No domain should contain exact duplicate rows (all columns identical)",
            "result": "No duplicate rows",
            "affected_count": 0,
            "affected_usubjids": []
          },
          {
            "rule_id": "D5_ARM_ACTARM",
            "category": "Cross-domain Consistency",
            "source": "Pinnacle 21",
            "description": "ARM and ACTARM must match for enrolled subjects (planned treatment equals actual)",
            "result": "ARM/ACTARM consistent for enrolled subjects",
            "affected_count": 0,
            "affected_usubjids": []
          },
          {
            "rule_id": "D18_DTHFL",
            "category": "Domain Structure Rules",
            "source": "sdtmchecks R package",
            "description": "DTHFL=Y and DTHDTC must be mutually consistent \u2014 if one is populated, the other must be too",
            "result": "DTHFL/DTHDTC consistent",
            "affected_count": 0,
            "affected_usubjids": []
          },
          {
            "rule_id": "D20_DOMAIN_COL",
            "category": "Cross-domain Consistency",
            "source": "Pinnacle 21",
            "description": "Every domain must have a DOMAIN column with the correct 2-letter code, positioned as the second column",
            "result": "DOMAIN column correct",
            "affected_count": 0,
            "affected_usubjids": []
          },
          {
            "rule_id": "ST01_DM",
            "category": "STRUCTURAL",
            "category_description": "Checks that every domain has the correct SDTM-IG 3.4 column structure \u2014 required variables present, proper column ordering (STUDYID first, DOMAIN second), and correct data types.",
            "result": "All required variables present",
            "affected_count": 0
          },
          {
            "rule_id": "ST02_DM",
            "category": "STRUCTURAL",
            "category_description": "Checks that every domain has the correct SDTM-IG 3.4 column structure \u2014 required variables present, proper column ordering (STUDYID first, DOMAIN second), and correct data types.",
            "result": "Unique keys valid",
            "affected_count": 0
          },
          {
            "rule_id": "TE02_DM",
            "category": "TEMPORAL",
            "category_description": "Validates date logic within and across domains \u2014 reference dates are chronologically ordered, study day derivations are correct, and no temporal impossibilities exist.",
            "result": "DM reference intervals valid",
            "affected_count": 0
          },
          {
            "rule_id": "CT05_SEX",
            "category": "TERMINOLOGY",
            "category_description": "Verifies that coded values (AESEV, AEOUT, SEX, RACE, etc.) use CDISC Controlled Terminology and that dictionary-derived terms (AEDECOD, CMDECOD) are populated.",
            "result": "SEX values valid",
            "affected_count": 0
          },
          {
            "rule_id": "CO03_FATAL_AE",
            "category": "COHERENCE",
            "category_description": "Cross-domain logical consistency \u2014 subjects who died have matching DM/DS/AE records, ARM matches ACTARM for enrolled subjects, exposure aligns with disposition.",
            "result": "Fatal AE \u2194 DM.DTHFL consistent",
            "affected_count": 0
          },
          {
            "rule_id": "CO06_SF_DATES",
            "category": "COHERENCE",
            "category_description": "Cross-domain logical consistency \u2014 subjects who died have matching DM/DS/AE records, ARM matches ACTARM for enrolled subjects, exposure aligns with disposition.",
            "result": "Screen failures have blank RFENDTC/RFPENDTC",
            "affected_count": 0
          }
        ]
      }
    },
    "DS": {
      "record_count": 438,
      "variable_count": 10,
      "completeness": {
        "required_vars_present": [
          "STUDYID",
          "DOMAIN",
          "USUBJID",
          "DSSEQ",
          "DSTERM",
          "DSDECOD",
          "DSCAT"
        ],
        "required_vars_missing": [],
        "required_vars_pct": 100.0,
        "key_fields_populated_pct": 100.0,
        "date_fields": {
          "DSSTDTC": {
            "populated_pct": 100.0
          }
        },
        "variable_population": {
          "STUDYID": 100.0,
          "DOMAIN": 100.0,
          "USUBJID": 100.0,
          "DSSEQ": 100.0,
          "DSTERM": 100.0,
          "DSDECOD": 100.0,
          "DSCAT": 100.0,
          "EPOCH": 100.0,
          "DSSTDTC": 100.0,
          "DSSTDY": 94.52
        }
      },
      "records_per_subject": {
        "mean": 2.9,
        "median": 3.0,
        "min": 2,
        "max": 3,
        "p25": 3.0,
        "p75": 3.0,
        "total_subjects": 150
      },
      "value_distributions": {
        "DSDECOD": {
          "INFORMED CONSENT OBTAINED": 150,
          "RANDOMIZED": 138,
          "COMPLETED": 104,
          "ADVERSE EVENT": 15,
          "ELIGIBILITY CRITERIA NOT MET": 12,
          "PHYSICIAN DECISION": 6,
          "WITHDRAWAL BY SUBJECT": 6,
          "PROTOCOL VIOLATION": 3,
          "LOST TO FOLLOW-UP": 2,
          "DEATH": 2
        },
        "DSCAT": {
          "PROTOCOL MILESTONE": 300,
          "DISPOSITION EVENT": 138
        }
      },
      "conformance_findings": {
        "errors": [],
        "warnings": [],
        "infos": [
          {
            "rule_id": "G7_DUPLICATE_ROWS",
            "category": "FDA Submission Rules",
            "source": "Pinnacle 21 (SD1042)",
            "description": "No domain should contain exact duplicate rows (all columns identical)",
            "result": "No duplicate rows",
            "affected_count": 0,
            "affected_usubjids": []
          },
          {
            "rule_id": "D11_DS_DEATH",
            "category": "Domain Structure Rules",
            "source": "sdtmchecks R package",
            "description": "Subjects who died (DTHFL=Y in DM) must have a DEATH record in DS disposition",
            "result": "DS death records complete (2 deaths)",
            "affected_count": 0,
            "affected_usubjids": []
          },
          {
            "rule_id": "D12_DS_DISCON",
            "category": "Domain Structure Rules",
            "source": "sdtmchecks R package",
            "description": "Each subject should have at most one discontinuation record in DS disposition",
            "result": "Single DISPOSITION EVENT per subject",
            "affected_count": 0,
            "affected_usubjids": []
          },
          {
            "rule_id": "D20_DOMAIN_COL",
            "category": "Cross-domain Consistency",
            "source": "Pinnacle 21",
            "description": "Every domain must have a DOMAIN column with the correct 2-letter code, positioned as the second column",
            "result": "DOMAIN column correct",
            "affected_count": 0,
            "affected_usubjids": []
          },
          {
            "rule_id": "CN_DS_CONSENT",
            "category": "Clinical Plausibility",
            "source": "Clinical validation rules",
            "description": "Every subject must have an INFORMED CONSENT record in DS disposition",
            "result": "All subjects have INFORMED CONSENT record",
            "affected_count": 0,
            "affected_usubjids": []
          },
          {
            "rule_id": "ST01_DS",
            "category": "STRUCTURAL",
            "category_description": "Checks that every domain has the correct SDTM-IG 3.4 column structure \u2014 required variables present, proper column ordering (STUDYID first, DOMAIN second), and correct data types.",
            "result": "All required variables present",
            "affected_count": 0
          },
          {
            "rule_id": "ST02_DS",
            "category": "STRUCTURAL",
            "category_description": "Checks that every domain has the correct SDTM-IG 3.4 column structure \u2014 required variables present, proper column ordering (STUDYID first, DOMAIN second), and correct data types.",
            "result": "Unique keys valid",
            "affected_count": 0
          },
          {
            "rule_id": "CO01_DS",
            "category": "COHERENCE",
            "category_description": "Cross-domain logical consistency \u2014 subjects who died have matching DM/DS/AE records, ARM matches ACTARM for enrolled subjects, exposure aligns with disposition.",
            "result": "All subjects in DM",
            "affected_count": 0
          },
          {
            "rule_id": "CO02_DEATH",
            "category": "COHERENCE",
            "category_description": "Cross-domain logical consistency \u2014 subjects who died have matching DM/DS/AE records, ARM matches ACTARM for enrolled subjects, exposure aligns with disposition.",
            "result": "Death cascade complete",
            "affected_count": 0
          }
        ]
      }
    },
    "DV": {
      "record_count": 956,
      "variable_count": 11,
      "completeness": {
        "required_vars_present": [
          "STUDYID",
          "DOMAIN",
          "USUBJID",
          "DVSEQ",
          "DVTERM",
          "DVDECOD"
        ],
        "required_vars_missing": [],
        "required_vars_pct": 100.0,
        "key_fields_populated_pct": 100.0,
        "date_fields": {
          "DVSTDTC": {
            "populated_pct": 100.0
          }
        },
        "variable_population": {
          "STUDYID": 100.0,
          "DOMAIN": 100.0,
          "USUBJID": 100.0,
          "DVSEQ": 100.0,
          "DVTERM": 100.0,
          "DVDECOD": 100.0,
          "DVCAT": 100.0,
          "DVSCAT": 100.0,
          "EPOCH": 100.0,
          "DVSTDTC": 100.0,
          "DVSTDY": 100.0
        }
      },
      "records_per_subject": {
        "mean": 7.6,
        "median": 8.0,
        "min": 1,
        "max": 17,
        "p25": 4.0,
        "p75": 10.0,
        "total_subjects": 125
      },
      "value_distributions": {
        "DVCAT": {
          "MINOR": 956
        },
        "DVSCAT": {
          "DOSING": 701,
          "VISIT WINDOW": 227,
          "ASSESSMENT": 28
        },
        "DVDECOD": {
          "MISSED DOSE": 682,
          "VISIT OCCURRED OUTSIDE VISIT WINDOW": 227,
          "MISSED ASSESSMENT": 28,
          "DOSE MODIFICATION": 19
        }
      },
      "conformance_findings": {
        "errors": [],
        "warnings": [],
        "infos": [
          {
            "rule_id": "G7_DUPLICATE_ROWS",
            "category": "FDA Submission Rules",
            "source": "Pinnacle 21 (SD1042)",
            "description": "No domain should contain exact duplicate rows (all columns identical)",
            "result": "No duplicate rows",
            "affected_count": 0,
            "affected_usubjids": []
          },
          {
            "rule_id": "D20_DOMAIN_COL",
            "category": "Cross-domain Consistency",
            "source": "Pinnacle 21",
            "description": "Every domain must have a DOMAIN column with the correct 2-letter code, positioned as the second column",
            "result": "DOMAIN column correct",
            "affected_count": 0,
            "affected_usubjids": []
          },
          {
            "rule_id": "ST01_DV",
            "category": "STRUCTURAL",
            "category_description": "Checks that every domain has the correct SDTM-IG 3.4 column structure \u2014 required variables present, proper column ordering (STUDYID first, DOMAIN second), and correct data types.",
            "result": "All required variables present",
            "affected_count": 0
          }
        ]
      }
    },
    "EC": {
      "record_count": 13021,
      "variable_count": 23,
      "completeness": {
        "required_vars_present": [
          "STUDYID",
          "DOMAIN",
          "USUBJID",
          "ECSEQ",
          "ECTRT"
        ],
        "required_vars_missing": [],
        "required_vars_pct": 100.0,
        "key_fields_populated_pct": 100.0,
        "date_fields": {},
        "variable_population": {
          "STUDYID": 100.0,
          "DOMAIN": 100.0,
          "USUBJID": 100.0,
          "ECSEQ": 100.0,
          "ECTRT": 100.0,
          "ECPRESP": 100.0,
          "ECOCCUR": 100.0,
          "ECDOSE": 94.4,
          "ECDOSTXT": 0.0,
          "ECDOSU": 100.0,
          "ECDOSFRM": 0.0,
          "ECDOSFRQ": 100.0,
          "ECROUTE": 100.0,
          "ECMOOD": 100.0,
          "ECSTAT": 5.6,
          "ECREASND": 5.6,
          "EPOCH": 100.0,
          "ECSTDTC": 100.0,
          "ECENDTC": 100.0,
          "ECSTDY": 100.0,
          "ECENDY": 100.0,
          "VISITNUM": 100.0,
          "VISIT": 28.3
        }
      },
      "records_per_subject": {
        "mean": 94.4,
        "median": 104.5,
        "min": 2,
        "max": 168,
        "p25": 60.5,
        "p75": 135.0,
        "total_subjects": 138
      },
      "value_distributions": {
        "ECTRT": {
          "TEPOTINIB": 13021
        },
        "ECMOOD": {
          "PERFORMED": 12292,
          "SCHEDULED": 729
        }
      },
      "conformance_findings": {
        "errors": [],
        "warnings": [],
        "infos": [
          {
            "rule_id": "G7_DUPLICATE_ROWS",
            "category": "FDA Submission Rules",
            "source": "Pinnacle 21 (SD1042)",
            "description": "No domain should contain exact duplicate rows (all columns identical)",
            "result": "No duplicate rows",
            "affected_count": 0,
            "affected_usubjids": []
          },
          {
            "rule_id": "D20_DOMAIN_COL",
            "category": "Cross-domain Consistency",
            "source": "Pinnacle 21",
            "description": "Every domain must have a DOMAIN column with the correct 2-letter code, positioned as the second column",
            "result": "DOMAIN column correct",
            "affected_count": 0,
            "affected_usubjids": []
          },
          {
            "rule_id": "ST01_EC",
            "category": "STRUCTURAL",
            "category_description": "Checks that every domain has the correct SDTM-IG 3.4 column structure \u2014 required variables present, proper column ordering (STUDYID first, DOMAIN second), and correct data types.",
            "result": "All required variables present",
            "affected_count": 0
          }
        ]
      }
    },
    "EX": {
      "record_count": 226,
      "variable_count": 15,
      "completeness": {
        "required_vars_present": [
          "STUDYID",
          "DOMAIN",
          "USUBJID",
          "EXSEQ",
          "EXTRT",
          "EXSTDTC"
        ],
        "required_vars_missing": [],
        "required_vars_pct": 100.0,
        "key_fields_populated_pct": 100.0,
        "date_fields": {
          "EXSTDTC": {
            "populated_pct": 100.0
          },
          "EXENDTC": {
            "populated_pct": 100.0
          }
        },
        "variable_population": {
          "STUDYID": 100.0,
          "DOMAIN": 100.0,
          "USUBJID": 100.0,
          "EXSEQ": 100.0,
          "EXTRT": 100.0,
          "EXDOSE": 100.0,
          "EXDOSU": 100.0,
          "EXDOSFRM": 0.0,
          "EXDOSFRQ": 100.0,
          "EXROUTE": 100.0,
          "EPOCH": 100.0,
          "EXSTDTC": 100.0,
          "EXENDTC": 100.0,
          "EXSTDY": 100.0,
          "EXENDY": 100.0
        }
      },
      "records_per_subject": {
        "mean": 1.6,
        "median": 1.0,
        "min": 1,
        "max": 5,
        "p25": 1.0,
        "p75": 2.0,
        "total_subjects": 138
      },
      "value_distributions": {
        "EXTRT": {
          "TEPOTINIB": 226
        },
        "EXDOSFRQ": {
          "QD": 226
        },
        "EXROUTE": {
          "ORAL": 226
        }
      },
      "conformance_findings": {
        "errors": [],
        "warnings": [],
        "infos": [
          {
            "rule_id": "G7_DUPLICATE_ROWS",
            "category": "FDA Submission Rules",
            "source": "Pinnacle 21 (SD1042)",
            "description": "No domain should contain exact duplicate rows (all columns identical)",
            "result": "No duplicate rows",
            "affected_count": 0,
            "affected_usubjids": []
          },
          {
            "rule_id": "D2_AFTER_DEATH",
            "category": "Domain Structure Rules",
            "source": "sdtmchecks R package",
            "description": "No clinical events (AE, EX, LB, VS, CM) should occur after the subject's death date",
            "result": "No EX dates after death",
            "affected_count": 0,
            "affected_usubjids": []
          },
          {
            "rule_id": "D3_EX_DATES",
            "category": "Domain Structure Rules",
            "source": "sdtmchecks R package",
            "description": "Exposure start date (EXSTDTC) must be on or before end date (EXENDTC)",
            "result": "EX date ordering valid",
            "affected_count": 0,
            "affected_usubjids": []
          },
          {
            "rule_id": "D10_EXDOSU",
            "category": "Domain Structure Rules",
            "source": "sdtmchecks R package",
            "description": "Exposure dose units (EXDOSU) must be populated for all EX records",
            "result": "EXDOSU fully populated",
            "affected_count": 0,
            "affected_usubjids": []
          },
          {
            "rule_id": "D13_EX_DISCON",
            "category": "Domain Structure Rules",
            "source": "sdtmchecks R package",
            "description": "No exposure records should have a start date after the subject's discontinuation date",
            "result": "No EX after discontinuation (34 discontinued)",
            "affected_count": 0,
            "affected_usubjids": []
          },
          {
            "rule_id": "D17_EPOCH_EX",
            "category": "Cross-domain Consistency",
            "source": "Pinnacle 21",
            "description": "EPOCH assignment must match Subject Elements (SE) timeline for records in EX",
            "result": "EPOCH populated (226/226)",
            "affected_count": 0,
            "affected_usubjids": []
          },
          {
            "rule_id": "D20_DOMAIN_COL",
            "category": "Cross-domain Consistency",
            "source": "Pinnacle 21",
            "description": "Every domain must have a DOMAIN column with the correct 2-letter code, positioned as the second column",
            "result": "DOMAIN column correct",
            "affected_count": 0,
            "affected_usubjids": []
          },
          {
            "rule_id": "ST01_EX",
            "category": "STRUCTURAL",
            "category_description": "Checks that every domain has the correct SDTM-IG 3.4 column structure \u2014 required variables present, proper column ordering (STUDYID first, DOMAIN second), and correct data types.",
            "result": "All required variables present",
            "affected_count": 0
          },
          {
            "rule_id": "ST02_EX",
            "category": "STRUCTURAL",
            "category_description": "Checks that every domain has the correct SDTM-IG 3.4 column structure \u2014 required variables present, proper column ordering (STUDYID first, DOMAIN second), and correct data types.",
            "result": "Unique keys valid",
            "affected_count": 0
          },
          {
            "rule_id": "TE01_EX",
            "category": "TEMPORAL",
            "category_description": "Validates date logic within and across domains \u2014 reference dates are chronologically ordered, study day derivations are correct, and no temporal impossibilities exist.",
            "result": "EX date intervals valid",
            "affected_count": 0
          },
          {
            "rule_id": "CO01_EX",
            "category": "COHERENCE",
            "category_description": "Cross-domain logical consistency \u2014 subjects who died have matching DM/DS/AE records, ARM matches ACTARM for enrolled subjects, exposure aligns with disposition.",
            "result": "All subjects in DM",
            "affected_count": 0
          },
          {
            "rule_id": "CO04_EX",
            "category": "COHERENCE",
            "category_description": "Cross-domain logical consistency \u2014 subjects who died have matching DM/DS/AE records, ARM matches ACTARM for enrolled subjects, exposure aligns with disposition.",
            "result": "All enrolled subjects have EX",
            "affected_count": 0
          }
        ]
      }
    },
    "FA": {
      "record_count": 6374,
      "variable_count": 21,
      "completeness": {
        "required_vars_present": [
          "STUDYID",
          "DOMAIN",
          "USUBJID",
          "FASEQ",
          "FATESTCD",
          "FATEST"
        ],
        "required_vars_missing": [],
        "required_vars_pct": 100.0,
        "key_fields_populated_pct": 100.0,
        "date_fields": {},
        "variable_population": {
          "STUDYID": 100.0,
          "DOMAIN": 100.0,
          "USUBJID": 100.0,
          "FASEQ": 100.0,
          "FATESTCD": 100.0,
          "FATEST": 100.0,
          "FACAT": 100.0,
          "FASCAT": 0.0,
          "FAOBJ": 100.0,
          "FAORRES": 100.0,
          "FAORRESU": 100.0,
          "FASTRESC": 100.0,
          "FASTRESN": 100.0,
          "FASTRESU": 100.0,
          "FASTAT": 0.0,
          "FABLFL": 14.21,
          "VISITNUM": 100.0,
          "VISIT": 100.0,
          "EPOCH": 100.0,
          "FADTC": 100.0,
          "FADY": 100.0
        }
      },
      "records_per_subject": {
        "mean": 46.2,
        "median": 48.0,
        "min": 4,
        "max": 80,
        "p25": 20.0,
        "p75": 64.0,
        "total_subjects": 138
      },
      "value_distributions": {
        "FATESTCD": {
          "LDIAM": 3187,
          "SAXIS": 3187
        },
        "FACAT": {
          "TUMOR ASSESSMENT": 6374
        }
      },
      "conformance_findings": {
        "errors": [],
        "warnings": [],
        "infos": [
          {
            "rule_id": "G7_DUPLICATE_ROWS",
            "category": "FDA Submission Rules",
            "source": "Pinnacle 21 (SD1042)",
            "description": "No domain should contain exact duplicate rows (all columns identical)",
            "result": "No duplicate rows",
            "affected_count": 0,
            "affected_usubjids": []
          },
          {
            "rule_id": "D20_DOMAIN_COL",
            "category": "Cross-domain Consistency",
            "source": "Pinnacle 21",
            "description": "Every domain must have a DOMAIN column with the correct 2-letter code, positioned as the second column",
            "result": "DOMAIN column correct",
            "affected_count": 0,
            "affected_usubjids": []
          },
          {
            "rule_id": "ST01_FA",
            "category": "STRUCTURAL",
            "category_description": "Checks that every domain has the correct SDTM-IG 3.4 column structure \u2014 required variables present, proper column ordering (STUDYID first, DOMAIN second), and correct data types.",
            "result": "All required variables present",
            "affected_count": 0
          }
        ]
      }
    },
    "HO": {
      "record_count": 122,
      "variable_count": 12,
      "completeness": {
        "required_vars_present": [
          "STUDYID",
          "DOMAIN",
          "USUBJID",
          "HOSEQ",
          "HOTERM"
        ],
        "required_vars_missing": [],
        "required_vars_pct": 100.0,
        "key_fields_populated_pct": 100.0,
        "date_fields": {},
        "variable_population": {
          "STUDYID": 100.0,
          "DOMAIN": 100.0,
          "USUBJID": 100.0,
          "HOSEQ": 100.0,
          "HOTERM": 100.0,
          "HODECOD": 100.0,
          "HOCAT": 100.0,
          "EPOCH": 100.0,
          "HOSTDTC": 100.0,
          "HOENDTC": 100.0,
          "HOSTDY": 100.0,
          "HOENDY": 100.0
        }
      },
      "records_per_subject": {
        "mean": 1.6,
        "median": 1.0,
        "min": 1,
        "max": 7,
        "p25": 1.0,
        "p75": 2.0,
        "total_subjects": 76
      },
      "value_distributions": {
        "HOTERM": {
          "Oedema peripheral": 26,
          "Nausea": 24,
          "Fatigue": 12,
          "Diarrhoea": 12,
          "Vomiting": 8,
          "Hypoalbuminaemia": 8,
          "Decreased appetite": 8,
          "Pleural effusion": 6,
          "Dyspnoea": 6,
          "Aspartate aminotransferase increased": 5,
          "Pneumonia": 3,
          "Blood creatinine increased": 1,
          "Alanine aminotransferase increased": 1,
          "Cytokine release syndrome": 1,
          "Myocardial infarction": 1
        }
      },
      "conformance_findings": {
        "errors": [],
        "warnings": [],
        "infos": [
          {
            "rule_id": "G7_DUPLICATE_ROWS",
            "category": "FDA Submission Rules",
            "source": "Pinnacle 21 (SD1042)",
            "description": "No domain should contain exact duplicate rows (all columns identical)",
            "result": "No duplicate rows",
            "affected_count": 0,
            "affected_usubjids": []
          },
          {
            "rule_id": "D20_DOMAIN_COL",
            "category": "Cross-domain Consistency",
            "source": "Pinnacle 21",
            "description": "Every domain must have a DOMAIN column with the correct 2-letter code, positioned as the second column",
            "result": "DOMAIN column correct",
            "affected_count": 0,
            "affected_usubjids": []
          },
          {
            "rule_id": "ST01_HO",
            "category": "STRUCTURAL",
            "category_description": "Checks that every domain has the correct SDTM-IG 3.4 column structure \u2014 required variables present, proper column ordering (STUDYID first, DOMAIN second), and correct data types.",
            "result": "All required variables present",
            "affected_count": 0
          }
        ]
      }
    },
    "IE": {
      "record_count": 12,
      "variable_count": 14,
      "completeness": {
        "required_vars_present": [
          "STUDYID",
          "DOMAIN",
          "USUBJID",
          "IESEQ",
          "IETESTCD",
          "IETEST",
          "IEORRES"
        ],
        "required_vars_missing": [],
        "required_vars_pct": 100.0,
        "key_fields_populated_pct": 100.0,
        "date_fields": {},
        "variable_population": {
          "STUDYID": 100.0,
          "DOMAIN": 100.0,
          "USUBJID": 100.0,
          "IESEQ": 100.0,
          "IETESTCD": 100.0,
          "IETEST": 100.0,
          "IECAT": 100.0,
          "IEORRES": 100.0,
          "IESTRESC": 100.0,
          "VISITNUM": 100.0,
          "VISIT": 100.0,
          "EPOCH": 100.0,
          "IEDTC": 100.0,
          "IEDY": 0.0
        }
      },
      "records_per_subject": {
        "mean": 1.0,
        "median": 1.0,
        "min": 1,
        "max": 1,
        "p25": 1.0,
        "p75": 1.0,
        "total_subjects": 12
      },
      "value_distributions": {
        "IECAT": {
          "EXCLUSION": 10,
          "INCLUSION": 2
        },
        "IEORRES": {
          "Y": 10,
          "N": 2
        }
      },
      "conformance_findings": {
        "errors": [],
        "warnings": [],
        "infos": [
          {
            "rule_id": "G7_DUPLICATE_ROWS",
            "category": "FDA Submission Rules",
            "source": "Pinnacle 21 (SD1042)",
            "description": "No domain should contain exact duplicate rows (all columns identical)",
            "result": "No duplicate rows",
            "affected_count": 0,
            "affected_usubjids": []
          },
          {
            "rule_id": "D20_DOMAIN_COL",
            "category": "Cross-domain Consistency",
            "source": "Pinnacle 21",
            "description": "Every domain must have a DOMAIN column with the correct 2-letter code, positioned as the second column",
            "result": "DOMAIN column correct",
            "affected_count": 0,
            "affected_usubjids": []
          },
          {
            "rule_id": "ST01_IE",
            "category": "STRUCTURAL",
            "category_description": "Checks that every domain has the correct SDTM-IG 3.4 column structure \u2014 required variables present, proper column ordering (STUDYID first, DOMAIN second), and correct data types.",
            "result": "All required variables present",
            "affected_count": 0
          }
        ]
      }
    },
    "LB": {
      "record_count": 6643,
      "variable_count": 25,
      "completeness": {
        "required_vars_present": [
          "STUDYID",
          "DOMAIN",
          "USUBJID",
          "LBSEQ",
          "LBTESTCD",
          "LBTEST",
          "LBORRES",
          "LBORRESU"
        ],
        "required_vars_missing": [],
        "required_vars_pct": 100.0,
        "key_fields_populated_pct": 98.99,
        "date_fields": {
          "LBDTC": {
            "populated_pct": 100.0
          }
        },
        "variable_population": {
          "STUDYID": 100.0,
          "DOMAIN": 100.0,
          "USUBJID": 100.0,
          "LBSEQ": 100.0,
          "LBTESTCD": 100.0,
          "LBTEST": 100.0,
          "LBCAT": 100.0,
          "LBORRES": 95.95,
          "LBORRESU": 95.95,
          "LBORNRLO": 95.95,
          "LBORNRHI": 95.95,
          "LBSTRESC": 95.95,
          "LBSTRESN": 95.95,
          "LBSTRESU": 95.95,
          "LBSTNRLO": 95.95,
          "LBSTNRHI": 95.95,
          "LBNRIND": 95.95,
          "LBSTAT": 4.05,
          "LBLOBXFL": 14.53,
          "LBBLFL": 14.53,
          "VISITNUM": 100.0,
          "VISIT": 100.0,
          "EPOCH": 100.0,
          "LBDTC": 100.0,
          "LBDY": 100.0
        }
      },
      "records_per_subject": {
        "mean": 48.1,
        "median": 56.0,
        "min": 14,
        "max": 63,
        "p25": 42.0,
        "p75": 63.0,
        "total_subjects": 138
      },
      "value_distributions": {
        "LBTESTCD": {
          "ALT": 949,
          "AST": 949,
          "CREAT": 949,
          "GLUC": 949,
          "HGB": 949,
          "PLAT": 949,
          "WBC": 949
        },
        "LBCAT": {
          "CHEMISTRY": 3796,
          "HEMATOLOGY": 2847
        },
        "LBNRIND": {
          "NORMAL": 5221,
          "LOW": 577,
          "HIGH": 576
        }
      },
      "conformance_findings": {
        "errors": [],
        "warnings": [],
        "infos": [
          {
            "rule_id": "G7_DUPLICATE_ROWS",
            "category": "FDA Submission Rules",
            "source": "Pinnacle 21 (SD1042)",
            "description": "No domain should contain exact duplicate rows (all columns identical)",
            "result": "No duplicate rows",
            "affected_count": 0,
            "affected_usubjids": []
          },
          {
            "rule_id": "G12_LBNRIND",
            "category": "Domain Structure Rules",
            "source": "sdtmchecks R package",
            "description": "Lab normal range indicator (LBNRIND) must be consistent with result vs reference range (LOW/NORMAL/HIGH)",
            "result": "LBNRIND consistent with reference ranges (6374 checked)",
            "affected_count": 0,
            "affected_usubjids": []
          },
          {
            "rule_id": "D2_AFTER_DEATH",
            "category": "Domain Structure Rules",
            "source": "sdtmchecks R package",
            "description": "No clinical events (AE, EX, LB, VS, CM) should occur after the subject's death date",
            "result": "No LB dates after death",
            "affected_count": 0,
            "affected_usubjids": []
          },
          {
            "rule_id": "D7_VISIT_ORDER_LB",
            "category": "Domain Structure Rules",
            "source": "Pinnacle 21",
            "description": "Visit dates must be in chronological order of VISITNUM within LB",
            "result": "Visit dates chronological by VISITNUM",
            "affected_count": 0,
            "affected_usubjids": []
          },
          {
            "rule_id": "D9_LBORNRLO",
            "category": "Domain Structure Rules",
            "source": "sdtmchecks R package",
            "description": "Lab reference range column must be populated for quantitative results in LBORNRLO",
            "result": "LBORNRLO populated (6374 rows)",
            "affected_count": 0,
            "affected_usubjids": []
          },
          {
            "rule_id": "D9_LBORNRHI",
            "category": "Domain Structure Rules",
            "source": "sdtmchecks R package",
            "description": "Lab reference range column must be populated for quantitative results in LBORNRHI",
            "result": "LBORNRHI populated (6374 rows)",
            "affected_count": 0,
            "affected_usubjids": []
          },
          {
            "rule_id": "D10_LBSTRESU",
            "category": "Domain Structure Rules",
            "source": "sdtmchecks R package",
            "description": "Lab standard units (LBSTRESU) must be populated for all quantitative results",
            "result": "LBSTRESU fully populated",
            "affected_count": 0,
            "affected_usubjids": []
          },
          {
            "rule_id": "D17_EPOCH_LB",
            "category": "Cross-domain Consistency",
            "source": "Pinnacle 21",
            "description": "EPOCH assignment must match Subject Elements (SE) timeline for records in LB",
            "result": "EPOCH populated (6643/6643)",
            "affected_count": 0,
            "affected_usubjids": []
          },
          {
            "rule_id": "D20_DOMAIN_COL",
            "category": "Cross-domain Consistency",
            "source": "Pinnacle 21",
            "description": "Every domain must have a DOMAIN column with the correct 2-letter code, positioned as the second column",
            "result": "DOMAIN column correct",
            "affected_count": 0,
            "affected_usubjids": []
          },
          {
            "rule_id": "CN_LB_RANGES",
            "category": "Clinical Plausibility",
            "source": "Clinical validation rules",
            "description": "Lab results must fall within physiologically possible ranges (e.g., ALT 1\u20132000 U/L, HGB 40\u2013220 g/L)",
            "result": "LB values within physiological ranges",
            "affected_count": 0,
            "affected_usubjids": []
          },
          {
            "rule_id": "ST01_LB",
            "category": "STRUCTURAL",
            "category_description": "Checks that every domain has the correct SDTM-IG 3.4 column structure \u2014 required variables present, proper column ordering (STUDYID first, DOMAIN second), and correct data types.",
            "result": "All required variables present",
            "affected_count": 0
          },
          {
            "rule_id": "ST02_LB",
            "category": "STRUCTURAL",
            "category_description": "Checks that every domain has the correct SDTM-IG 3.4 column structure \u2014 required variables present, proper column ordering (STUDYID first, DOMAIN second), and correct data types.",
            "result": "Unique keys valid",
            "affected_count": 0
          }
        ]
      }
    },
    "MH": {
      "record_count": 380,
      "variable_count": 15,
      "completeness": {
        "required_vars_present": [
          "STUDYID",
          "DOMAIN",
          "USUBJID",
          "MHSEQ",
          "MHTERM"
        ],
        "required_vars_missing": [],
        "required_vars_pct": 100.0,
        "key_fields_populated_pct": 100.0,
        "date_fields": {
          "MHSTDTC": {
            "populated_pct": 100.0
          }
        },
        "variable_population": {
          "STUDYID": 100.0,
          "DOMAIN": 100.0,
          "USUBJID": 100.0,
          "MHSEQ": 100.0,
          "MHTERM": 100.0,
          "MHDECOD": 100.0,
          "MHCAT": 100.0,
          "MHSCAT": 0.0,
          "MHBODSYS": 0.0,
          "EPOCH": 85.79,
          "MHSTDTC": 100.0,
          "MHENDTC": 62.11,
          "MHSTDY": 100.0,
          "MHENDY": 62.11,
          "MHENRF": 100.0
        }
      },
      "records_per_subject": {
        "mean": 3.2,
        "median": 3.0,
        "min": 1,
        "max": 5,
        "p25": 2.0,
        "p75": 5.0,
        "total_subjects": 117
      },
      "value_distributions": {
        "MHDECOD": {
          "DIABETES MELLITUS TYPE 2": 68,
          "GASTROESOPHAGEAL REFLUX DISEASE": 66,
          "HYPERLIPIDEMIA": 64,
          "DEPRESSION": 62,
          "HYPERTENSION": 62,
          "ASTHMA": 58
        },
        "MHCAT": {
          "ENDOCRINE": 68,
          "GASTROINTESTINAL": 66,
          "METABOLIC": 64,
          "PSYCHIATRIC": 62,
          "CARDIOVASCULAR": 62,
          "RESPIRATORY": 58
        }
      },
      "conformance_findings": {
        "errors": [],
        "warnings": [],
        "infos": [
          {
            "rule_id": "G7_DUPLICATE_ROWS",
            "category": "FDA Submission Rules",
            "source": "Pinnacle 21 (SD1042)",
            "description": "No domain should contain exact duplicate rows (all columns identical)",
            "result": "No duplicate rows",
            "affected_count": 0,
            "affected_usubjids": []
          },
          {
            "rule_id": "D20_DOMAIN_COL",
            "category": "Cross-domain Consistency",
            "source": "Pinnacle 21",
            "description": "Every domain must have a DOMAIN column with the correct 2-letter code, positioned as the second column",
            "result": "DOMAIN column correct",
            "affected_count": 0,
            "affected_usubjids": []
          },
          {
            "rule_id": "CN_MH_PRESTUDY",
            "category": "Clinical Plausibility",
            "source": "Clinical validation rules",
            "description": "Medical history conditions should start before or on the study reference start date (pre-study events)",
            "result": "MH conditions pre-date study start",
            "affected_count": 0,
            "affected_usubjids": []
          },
          {
            "rule_id": "ST01_MH",
            "category": "STRUCTURAL",
            "category_description": "Checks that every domain has the correct SDTM-IG 3.4 column structure \u2014 required variables present, proper column ordering (STUDYID first, DOMAIN second), and correct data types.",
            "result": "All required variables present",
            "affected_count": 0
          },
          {
            "rule_id": "ST02_MH",
            "category": "STRUCTURAL",
            "category_description": "Checks that every domain has the correct SDTM-IG 3.4 column structure \u2014 required variables present, proper column ordering (STUDYID first, DOMAIN second), and correct data types.",
            "result": "Unique keys valid",
            "affected_count": 0
          }
        ]
      }
    },
    "PE": {
      "record_count": 2760,
      "variable_count": 13,
      "completeness": {
        "required_vars_present": [
          "STUDYID",
          "DOMAIN",
          "USUBJID",
          "PESEQ",
          "PETESTCD",
          "PETEST"
        ],
        "required_vars_missing": [],
        "required_vars_pct": 100.0,
        "key_fields_populated_pct": 100.0,
        "date_fields": {},
        "variable_population": {
          "STUDYID": 100.0,
          "DOMAIN": 100.0,
          "USUBJID": 100.0,
          "PESEQ": 100.0,
          "PETESTCD": 100.0,
          "PETEST": 100.0,
          "PEORRES": 100.0,
          "PESTRESC": 100.0,
          "VISITNUM": 100.0,
          "VISIT": 100.0,
          "EPOCH": 100.0,
          "PEDTC": 100.0,
          "PEDY": 100.0
        }
      },
      "records_per_subject": {
        "mean": 20.0,
        "median": 20.0,
        "min": 20,
        "max": 20,
        "p25": 20.0,
        "p75": 20.0,
        "total_subjects": 138
      },
      "value_distributions": {
        "PETESTCD": {
          "ABDOMEN": 276,
          "CARDIOVA": 276,
          "EARSNOSE": 276,
          "EYES": 276,
          "GENERALA": 276,
          "HEADANDN": 276,
          "MUSCULOS": 276,
          "NEUROLOG": 276,
          "RESPIRAT": 276,
          "SKIN": 276
        }
      },
      "conformance_findings": {
        "errors": [],
        "warnings": [],
        "infos": [
          {
            "rule_id": "G7_DUPLICATE_ROWS",
            "category": "FDA Submission Rules",
            "source": "Pinnacle 21 (SD1042)",
            "description": "No domain should contain exact duplicate rows (all columns identical)",
            "result": "No duplicate rows",
            "affected_count": 0,
            "affected_usubjids": []
          },
          {
            "rule_id": "D20_DOMAIN_COL",
            "category": "Cross-domain Consistency",
            "source": "Pinnacle 21",
            "description": "Every domain must have a DOMAIN column with the correct 2-letter code, positioned as the second column",
            "result": "DOMAIN column correct",
            "affected_count": 0,
            "affected_usubjids": []
          },
          {
            "rule_id": "ST01_PE",
            "category": "STRUCTURAL",
            "category_description": "Checks that every domain has the correct SDTM-IG 3.4 column structure \u2014 required variables present, proper column ordering (STUDYID first, DOMAIN second), and correct data types.",
            "result": "All required variables present",
            "affected_count": 0
          }
        ]
      }
    },
    "RELREC": {
      "record_count": 820,
      "variable_count": 7,
      "completeness": {
        "required_vars_present": [],
        "required_vars_missing": [],
        "required_vars_pct": 100.0,
        "key_fields_populated_pct": 100.0,
        "date_fields": {},
        "variable_population": {
          "STUDYID": 100.0,
          "RDOMAIN": 100.0,
          "USUBJID": 100.0,
          "IDVAR": 100.0,
          "IDVARVAL": 100.0,
          "RELTYPE": 0.0,
          "RELID": 100.0
        }
      },
      "records_per_subject": {
        "mean": 7.1,
        "median": 6.0,
        "min": 2,
        "max": 24,
        "p25": 4.0,
        "p75": 10.0,
        "total_subjects": 116
      },
      "value_distributions": {},
      "conformance_findings": {
        "errors": [],
        "warnings": [],
        "infos": [
          {
            "rule_id": "G7_DUPLICATE_ROWS",
            "category": "FDA Submission Rules",
            "source": "Pinnacle 21 (SD1042)",
            "description": "No domain should contain exact duplicate rows (all columns identical)",
            "result": "No duplicate rows",
            "affected_count": 0,
            "affected_usubjids": []
          },
          {
            "rule_id": "ST01_RELREC",
            "category": "STRUCTURAL",
            "category_description": "Checks that every domain has the correct SDTM-IG 3.4 column structure \u2014 required variables present, proper column ordering (STUDYID first, DOMAIN second), and correct data types.",
            "result": "All required variables present",
            "affected_count": 0
          }
        ]
      }
    },
    "SC": {
      "record_count": 601,
      "variable_count": 13,
      "completeness": {
        "required_vars_present": [
          "STUDYID",
          "DOMAIN",
          "USUBJID",
          "SCSEQ",
          "SCTESTCD",
          "SCTEST"
        ],
        "required_vars_missing": [],
        "required_vars_pct": 100.0,
        "key_fields_populated_pct": 100.0,
        "date_fields": {},
        "variable_population": {
          "STUDYID": 100.0,
          "DOMAIN": 100.0,
          "USUBJID": 100.0,
          "SCSEQ": 100.0,
          "SCTESTCD": 100.0,
          "SCTEST": 100.0,
          "SCCAT": 100.0,
          "SCORRES": 100.0,
          "SCSTRESC": 100.0,
          "SCSTRESN": 54.08,
          "SCSTRESU": 54.08,
          "SCDTC": 100.0,
          "SCDY": 100.0
        }
      },
      "records_per_subject": {
        "mean": 4.4,
        "median": 4.0,
        "min": 3,
        "max": 5,
        "p25": 4.0,
        "p75": 5.0,
        "total_subjects": 138
      },
      "value_distributions": {
        "SCTESTCD": {
          "ALCUSE": 138,
          "BMI": 138,
          "TOBUSE": 138,
          "DURDIS": 117,
          "TOBPKYR": 70
        }
      },
      "conformance_findings": {
        "errors": [],
        "warnings": [],
        "infos": [
          {
            "rule_id": "G7_DUPLICATE_ROWS",
            "category": "FDA Submission Rules",
            "source": "Pinnacle 21 (SD1042)",
            "description": "No domain should contain exact duplicate rows (all columns identical)",
            "result": "No duplicate rows",
            "affected_count": 0,
            "affected_usubjids": []
          },
          {
            "rule_id": "D20_DOMAIN_COL",
            "category": "Cross-domain Consistency",
            "source": "Pinnacle 21",
            "description": "Every domain must have a DOMAIN column with the correct 2-letter code, positioned as the second column",
            "result": "DOMAIN column correct",
            "affected_count": 0,
            "affected_usubjids": []
          },
          {
            "rule_id": "ST01_SC",
            "category": "STRUCTURAL",
            "category_description": "Checks that every domain has the correct SDTM-IG 3.4 column structure \u2014 required variables present, proper column ordering (STUDYID first, DOMAIN second), and correct data types.",
            "result": "All required variables present",
            "affected_count": 0
          }
        ]
      }
    },
    "SE": {
      "record_count": 380,
      "variable_count": 11,
      "completeness": {
        "required_vars_present": [
          "STUDYID",
          "DOMAIN",
          "USUBJID",
          "SESEQ",
          "ETCD",
          "ELEMENT"
        ],
        "required_vars_missing": [],
        "required_vars_pct": 100.0,
        "key_fields_populated_pct": 100.0,
        "date_fields": {},
        "variable_population": {
          "STUDYID": 100.0,
          "DOMAIN": 100.0,
          "USUBJID": 100.0,
          "SESEQ": 100.0,
          "ETCD": 100.0,
          "ELEMENT": 100.0,
          "EPOCH": 100.0,
          "SESTDTC": 100.0,
          "SEENDTC": 100.0,
          "SESTDY": 100.0,
          "SEENDY": 100.0
        }
      },
      "records_per_subject": {
        "mean": 2.8,
        "median": 3.0,
        "min": 2,
        "max": 3,
        "p25": 3.0,
        "p75": 3.0,
        "total_subjects": 138
      },
      "value_distributions": {},
      "conformance_findings": {
        "errors": [],
        "warnings": [],
        "infos": [
          {
            "rule_id": "G7_DUPLICATE_ROWS",
            "category": "FDA Submission Rules",
            "source": "Pinnacle 21 (SD1042)",
            "description": "No domain should contain exact duplicate rows (all columns identical)",
            "result": "No duplicate rows",
            "affected_count": 0,
            "affected_usubjids": []
          },
          {
            "rule_id": "D6_SE_GAPS",
            "category": "Domain Structure Rules",
            "source": "SDTM-IG 3.4",
            "description": "Subject Elements (SE) must have no gaps between consecutive epochs \u2014 SEENDTC of one element must equal SESTDTC of the next",
            "result": "SE timeline continuity valid (242 transitions)",
            "affected_count": 0,
            "affected_usubjids": []
          },
          {
            "rule_id": "D20_DOMAIN_COL",
            "category": "Cross-domain Consistency",
            "source": "Pinnacle 21",
            "description": "Every domain must have a DOMAIN column with the correct 2-letter code, positioned as the second column",
            "result": "DOMAIN column correct",
            "affected_count": 0,
            "affected_usubjids": []
          },
          {
            "rule_id": "ST01_SE",
            "category": "STRUCTURAL",
            "category_description": "Checks that every domain has the correct SDTM-IG 3.4 column structure \u2014 required variables present, proper column ordering (STUDYID first, DOMAIN second), and correct data types.",
            "result": "All required variables present",
            "affected_count": 0
          },
          {
            "rule_id": "ST02_SE",
            "category": "STRUCTURAL",
            "category_description": "Checks that every domain has the correct SDTM-IG 3.4 column structure \u2014 required variables present, proper column ordering (STUDYID first, DOMAIN second), and correct data types.",
            "result": "Unique keys valid",
            "affected_count": 0
          }
        ]
      }
    },
    "SS": {
      "record_count": 106,
      "variable_count": 14,
      "completeness": {
        "required_vars_present": [
          "STUDYID",
          "DOMAIN",
          "USUBJID",
          "SSSEQ",
          "SSTESTCD",
          "SSTEST"
        ],
        "required_vars_missing": [],
        "required_vars_pct": 100.0,
        "key_fields_populated_pct": 100.0,
        "date_fields": {},
        "variable_population": {
          "STUDYID": 100.0,
          "DOMAIN": 100.0,
          "USUBJID": 100.0,
          "SSSEQ": 100.0,
          "SSTESTCD": 100.0,
          "SSTEST": 100.0,
          "SSCAT": 0.0,
          "SSORRES": 100.0,
          "SSSTRESC": 100.0,
          "VISITNUM": 100.0,
          "VISIT": 100.0,
          "EPOCH": 100.0,
          "SSDTC": 100.0,
          "SSDY": 100.0
        }
      },
      "records_per_subject": {
        "mean": 1.0,
        "median": 1.0,
        "min": 1,
        "max": 1,
        "p25": 1.0,
        "p75": 1.0,
        "total_subjects": 106
      },
      "value_distributions": {
        "SSTESTCD": {
          "SURVSTAT": 106
        }
      },
      "conformance_findings": {
        "errors": [],
        "warnings": [],
        "infos": [
          {
            "rule_id": "G7_DUPLICATE_ROWS",
            "category": "FDA Submission Rules",
            "source": "Pinnacle 21 (SD1042)",
            "description": "No domain should contain exact duplicate rows (all columns identical)",
            "result": "No duplicate rows",
            "affected_count": 0,
            "affected_usubjids": []
          },
          {
            "rule_id": "D20_DOMAIN_COL",
            "category": "Cross-domain Consistency",
            "source": "Pinnacle 21",
            "description": "Every domain must have a DOMAIN column with the correct 2-letter code, positioned as the second column",
            "result": "DOMAIN column correct",
            "affected_count": 0,
            "affected_usubjids": []
          },
          {
            "rule_id": "ST01_SS",
            "category": "STRUCTURAL",
            "category_description": "Checks that every domain has the correct SDTM-IG 3.4 column structure \u2014 required variables present, proper column ordering (STUDYID first, DOMAIN second), and correct data types.",
            "result": "All required variables present",
            "affected_count": 0
          }
        ]
      }
    },
    "SU": {
      "record_count": 414,
      "variable_count": 18,
      "completeness": {
        "required_vars_present": [
          "STUDYID",
          "DOMAIN",
          "USUBJID",
          "SUSEQ",
          "SUTRT"
        ],
        "required_vars_missing": [],
        "required_vars_pct": 100.0,
        "key_fields_populated_pct": 100.0,
        "date_fields": {},
        "variable_population": {
          "STUDYID": 100.0,
          "DOMAIN": 100.0,
          "USUBJID": 100.0,
          "SUSEQ": 100.0,
          "SUTRT": 100.0,
          "SUDECOD": 100.0,
          "SUCAT": 100.0,
          "SUSCAT": 33.33,
          "SUOCCUR": 100.0,
          "SUSTAT": 0.0,
          "SUDOSE": 46.38,
          "SUDOSU": 46.38,
          "SUDOSFRQ": 46.38,
          "EPOCH": 100.0,
          "SUSTDTC": 63.29,
          "SUENDTC": 16.91,
          "SUSTDY": 63.29,
          "SUENDY": 16.91
        }
      },
      "records_per_subject": {
        "mean": 3.0,
        "median": 3.0,
        "min": 3,
        "max": 3,
        "p25": 3.0,
        "p75": 3.0,
        "total_subjects": 138
      },
      "value_distributions": {
        "SUTRT": {
          "ALCOHOL": 138,
          "COFFEE": 138,
          "CIGARETTES": 138
        },
        "SUCAT": {
          "ALCOHOL": 138,
          "CAFFEINE": 138,
          "TOBACCO": 138
        }
      },
      "conformance_findings": {
        "errors": [],
        "warnings": [],
        "infos": [
          {
            "rule_id": "G7_DUPLICATE_ROWS",
            "category": "FDA Submission Rules",
            "source": "Pinnacle 21 (SD1042)",
            "description": "No domain should contain exact duplicate rows (all columns identical)",
            "result": "No duplicate rows",
            "affected_count": 0,
            "affected_usubjids": []
          },
          {
            "rule_id": "D20_DOMAIN_COL",
            "category": "Cross-domain Consistency",
            "source": "Pinnacle 21",
            "description": "Every domain must have a DOMAIN column with the correct 2-letter code, positioned as the second column",
            "result": "DOMAIN column correct",
            "affected_count": 0,
            "affected_usubjids": []
          },
          {
            "rule_id": "ST01_SU",
            "category": "STRUCTURAL",
            "category_description": "Checks that every domain has the correct SDTM-IG 3.4 column structure \u2014 required variables present, proper column ordering (STUDYID first, DOMAIN second), and correct data types.",
            "result": "All required variables present",
            "affected_count": 0
          }
        ]
      }
    },
    "SV": {
      "record_count": 1069,
      "variable_count": 13,
      "completeness": {
        "required_vars_present": [
          "STUDYID",
          "DOMAIN",
          "USUBJID",
          "SVSEQ",
          "VISITNUM"
        ],
        "required_vars_missing": [],
        "required_vars_pct": 100.0,
        "key_fields_populated_pct": 100.0,
        "date_fields": {
          "SVSTDTC": {
            "populated_pct": 100.0
          },
          "SVENDTC": {
            "populated_pct": 100.0
          }
        },
        "variable_population": {
          "STUDYID": 100.0,
          "DOMAIN": 100.0,
          "USUBJID": 100.0,
          "SVSEQ": 100.0,
          "VISITNUM": 100.0,
          "VISIT": 100.0,
          "SVPRESP": 100.0,
          "SVOCCUR": 100.0,
          "EPOCH": 100.0,
          "SVSTDTC": 100.0,
          "SVENDTC": 100.0,
          "SVSTDY": 98.88,
          "SVENDY": 98.88
        }
      },
      "records_per_subject": {
        "mean": 7.1,
        "median": 9.0,
        "min": 1,
        "max": 9,
        "p25": 5.2,
        "p75": 9.0,
        "total_subjects": 150
      },
      "value_distributions": {},
      "conformance_findings": {
        "errors": [],
        "warnings": [],
        "infos": [
          {
            "rule_id": "G7_DUPLICATE_ROWS",
            "category": "FDA Submission Rules",
            "source": "Pinnacle 21 (SD1042)",
            "description": "No domain should contain exact duplicate rows (all columns identical)",
            "result": "No duplicate rows",
            "affected_count": 0,
            "affected_usubjids": []
          },
          {
            "rule_id": "D20_DOMAIN_COL",
            "category": "Cross-domain Consistency",
            "source": "Pinnacle 21",
            "description": "Every domain must have a DOMAIN column with the correct 2-letter code, positioned as the second column",
            "result": "DOMAIN column correct",
            "affected_count": 0,
            "affected_usubjids": []
          },
          {
            "rule_id": "ST01_SV",
            "category": "STRUCTURAL",
            "category_description": "Checks that every domain has the correct SDTM-IG 3.4 column structure \u2014 required variables present, proper column ordering (STUDYID first, DOMAIN second), and correct data types.",
            "result": "All required variables present",
            "affected_count": 0
          },
          {
            "rule_id": "ST02_SV",
            "category": "STRUCTURAL",
            "category_description": "Checks that every domain has the correct SDTM-IG 3.4 column structure \u2014 required variables present, proper column ordering (STUDYID first, DOMAIN second), and correct data types.",
            "result": "Unique keys valid",
            "affected_count": 0
          }
        ]
      }
    },
    "TA": {
      "record_count": 3,
      "variable_count": 10,
      "completeness": {
        "required_vars_present": [],
        "required_vars_missing": [],
        "required_vars_pct": 100.0,
        "key_fields_populated_pct": 100.0,
        "date_fields": {},
        "variable_population": {
          "STUDYID": 100.0,
          "DOMAIN": 100.0,
          "ARMCD": 100.0,
          "ARM": 100.0,
          "TAETORD": 100.0,
          "ETCD": 100.0,
          "ELEMENT": 100.0,
          "TABRANCH": 0.0,
          "TATRANS": 66.67,
          "EPOCH": 100.0
        }
      },
      "records_per_subject": {},
      "value_distributions": {},
      "conformance_findings": {
        "errors": [],
        "warnings": [],
        "infos": [
          {
            "rule_id": "G7_DUPLICATE_ROWS",
            "category": "FDA Submission Rules",
            "source": "Pinnacle 21 (SD1042)",
            "description": "No domain should contain exact duplicate rows (all columns identical)",
            "result": "No duplicate rows",
            "affected_count": 0,
            "affected_usubjids": []
          },
          {
            "rule_id": "TD_TA_ARM",
            "category": "Trial Design Integrity",
            "source": "SDTM-IG 3.4",
            "description": "Every ARMCD in Trial Arms (TA) must match an ARMCD assigned to enrolled subjects in DM, and vice versa",
            "result": "TA arms match DM enrolled arms",
            "affected_count": 0,
            "affected_usubjids": []
          },
          {
            "rule_id": "ST01_TA",
            "category": "STRUCTURAL",
            "category_description": "Checks that every domain has the correct SDTM-IG 3.4 column structure \u2014 required variables present, proper column ordering (STUDYID first, DOMAIN second), and correct data types.",
            "result": "All required variables present",
            "affected_count": 0
          }
        ]
      }
    },
    "TE": {
      "record_count": 3,
      "variable_count": 7,
      "completeness": {
        "required_vars_present": [],
        "required_vars_missing": [],
        "required_vars_pct": 100.0,
        "key_fields_populated_pct": 100.0,
        "date_fields": {},
        "variable_population": {
          "STUDYID": 100.0,
          "DOMAIN": 100.0,
          "ETCD": 100.0,
          "ELEMENT": 100.0,
          "TESTRL": 100.0,
          "TEENRL": 100.0,
          "TEDUR": 100.0
        }
      },
      "records_per_subject": {},
      "value_distributions": {},
      "conformance_findings": {
        "errors": [],
        "warnings": [],
        "infos": [
          {
            "rule_id": "G7_DUPLICATE_ROWS",
            "category": "FDA Submission Rules",
            "source": "Pinnacle 21 (SD1042)",
            "description": "No domain should contain exact duplicate rows (all columns identical)",
            "result": "No duplicate rows",
            "affected_count": 0,
            "affected_usubjids": []
          },
          {
            "rule_id": "TD_TE_ELEMENT",
            "category": "Trial Design Integrity",
            "source": "SDTM-IG 3.4",
            "description": "Every trial element defined in TE must appear as an actual element in at least one Subject Element (SE) record",
            "result": "All TE elements appear in SE",
            "affected_count": 0,
            "affected_usubjids": []
          },
          {
            "rule_id": "ST01_TE",
            "category": "STRUCTURAL",
            "category_description": "Checks that every domain has the correct SDTM-IG 3.4 column structure \u2014 required variables present, proper column ordering (STUDYID first, DOMAIN second), and correct data types.",
            "result": "All required variables present",
            "affected_count": 0
          }
        ]
      }
    },
    "TI": {
      "record_count": 10,
      "variable_count": 8,
      "completeness": {
        "required_vars_present": [],
        "required_vars_missing": [],
        "required_vars_pct": 100.0,
        "key_fields_populated_pct": 100.0,
        "date_fields": {},
        "variable_population": {
          "STUDYID": 100.0,
          "DOMAIN": 100.0,
          "IETESTCD": 100.0,
          "IETEST": 100.0,
          "IECAT": 100.0,
          "IESCAT": 0.0,
          "TIRL": 0.0,
          "TIVERS": 100.0
        }
      },
      "records_per_subject": {},
      "value_distributions": {},
      "conformance_findings": {
        "errors": [],
        "warnings": [],
        "infos": [
          {
            "rule_id": "G7_DUPLICATE_ROWS",
            "category": "FDA Submission Rules",
            "source": "Pinnacle 21 (SD1042)",
            "description": "No domain should contain exact duplicate rows (all columns identical)",
            "result": "No duplicate rows",
            "affected_count": 0,
            "affected_usubjids": []
          },
          {
            "rule_id": "TD_TI_IE",
            "category": "Trial Design Integrity",
            "source": "SDTM-IG 3.4",
            "description": "Every inclusion/exclusion criterion defined in TI should be assessed in at least one IE record (criteria never triggered are acceptable)",
            "result": "4 TI criteria never assessed in IE (normal if all subjects passed): ['EXCL04', 'INCL01', 'INCL02', 'INCL05']",
            "affected_count": 0,
            "affected_usubjids": []
          },
          {
            "rule_id": "ST01_TI",
            "category": "STRUCTURAL",
            "category_description": "Checks that every domain has the correct SDTM-IG 3.4 column structure \u2014 required variables present, proper column ordering (STUDYID first, DOMAIN second), and correct data types.",
            "result": "All required variables present",
            "affected_count": 0
          }
        ]
      }
    },
    "TS": {
      "record_count": 44,
      "variable_count": 11,
      "completeness": {
        "required_vars_present": [],
        "required_vars_missing": [],
        "required_vars_pct": 100.0,
        "key_fields_populated_pct": 100.0,
        "date_fields": {},
        "variable_population": {
          "STUDYID": 100.0,
          "DOMAIN": 100.0,
          "TSSEQ": 100.0,
          "TSGRPID": 0.0,
          "TSPARMCD": 100.0,
          "TSPARM": 100.0,
          "TSVAL": 100.0,
          "TSVALNF": 0.0,
          "TSVALCD": 40.91,
          "TSVCDREF": 47.73,
          "TSVCDVER": 45.45
        }
      },
      "records_per_subject": {},
      "value_distributions": {},
      "conformance_findings": {
        "errors": [],
        "warnings": [],
        "infos": [
          {
            "rule_id": "G7_DUPLICATE_ROWS",
            "category": "FDA Submission Rules",
            "source": "Pinnacle 21 (SD1042)",
            "description": "No domain should contain exact duplicate rows (all columns identical)",
            "result": "No duplicate rows",
            "affected_count": 0,
            "affected_usubjids": []
          },
          {
            "rule_id": "TD_TS_PARAMS",
            "category": "Trial Design Integrity",
            "source": "Pinnacle 21 (SD0036)",
            "description": "Trial Summary (TS) must contain FDA-recommended parameters: TITLE, TPHASE, STYPE, TBLIND, SSTDTC, SENDTC, NARMS, PCLAS with non-blank values",
            "result": "All 8 recommended TS parameters present with values",
            "affected_count": 0,
            "affected_usubjids": []
          },
          {
            "rule_id": "ST01_TS",
            "category": "STRUCTURAL",
            "category_description": "Checks that every domain has the correct SDTM-IG 3.4 column structure \u2014 required variables present, proper column ordering (STUDYID first, DOMAIN second), and correct data types.",
            "result": "All required variables present",
            "affected_count": 0
          }
        ]
      }
    },
    "TV": {
      "record_count": 9,
      "variable_count": 9,
      "completeness": {
        "required_vars_present": [],
        "required_vars_missing": [],
        "required_vars_pct": 100.0,
        "key_fields_populated_pct": 100.0,
        "date_fields": {},
        "variable_population": {
          "STUDYID": 100.0,
          "DOMAIN": 100.0,
          "VISITNUM": 100.0,
          "VISIT": 100.0,
          "VISITDY": 100.0,
          "ARMCD": 100.0,
          "ARM": 100.0,
          "TVSTRL": 100.0,
          "TVENRL": 100.0
        }
      },
      "records_per_subject": {},
      "value_distributions": {},
      "conformance_findings": {
        "errors": [],
        "warnings": [],
        "infos": [
          {
            "rule_id": "G7_DUPLICATE_ROWS",
            "category": "FDA Submission Rules",
            "source": "Pinnacle 21 (SD1042)",
            "description": "No domain should contain exact duplicate rows (all columns identical)",
            "result": "No duplicate rows",
            "affected_count": 0,
            "affected_usubjids": []
          },
          {
            "rule_id": "TD_TV_VISIT",
            "category": "Trial Design Integrity",
            "source": "SDTM-IG 3.4",
            "description": "Every planned visit in Trial Visits (TV) should be attended by at least one subject in Subject Visits (SV)",
            "result": "All planned visits attended by at least one subject",
            "affected_count": 0,
            "affected_usubjids": []
          },
          {
            "rule_id": "ST01_TV",
            "category": "STRUCTURAL",
            "category_description": "Checks that every domain has the correct SDTM-IG 3.4 column structure \u2014 required variables present, proper column ordering (STUDYID first, DOMAIN second), and correct data types.",
            "result": "All required variables present",
            "affected_count": 0
          }
        ]
      }
    },
    "VS": {
      "record_count": 7651,
      "variable_count": 19,
      "completeness": {
        "required_vars_present": [
          "STUDYID",
          "DOMAIN",
          "USUBJID",
          "VSSEQ",
          "VSTESTCD",
          "VSTEST",
          "VSORRES",
          "VSORRESU"
        ],
        "required_vars_missing": [],
        "required_vars_pct": 100.0,
        "key_fields_populated_pct": 99.58,
        "date_fields": {
          "VSDTC": {
            "populated_pct": 100.0
          }
        },
        "variable_population": {
          "STUDYID": 100.0,
          "DOMAIN": 100.0,
          "USUBJID": 100.0,
          "VSSEQ": 100.0,
          "VSTESTCD": 100.0,
          "VSTEST": 100.0,
          "VSORRES": 98.31,
          "VSORRESU": 98.31,
          "VSSTRESC": 98.31,
          "VSSTRESN": 98.31,
          "VSSTRESU": 98.31,
          "VSSTAT": 1.69,
          "VSLOBXFL": 14.43,
          "VSBLFL": 14.43,
          "VISITNUM": 100.0,
          "VISIT": 100.0,
          "EPOCH": 100.0,
          "VSDTC": 100.0,
          "VSDY": 100.0
        }
      },
      "records_per_subject": {
        "mean": 55.4,
        "median": 63.5,
        "min": 15,
        "max": 72,
        "p25": 48.0,
        "p75": 71.0,
        "total_subjects": 138
      },
      "value_distributions": {
        "VSTESTCD": {
          "DIABP": 962,
          "HEIGHT": 962,
          "PULSE": 962,
          "RESP": 962,
          "SYSBP": 962,
          "TEMP": 962,
          "WEIGHT": 962,
          "BMI": 917
        }
      },
      "conformance_findings": {
        "errors": [],
        "warnings": [],
        "infos": [
          {
            "rule_id": "G7_DUPLICATE_ROWS",
            "category": "FDA Submission Rules",
            "source": "Pinnacle 21 (SD1042)",
            "description": "No domain should contain exact duplicate rows (all columns identical)",
            "result": "No duplicate rows",
            "affected_count": 0,
            "affected_usubjids": []
          },
          {
            "rule_id": "D2_AFTER_DEATH",
            "category": "Domain Structure Rules",
            "source": "sdtmchecks R package",
            "description": "No clinical events (AE, EX, LB, VS, CM) should occur after the subject's death date",
            "result": "No VS dates after death",
            "affected_count": 0,
            "affected_usubjids": []
          },
          {
            "rule_id": "D7_VISIT_ORDER_VS",
            "category": "Domain Structure Rules",
            "source": "Pinnacle 21",
            "description": "Visit dates must be in chronological order of VISITNUM within VS",
            "result": "Visit dates chronological by VISITNUM",
            "affected_count": 0,
            "affected_usubjids": []
          },
          {
            "rule_id": "D8_SBP_DBP",
            "category": "Domain Structure Rules",
            "source": "sdtmchecks R package",
            "description": "Systolic blood pressure must be greater than or equal to diastolic blood pressure for the same time point",
            "result": "SBP \u2265 DBP valid (933 paired readings)",
            "affected_count": 0,
            "affected_usubjids": []
          },
          {
            "rule_id": "D17_EPOCH_VS",
            "category": "Cross-domain Consistency",
            "source": "Pinnacle 21",
            "description": "EPOCH assignment must match Subject Elements (SE) timeline for records in VS",
            "result": "EPOCH populated (7651/7651)",
            "affected_count": 0,
            "affected_usubjids": []
          },
          {
            "rule_id": "D20_DOMAIN_COL",
            "category": "Cross-domain Consistency",
            "source": "Pinnacle 21",
            "description": "Every domain must have a DOMAIN column with the correct 2-letter code, positioned as the second column",
            "result": "DOMAIN column correct",
            "affected_count": 0,
            "affected_usubjids": []
          },
          {
            "rule_id": "CN_VS_RANGES",
            "category": "Clinical Plausibility",
            "source": "Clinical validation rules",
            "description": "Vital sign results must fall within physiologically possible ranges (e.g., SBP 60\u2013220 mmHg, TEMP 34\u201342\u00b0C)",
            "result": "VS values within physiological ranges",
            "affected_count": 0,
            "affected_usubjids": []
          },
          {
            "rule_id": "ST01_VS",
            "category": "STRUCTURAL",
            "category_description": "Checks that every domain has the correct SDTM-IG 3.4 column structure \u2014 required variables present, proper column ordering (STUDYID first, DOMAIN second), and correct data types.",
            "result": "All required variables present",
            "affected_count": 0
          },
          {
            "rule_id": "ST02_VS",
            "category": "STRUCTURAL",
            "category_description": "Checks that every domain has the correct SDTM-IG 3.4 column structure \u2014 required variables present, proper column ordering (STUDYID first, DOMAIN second), and correct data types.",
            "result": "Unique keys valid",
            "affected_count": 0
          }
        ]
      }
    },
    "_cross_domain": {
      "record_count": 0,
      "variable_count": 0,
      "completeness": {},
      "conformance_findings": {
        "errors": [],
        "warnings": [],
        "infos": [
          {
            "rule_id": "G8_VISITNUM_VISIT",
            "category": "FDA Submission Rules",
            "source": "Pinnacle 21 (SD1050)",
            "description": "Each VISITNUM value must map to exactly one VISIT label across all domains",
            "result": "VISITNUM-VISIT mapping consistent (9 visit numbers)",
            "affected_count": 0,
            "affected_usubjids": []
          },
          {
            "rule_id": "D14_ISO8601",
            "category": "Date and Temporal Integrity",
            "source": "FDA Technical Rejection Criteria",
            "description": "All date/time variables (--DTC) must be valid ISO 8601 format across every domain",
            "result": "All 22251 date values are valid ISO 8601",
            "affected_count": 0,
            "affected_usubjids": []
          },
          {
            "rule_id": "D15_STUDYID",
            "category": "Date and Temporal Integrity",
            "source": "FDA Technical Rejection Criteria",
            "description": "STUDYID must be identical and single-valued across all domains",
            "result": "STUDYID consistent across 27 domains",
            "affected_count": 0,
            "affected_usubjids": []
          }
        ]
      }
    }
  },
  "cross_domain": {
    "subject_set_consistency": {
      "dm_subjects": 150,
      "ae_subjects": 124,
      "subjects_in_ae_not_dm": [],
      "enrolled_subjects_without_ae": 14
    },
    "exposure_coverage": {
      "enrolled_subjects": 138,
      "subjects_with_exposure": 138,
      "missing_exposure_usubjids": []
    },
    "disposition_coverage": {
      "enrolled_subjects": 138,
      "subjects_with_disposition": 138
    },
    "domain_coverage_matrix": {
      "all_domains": [
        "AE",
        "CM",
        "DA",
        "DD",
        "DM",
        "DS",
        "DV",
        "EC",
        "EX",
        "FA",
        "HO",
        "IE",
        "LB",
        "MH",
        "PE",
        "RELREC",
        "SC",
        "SE",
        "SS",
        "SU",
        "SV",
        "VS"
      ],
      "subjects_per_domain": {
        "AE": 124,
        "CM": 133,
        "DA": 138,
        "DD": 2,
        "DM": 150,
        "DS": 150,
        "DV": 125,
        "EC": 138,
        "EX": 138,
        "FA": 138,
        "HO": 76,
        "IE": 12,
        "LB": 138,
        "MH": 117,
        "PE": 138,
        "RELREC": 116,
        "SC": 138,
        "SE": 138,
        "SS": 106,
        "SU": 138,
        "SV": 150,
        "VS": 138
      },
      "enrolled_subjects_missing_from": {
        "AE": [
          "VISION-NSCLC-SITE001-0016",
          "VISION-NSCLC-SITE001-0034",
          "VISION-NSCLC-SITE001-0040",
          "VISION-NSCLC-SITE001-0064",
          "VISION-NSCLC-SITE001-0097",
          "VISION-NSCLC-SITE001-0115",
          "VISION-NSCLC-SITE002-0017",
          "VISION-NSCLC-SITE002-0026",
          "VISION-NSCLC-SITE002-0050",
          "VISION-NSCLC-SITE002-0092",
          "VISION-NSCLC-SITE002-0107",
          "VISION-NSCLC-SITE002-0113",
          "VISION-NSCLC-SITE003-0069",
          "VISION-NSCLC-SITE003-0144"
        ]
      }
    }
  },
  "conformance_summary": {
    "categories": {
      "STRUCTURAL": {
        "description": "Checks that every domain has the correct SDTM-IG 3.4 column structure \u2014 required variables present, proper column ordering (STUDYID first, DOMAIN second), and correct data types.",
        "errors": 0,
        "warnings": 0,
        "passed": 37
      },
      "TEMPORAL": {
        "description": "Validates date logic within and across domains \u2014 reference dates are chronologically ordered, study day derivations are correct, and no temporal impossibilities exist.",
        "errors": 0,
        "warnings": 0,
        "passed": 4
      },
      "TERMINOLOGY": {
        "description": "Verifies that coded values (AESEV, AEOUT, SEX, RACE, etc.) use CDISC Controlled Terminology and that dictionary-derived terms (AEDECOD, CMDECOD) are populated.",
        "errors": 0,
        "warnings": 0,
        "passed": 5
      },
      "COHERENCE": {
        "description": "Cross-domain logical consistency \u2014 subjects who died have matching DM/DS/AE records, ARM matches ACTARM for enrolled subjects, exposure aligns with disposition.",
        "errors": 0,
        "warnings": 0,
        "passed": 7
      },
      "DERIVED": {
        "description": "Validates computed variables \u2014 study day (--DY) correctly derived from reference start date, EPOCH assigned from Subject Elements timeline.",
        "errors": 0,
        "warnings": 0,
        "passed": 2
      }
    }
  },
  "quality_checks_summary": {
    "total_checks": 95,
    "total_errors": 0,
    "total_warnings": 0,
    "total_passed": 95,
    "by_category": {
      "FDA Submission Rules": {
        "description": "Checks required by FDA for electronic submissions \u2014 derived from Pinnacle 21 Community validation rules (SD-series). Errors here would cause a Technical Rejection of the submission.",
        "checks_run": 32,
        "errors": 0,
        "warnings": 0,
        "passed": 32
      },
      "Domain Structure Rules": {
        "description": "Domain-specific structural rules \u2014 SE epochs have no gaps, DS has at most one discontinuation per subject, reference ranges are populated for quantitative labs, no semantic duplicates.",
        "checks_run": 22,
        "errors": 0,
        "warnings": 0,
        "passed": 22
      },
      "Date and Temporal Integrity": {
        "description": "Validates that all dates are valid ISO 8601, in logical chronological order, and consistent across domains (e.g., no events after death).",
        "checks_run": 3,
        "errors": 0,
        "warnings": 0,
        "passed": 3
      },
      "Cross-domain Consistency": {
        "description": "Ensures values that appear in multiple domains are aligned \u2014 ARM matches ACTARM, STUDYID is uniform, EPOCH matches SE timeline, dictionary-derived terms are populated.",
        "checks_run": 27,
        "errors": 0,
        "warnings": 0,
        "passed": 27
      },
      "Clinical Plausibility": {
        "description": "Checks that clinical values fall within physiologically possible ranges and that the clinical narrative is internally consistent (e.g., medical history pre-dates study start).",
        "checks_run": 6,
        "errors": 0,
        "warnings": 0,
        "passed": 6
      },
      "Trial Design Integrity": {
        "description": "Validates consistency between trial design domains (TA, TE, TV, TS, TI) and the subject-level data \u2014 arms match between TA and DM, planned visits in TV appear in SV, elements in TE appear in SE, required TS parameters are present.",
        "checks_run": 5,
        "errors": 0,
        "warnings": 0,
        "passed": 5
      }
    }
  }
}